time,seconds_elapsed,roll,rotationRateZ,quaternionY,rotationRateY,quaternionZ,quaternionW,yaw,devicelocation,accelerationZ,pitch,gravityX,gravityZ,quaternionX,rotationRateX,accelerationX,gravityY,accelerationY
1745971599537877800,0.502877685546875,-0.12279364145901098,-0.05766516178846359,-0.06116643698513783,0.00346477422863245,-1.442292141606385e-17,0.9970813485877793,-0.005612695603867328,right,-0.012592723593115807,-0.09123871859677528,-1.196173120773956,-9.692326870727538,-0.045689444109832646,-0.09022830426692963,0.0025670621544122696,0.8935044714238494,-0.007861804217100143
1745971599577878000,0.5428779296875,-0.12177226753030769,0.026416627690196037,-0.06068469008037636,0.002633359283208847,0.0003004974695873832,0.9971837335690871,-0.004767772339614579,right,-0.00041407346725463867,-0.08803934848426669,-1.1866142151162027,-9.696331430193782,-0.04406870434692884,-0.08314970135688782,0.0028983354568481445,0.8622553466793149,-0.008806921541690826
1745971599617878000,0.5828779296875,-0.12016431437699221,0.0620989128947258,-0.05996147293304411,0.034696053713560104,0.0015126543683483863,0.9973924185019484,-0.0018012942035863678,right,0.011890292167663574,-0.08032507865068524,-1.1717839449267833,-9.704542209178209,-0.04013331425103841,-0.03458945453166962,0.00553496927022934,0.7868723350454121,0.008558779954910278
1745971599657878000,0.6228779296875,-0.11842450856804193,0.045484691858291626,-0.05913440831927059,0.06732052564620972,0.002309684027873062,0.9975023891365875,0.00004760382992453449,right,0.006277322769165039,-0.07727614210510927,-1.1551762167360633,-9.708903326997161,-0.038559351792454497,-0.01997406780719757,0.002939082682132721,0.7570652258027345,0.016665734350681305
1745971599803116500,0.768116455078125,-0.11449756559672569,-0.012349488213658333,-0.05718161317820272,-0.010343275964260101,0.003054462129937055,0.9973533820708756,0.0009731233085692153,right,0.0017984037986025214,-0.08983443868418016,-1.1158669004589319,-9.703153969690202,-0.04480073973001712,-0.052877962589263916,0.00459442799910903,0.8797896151304244,0.005897861439734697
1745971599843116500,0.808116455078125,-0.11441822487804797,-0.014620793983340263,-0.05713072381963682,-0.015992848202586174,0.002893713927592391,0.9973175041166036,0.0005562333512728257,right,-0.003581523895263672,-0.09154783615495411,-1.114923262933269,-9.701730658888817,-0.04566718835651062,-0.021983493119478226,-0.00002658367156982422,0.8965232347231358,0.007213428616523743
1745971600003984600,0.968984619140625,-0.11626398648589067,-0.03938822075724602,-0.057892328377334705,-0.011922876350581646,0.00021120641006388093,0.9970710365583368,-0.0053923164404231635,right,-0.004081316292285919,-0.09985216974410178,-1.1319257625952361,-9.691927057754993,-0.049977316419920606,-0.04026642069220543,-0.0028131993021816015,0.977588091385737,0.00634654238820076
1745971600043984600,1.008984619140625,-0.11724137272633949,-0.012857677415013313,-0.058349668853123315,-0.020065851509571075,-0.0001919645937069731,0.9969958252967478,-0.006360064849543414,right,-0.0008330345153808594,-0.10172183724008867,-1.1411821781750768,-9.688983990040422,-0.0509374776707913,-0.04761587828397751,-0.004770562052726746,0.995830215845257,0.0017304494976997375
1745971600083984600,1.048984619140625,-0.11862833381066783,0.023183343932032585,-0.0590334953570862,-0.025109481066465378,-0.00010865150984302747,0.9968999926758271,-0.0063923995407726125,right,0.005348145961761475,-0.10388161629109113,-1.154362050808966,-9.685233697596193,-0.05201510088936263,-0.05160488933324814,-0.0004248395562171936,1.0168985767066478,0.0016653761267662048
1745971600123984600,1.088984619140625,-0.11934118285926097,0.029933564364910126,-0.05940588443218539,-0.012596584856510162,0.0004248885606071797,0.9968218030409567,-0.0054898354028963476,right,0.0032535791397094727,-0.10606353825505656,-1.1609989315401763,-9.682181908810138,-0.05307583971161183,-0.05833990126848221,-0.0007477626204490662,1.038178096100688,0.005697332322597504
1745971600163985000,1.12898486328125,-0.12003969584795096,0.004864709451794624,-0.05976706176544175,-0.020405258983373642,0.000930683662059258,0.9967219075096292,-0.004689660732057027,right,-0.001802980899810791,-0.10901077931637937,-1.167390313077718,-9.678288993024825,-0.05452060202547392,-0.061187345534563065,-0.0018342062830924988,1.066913703654334,0.01393340528011322
1745971600203984600,1.168984619140625,-0.12053079093901141,-0.020845595747232437,-0.059990594294948456,-0.013989726081490517,0.0007690123627231591,0.9966380518875907,-0.005193798031104057,right,-0.00030541419982910156,-0.11153830681737945,-1.1718151437826454,-9.675006318092345,-0.055795036402056526,-0.059401221573352814,-0.0012330114841461182,1.091549766934663,0.009799815714359283
1745971600243984600,1.208984619140625,-0.121244918003212,-0.03658359497785568,-0.0602896124829607,-0.012459354475140572,-0.000017374733711103897,0.9965532810236526,-0.006950300227137099,right,-0.0001628398895263672,-0.11381141075857464,-1.1784208987232296,-9.67167921949625,-0.05698037749670633,-0.025781167671084404,0.00011567026376724243,1.1136999316833913,0.0036785155534744263
1745971600283984600,1.248984619140625,-0.1215102449088593,-0.027768108993768692,-0.060391960081092426,-0.008374721743166447,-0.0004483253288806228,0.99652018359326,-0.007884039612005837,right,-0.0032938122749328613,-0.11469061774773008,-1.18086785348393,-9.67039034872949,-0.05744665114010291,-0.019709717482328415,0.0009699612855911255,1.1222658077158034,0.003967761993408203
1745971600323984600,1.288984619140625,-0.12217002887676905,-0.03324248269200325,-0.060661058509213446,-0.012044866569340229,-0.001308929639878738,0.996456500343774,-0.0097413095102873,right,0.00007367134094238281,-0.116187686491957,-1.1870418659437447,-9.667931265139579,-0.05824903085428161,-0.03101205639541149,0.003734774887561798,1.1368492635373026,0.005446814000606537
1745971600363984600,1.328984619140625,-0.12198856060875264,-0.020881742238998413,-0.060537754619692505,-0.004727667663246393,-0.0017589636369043028,0.9964293582197687,-0.010701747573858769,right,-0.0014185309410095215,-0.11729198915092101,-1.1851339864958077,-9.666894323307275,-0.05882815551602137,-0.023465139791369438,0.0010510757565498352,1.1476051238946616,0.0038656294345855713
1745971600403984600,1.368984619140625,-0.1219916733041179,-0.02093779854476452,-0.06051513650306927,-0.007943297736346722,-0.0020832951810652615,0.9964057609365152,-0.011400769484718423,right,-0.001392066478729248,-0.11807122486091184,-1.1850548568449915,-9.666000004816055,-0.05923752531300484,-0.019346456974744797,0.00010433048009872437,1.1551938985232264,0.0032832324504852295
1745971600443984600,1.408984619140625,-0.12199537329084073,-0.020993854850530624,-0.06049251363531901,-0.011158928275108337,-0.002407600879938069,0.9963820329031563,-0.012099811215436905,right,-0.0013663172721862793,-0.11885049859756097,-1.1849806956302373,-9.665099256584048,-0.0596468890761241,-0.015227774158120155,-0.0008419007062911987,1.1627824539560825,0.0027008652687072754
1745971600483984600,1.448984619140625,-0.12200084677992676,-0.01545522827655077,-0.06045873462375706,0.010745000094175339,-0.002912460164452215,0.9963537538250054,-0.013169074898538833,right,0.0009517669677734375,-0.11975423964659992,-1.1849052923064678,-9.664045948138833,-0.060129435718664345,-0.0276346392929554,0.0010926052927970886,1.171582138744369,0.003250502049922943
1745971600523984600,1.488984619140625,-0.12208256405742843,-0.005752859637141228,-0.06048224831852785,0.0027131978422403336,-0.0030247138488574163,0.9963073274566621,-0.013489018704480127,right,0.0014674067497253418,-0.12121199581763047,-1.1854857225429265,-9.662243282631039,-0.06086539696633864,-0.03382531926035881,0.0006237328052520752,1.185774184095487,0.002078041434288025
1745971600563984600,1.528984619140625,-0.12216473100811227,0.003949509933590889,-0.060505713551924876,-0.005318603478372097,-0.0031370055450639354,0.9962602686234913,-0.013809215437590346,right,0.001980900764465332,-0.12266968546309798,-1.186067760214582,-9.660420158857107,-0.0616013112734588,-0.04001599922776222,0.0001550242304801941,1.1999630876414478,0.0009059086441993713
1745971600603984600,1.568984619140625,-0.122241708604729,0.01827681064605713,-0.06054509966952804,-0.00527022872120142,-0.0029633591725795583,0.9962175611550446,-0.013547614836959009,right,0.00006133317947387695,-0.12400442698139268,-1.1866150188338012,-9.658730306074023,-0.062258338502001916,-0.02069873735308647,0.000004813075065612793,1.212952990661189,0.00002804398536682129
1745971600643984600,1.608984619140625,-0.12257720393444357,0.028734559193253517,-0.060740235314763934,-0.011056016199290752,-0.0023637932367100542,0.9961697584337712,-0.012443160346200584,right,-0.0016880631446838379,-0.12527201913348446,-1.1896664422936736,-9.656797876706719,-0.06285664625612097,-0.023508792743086815,-0.002114921808242798,1.2252874254468828,0.005475327372550964
1745971600683984600,1.648984619140625,-0.12280946691082299,0.020027581602334976,-0.06086745112424396,-0.005570848938077688,-0.0020563440019759926,0.9961294798299015,-0.011907563275205932,right,-0.000272214412689209,-0.12635543321612722,-1.1917460250467062,-9.655198040294646,-0.06338021688708968,-0.02161838486790657,-0.0014427155256271362,1.2358280356183646,0.004184216260910034
1745971600723984600,1.688984619140625,-0.12304118443890685,0.011320604011416435,-0.06099464564871944,-0.00008568214252591133,-0.001748947981483296,0.9960887831304287,-0.011372254959559397,right,0.0011425614356994629,-0.127438966211105,-1.1938182282108813,-9.653587097966671,-0.06390376632828386,-0.019727976992726326,-0.0007712393999099731,1.2463684265941382,0.002893105149269104
1745971600763984600,1.728984619140625,-0.12323712011117986,0.017249761149287224,-0.06110472580811338,-0.0036679625045508146,-0.0014106037856374744,0.9960412158207019,-0.010787724753482775,right,-0.0011907219886779785,-0.12876472090821656,-1.1955055237106977,-9.65170493748188,-0.06454631365808278,-0.019295809790492058,-0.0014051124453544617,1.2592631256110967,0.0036021918058395386
1745971600803984600,1.768984619140625,-0.12338504571274928,0.01885456033051014,-0.06119047419720644,-0.00581691600382328,-0.0011460921654816456,0.99601375245419,-0.010311179613711932,right,0.00023597478866577148,-0.1294892774559668,-1.1968206248972564,-9.650620064854621,-0.06489266450874967,-0.02267993427813053,-0.000421673059463501,1.2663093908607959,0.001383662223815918
1745971600843984600,1.808984619140625,-0.12332463065518785,0.04767625778913498,-0.06120110075681095,0.003734694793820381,-0.00040536029619721254,0.9959764911523799,-0.008896084665612855,right,0.0019798874855041504,-0.13071825986862498,-1.1960452566105872,-9.649140639951824,-0.06546134692236183,-0.018261417746543884,0.0004986301064491272,1.2782597947649657,-0.0004841536283493042
1745971600883984600,1.848984619140625,-0.12275763278730162,0.0647725984454155,-0.06100217417396433,0.011157253757119179,0.0009422248795422784,0.995956694188669,-0.0062223999819371505,right,-0.00022679567337036133,-0.13184695111106515,-1.1903965831991283,-9.648379007929563,-0.0659417884572699,-0.015475742518901825,0.0008064284920692444,1.2892331703305244,0.00017081201076507568
1745971600923984600,1.888984619140625,-0.12219877720255713,0.06296356767416,-0.06078338251081502,0.0166170597076416,0.001856790568098913,0.9959579789857884,-0.004375691520535318,right,-0.0006101727485656738,-0.13228430779651515,-1.184935541314259,-9.648482468304037,-0.0661037482256188,-0.0054666753858327866,0.0002239122986793518,1.2934848364256322,-0.0005525350570678711
1745971600963984600,1.928984619140625,-0.12134070174087379,0.03139167279005051,-0.060405627394366876,0.00964715238660574,0.0025546474590065534,0.9959917744775799,-0.002899839130596158,right,-0.00020104646682739258,-0.1319956864041585,-1.1767010891932994,-9.649865447095037,-0.06591625701381737,0.0008185664191842079,0.000761963427066803,1.2906791313551365,0.002440154552459717
1745971601003984600,1.968984619140625,-0.12048311527319046,-0.00018022209405899048,-0.06002784206079152,0.0026772450655698776,0.0032525606000822615,0.9960250104808153,-0.0014241792980909667,right,0.0002073049545288086,-0.13170585092910875,-1.1684699980732052,-9.651241996145249,-0.06572873180809939,0.00710380868986249,0.0013003349304199219,1.2878614435859024,0.005434095859527588
1745971601043984600,2.008984619140625,-0.12049701323921799,-0.00021985458442941308,-0.06002562374875918,-0.00031060329638421535,0.003135980208164855,0.9960143564401506,-0.0016786986059287223,right,-0.0006861090660095215,-0.1320289947626426,-1.1685540230948477,-9.650812372556329,-0.06589727803793992,-0.0221745315939188,0.002035476267337799,1.291002956482023,0.005634337663650513
1745971601083984600,2.048984619140625,-0.12075898656446837,0.004104992840439081,-0.06015202970138335,-0.0034970061387866735,0.003150833790445756,0.9959731655357197,-0.0017273796939676286,right,-0.0010953545570373535,-0.1330399943639389,-1.1709244054879993,-9.64920493735969,-0.06640180077934583,-0.02836492285132408,0.0027614086866378784,1.3008305230133235,0.0008575469255447388
1745971601123984600,2.088984619140625,-0.12035932351001305,0.026059269905090332,-0.05997498048720966,0.004285595379769802,0.0035638940197734123,0.995933465677417,-0.0009625494375380459,right,-0.0015599727630615234,-0.13455398230848384,-1.1668301219116897,-9.647706223234534,-0.06713342495778525,-0.02069808728992939,0.0018284395337104797,1.3155449848033487,0.001167580485343933
1745971601163985000,2.12898486328125,-0.12071350908111786,0.021620512008666992,-0.060182127264220536,-0.011994088999927044,0.004056357610013066,0.9959077495997398,-0.000021414481510516665,right,-0.0019531846046447754,-0.13495032467188275,-1.1701841815799474,-9.646773910820484,-0.0673018394959752,-0.011487905867397785,0.0009111613035202026,1.3193965456649661,0.0031222403049468994
1745971601203984600,2.168984619140625,-0.12106731694857413,0.0171817559748888,-0.06038924800510805,-0.028273776173591614,0.004548767986011552,0.99588161542646,0.0009195258855504676,right,-0.0023466944694519043,-0.13534696430872525,-1.173533930399269,-9.645839260318875,-0.06747022681053028,-0.002277723513543606,-0.000006556510925292969,1.323250736875087,0.0050766319036483765
1745971601243984600,2.208984619140625,-0.12235309281218566,0.0256954338401556,-0.06106419382722052,-0.03364542871713638,0.005125583435587119,0.9958269788408429,0.0019671653295234397,right,0.0014587044715881348,-0.1357342754128412,-1.1858727490991354,-9.643812722927331,-0.06762815868834382,-0.003935256041586399,-0.0012522265315055847,1.327014181061834,0.0013715028762817383
1745971601283984600,2.248984619140625,-0.12329534749113297,0.030811361968517303,-0.061569752249597015,-0.03554821386933327,0.005720209781499144,0.9957770856623753,0.003064811165309247,right,0.00117415189743042,-0.13626387640136758,-1.1948724865041673,-9.641991937240958,-0.06785564667735992,-0.0059426575899124146,-0.001756034791469574,1.332159727256745,0.0027368664741516113
1745971601323984600,2.288984619140625,-0.12423712334576693,0.035927291959524155,-0.062075281024977384,-0.03745100274682045,0.006314808758458165,0.9957266436382,0.004161983821701886,right,0.0008882880210876465,-0.13679453477100229,-1.203864844320342,-9.64016004563868,-0.0680830999360337,-0.00795005913823843,-0.0022606030106544495,1.337315356454253,0.004101216793060303
1745971601363984600,2.328984619140625,-0.12548041042012636,0.024369068443775177,-0.06274580067169859,-0.017802786082029343,0.007154338789129238,0.9956474490877617,0.0056989517946437465,right,0.0030378103256225586,-0.13782219040937121,-1.215676716536656,-9.63728712055087,-0.06854257208873694,-0.017148682847619057,-0.0017270073294639587,1.3472984058082103,0.005743041634559631
1745971601403985000,2.36898486328125,-0.12586651608525912,0.01691220887005329,-0.06295713899299633,-0.013859547674655914,0.0074689002601129855,0.9956129781863954,0.006267481576404536,right,0.002963244915008545,-0.13840770170573902,-1.219298414165154,-9.636032736575602,-0.06881478093779868,-0.01031168270856142,-0.0017666146159172058,1.352985511533916,0.004754781723022461
1745971601443984600,2.408984619140625,-0.12625230026168316,0.00945535022765398,-0.06316845716955227,-0.009916308335959911,0.007783524064521517,0.9955783294039406,0.006835960559944379,right,0.002888202667236328,-0.13899342862011926,-1.2229157278794796,-9.634773676425217,-0.06908696712425864,-0.0034746830351650715,-0.0018066763877868652,1.3586743708252906,0.0037663429975509644
1745971601483984600,2.448984619140625,-0.1266659071297708,-0.00020530918845906854,-0.06338044171711982,-0.0000953881535679102,0.007899201179707866,0.9955521773046111,0.007017179442524647,right,0.0006371140480041504,-0.13934903314156782,-1.2268395502597094,-9.633787003475428,-0.06925663001444918,-0.00451103039085865,0.0007822886109352112,1.3621280184105038,0.0011054277420043945
1745971601523984600,2.488984619140625,-0.1266659071297708,-0.003626609919592738,-0.06338044171711982,0.004556932486593723,0.007899201179707866,0.9955521773046111,0.007017179442524647,right,0.0011275410652160645,-0.13934903314156782,-1.2268395502597094,-9.633787003475428,-0.06925663001444918,-0.008036896586418152,0.0006541460752487183,1.3621280184105038,0.0017677992582321167
1745971601563984600,2.528984619140625,-0.1266659071297708,0.00041139102540910244,-0.06338044171711982,0.005595154128968716,0.007899201179707866,0.9955521773046111,0.007017179442524647,right,0.0005916953086853027,-0.13934903314156782,-1.2268395502597094,-9.633787003475428,-0.06925663001444918,-0.0028926008380949497,0.0005993694067001343,1.3621280184105038,0.0011697560548782349
1745971601603984600,2.568984619140625,-0.1266659071297708,0.004449390806257725,-0.06338044171711982,0.006633375771343708,0.007899201179707866,0.9955521773046111,0.007017179442524647,right,0.000055909156799316406,-0.13934903314156782,-1.2268395502597094,-9.633787003475428,-0.06925663001444918,0.002251694444566965,0.0005445852875709534,1.3621280184105038,0.000571712851524353
1745971601753085700,2.718085693359375,-0.12569897459250526,-0.0014710649847984314,-0.06289541912142765,0.005282442085444927,0.007817211926116981,0.9955786302737901,0.006911859527155092,right,0.0009000949212349951,-0.1394746605410089,-1.2175023245286196,-9.634799395388365,-0.06932629831452765,-0.010356681421399117,0.002078697085380554,1.3633480617247522,0.0036039778497070074
1745971601793085700,2.758085693359375,-0.12546163157869505,-0.0020450002048164606,-0.06277408069764939,0.007343383971601725,0.007781267784167311,0.9955699492556912,0.00682657709306348,right,0.0019598007202148438,-0.13994776720328903,-1.2151346455492078,-9.634446928688883,-0.06956541272815847,-0.0143973333761096,0.003265105187892914,1.3679424037776886,0.0005902349948883057
1745971601833085700,2.798085693359375,-0.12546163157869505,-0.0023713530972599983,-0.06277408069764939,0.0024794465862214565,0.007781267784167311,0.9955699492556912,0.00682657709306348,right,-0.0017008185386657715,-0.13994776720328903,-1.2151346455492078,-9.634446928688883,-0.06956541272815847,-0.004370446316897869,0.0017836689949035645,1.3679424037776886,-0.0009396225214004517
1745971601873085700,2.838085693359375,-0.12555145059919373,0.005299453157931566,-0.06283376678244364,-0.001113653415814042,0.00802374802879232,0.9955416361241777,0.007264907465682963,right,-0.0005731582641601562,-0.14062690052212815,-1.2158834180898963,-9.633413493987918,-0.06988935692591196,-0.01004122942686081,0.0014042705297470093,1.3745369797371327,0.00009933114051818848
1745971601913085700,2.878085693359375,-0.12564095067432798,0.01297026127576828,-0.062893438613865,-0.004706753417849541,0.008266279963993768,0.9955130614924541,0.007703324961652375,right,0.0005540251731872559,-0.1413060533897901,-1.2166283181730657,-9.632376552155613,-0.07021328302207674,-0.015712015330791473,0.0010244622826576233,1.3811311173051595,0.0011383593082427979
1745971601953085700,2.918085693359375,-0.12573018446870723,0.020641067996621132,-0.06295310569416333,-0.008299852721393108,0.008508754125362342,0.9954843667534737,0.00814160933582427,right,0.0016807913780212402,-0.14198525627408243,-1.2173699303206056,-9.631334934148192,-0.07053720308437321,-0.021382799372076988,0.0006443187594413757,1.3877251087427138,0.002177402377128601
1745971601993085700,2.958085693359375,-0.12570827141172375,0.014656906947493553,-0.06296420810130547,0.00047268345952033997,0.008843296027656763,0.9954546605342498,0.008766750786793839,right,0.001848757266998291,-0.14276015498347358,-1.2170236741662024,-9.630292147096991,-0.07090333320695873,-0.021640155464410782,-0.00009413063526153564,1.3952474670715629,0.004376426339149475
1745971602033085700,2.998085693359375,-0.12523818812187917,0.0022834492847323418,-0.06270898281099371,0.005805173423141241,0.0085453061539531,0.9954540949017175,0.008170281112546912,right,0.0002574920654296875,-0.14326105619371965,-1.2124090930428355,-9.630168228456377,-0.07117343871334633,-0.012840871699154377,0.00009664148092269897,1.400109520149976,0.001897186040878296
1745971602073085700,3.038085693359375,-0.12476841342244623,-0.01009000651538372,-0.062453752769558876,0.011137662455439568,0.008247258506416567,0.9954534091619285,0.007573893048504866,right,-0.0013344287872314453,-0.14376226352121585,-1.207797434528917,-9.630039633640646,-0.0714435381858656,-0.004041587933897972,0.00028771162033081055,1.40497405744642,-0.0005822926759719849
1745971602113085700,3.078085693359375,-0.12450234267889665,-0.006335290148854256,-0.06230284699764103,-0.0009840559214353561,0.007988358344202232,0.9954561957075234,0.007059667055011598,right,-0.003200709819793701,-0.14397429163467315,-1.205198138750717,-9.630064768081903,-0.07156618999093493,-0.0035067014396190643,0.00008974224328994751,1.4070318667590618,-0.001461520791053772
1745971602153085700,3.118085693359375,-0.12450234267889665,0.0028580334037542343,-0.06230284699764103,-0.004665970802307129,0.007988358344202232,0.9954561957075234,0.007059667055011598,right,-0.0019719600677490234,-0.14397429163467315,-1.205198138750717,-9.630064768081903,-0.07156618999093493,-0.007686050608754158,0.0005032718181610107,1.4070318667590618,-0.0006555914878845215
1745971602193085700,3.158085693359375,-0.12450234267889665,0.003700507339090109,-0.06230284699764103,-0.006664309650659561,0.007988358344202232,0.9954561957075234,0.007059667055011598,right,-0.0013243556022644043,-0.14397429163467315,-1.205198138750717,-9.630064768081903,-0.07156618999093493,-0.008232107385993004,-0.000287376344203949,1.4070318667590618,0.0024892985820770264
1745971602233085700,3.198085693359375,-0.12450234267889665,0.004542981274425983,-0.06230284699764103,-0.008662648499011993,0.007988358344202232,0.9954561957075234,0.007059667055011598,right,-0.0006767511367797852,-0.14397429163467315,-1.205198138750717,-9.630064768081903,-0.07156618999093493,-0.00877816416323185,-0.0010780245065689087,1.4070318667590618,0.00563417375087738
1745971602273085700,3.238085693359375,-0.12536173618055846,-0.021623391658067703,-0.06271263668354421,-0.01092042401432991,0.007828564736327462,0.9953774119702464,0.0065839608332112715,right,0.0012546181678771973,-0.1454595715467779,-1.2132110570754855,-9.626941083103418,-0.07231692300426129,-0.013964071869850159,-0.0005195140838623047,1.4214452997758984,0.004494085907936096
1745971602313085700,3.278085693359375,-0.1258535771377316,-0.023246487602591515,-0.06291350943903795,-0.009167978540062904,0.007257971704863315,0.9953534205940014,0.0053792184126432285,right,0.00009888410568237305,-0.14581786989710813,-1.2178818253654986,-9.625837505775689,-0.07253123185056098,-0.0019706208258867264,-0.0014428496360778809,1.4249217437148094,-0.001868411898612976
1745971602353085700,3.318085693359375,-0.12615807302929735,-0.009022773243486881,-0.06303752769666368,-0.000047254376113414764,0.006888969397213151,0.9953483824327837,0.004618806959019105,right,-0.00008285045623779297,-0.14576654253030422,-1.220821970470622,-9.62553881509006,-0.07252855427105223,-0.001973628532141447,-0.0021284744143486023,1.4244237310647965,-0.00171622633934021
1745971602393085700,3.358085693359375,-0.12615424528324332,0.007890242151916027,-0.0630353380901952,-0.000060625490732491016,0.006893816230887643,0.9953417324006907,0.004617003649174312,right,0.00005513429641723633,-0.14595423348300648,-1.2207514625176787,-9.625278118327259,-0.07262203053982796,-0.008478879928588867,-0.0014263167977333069,1.426244809012115,-0.0009001940488815308
1745971602433085700,3.398085693359375,-0.12614648698111583,0.006952119525521994,-0.0630503370632258,-0.0013403455959632993,0.007171007615178815,0.9953247639487942,0.005148160666954619,right,0.00003695487976074219,-0.14637325556578196,-1.220601532652974,-9.624693596437574,-0.07281385628467381,-0.007661320269107819,-0.001383848488330841,1.4303101587548852,0.0008722096681594849
1745971602473085700,3.438085693359375,-0.1261385322396421,0.0060139973647892475,-0.06306533603625643,-0.0026200655847787857,0.00744819899946993,0.9953077954968979,0.005679355029121034,right,0.000018715858459472656,-0.1467923071850836,-1.2204494108311832,-9.624107905504108,-0.07300568202951965,-0.006843761075288057,-0.0013415813446044922,1.4343756546281277,0.002644583582878113
1745971602513085700,3.478085693359375,-0.1261385322396421,0.0022150729782879353,-0.06306533603625643,0.0024224212393164635,0.00744819899946993,0.9953077954968979,0.005679355029121034,right,0.0007740259170532227,-0.1467923071850836,-1.2204494108311832,-9.624107905504108,-0.07300568202951965,-0.012572478502988815,-0.0004360899329185486,1.4343756546281277,0.0032561123371124268
1745971602553085700,3.518085693359375,-0.12598835517580945,0.0012984075583517551,-0.06299675703261684,0.006393550429493189,0.007562948672609748,0.9952806992710229,0.005867804844983606,right,-0.00028634071350097656,-0.1476377465652592,-1.21885132798478,-9.623084407675266,-0.07342104968364978,-0.009425478056073189,-0.0013665705919265747,1.4425769351318478,0.0009707659482955933
1745971602593085700,3.558085693359375,-0.12598835517580945,0.0021268408745527267,-0.06299675703261684,0.0012318524532020092,0.007562948672609748,0.9952806992710229,0.005867804844983606,right,-0.00044924020767211914,-0.1476377465652592,-1.21885132798478,-9.623084407675266,-0.07342104968364978,-0.0031937137246131897,-0.0007204115390777588,1.4425769351318478,0.0012428909540176392
1745971602633085700,3.598085693359375,-0.12598835517580945,0.0026634533423930407,-0.06299675703261684,0.004813719540834427,0.007562948672609748,0.9952806992710229,0.005867804844983606,right,0.00037479400634765625,-0.1476377465652592,-1.21885132798478,-9.623084407675266,-0.07342104968364978,-0.003681889735162258,-0.0007701367139816284,1.4425769351318478,0.0013481080532073975
1745971602673085700,3.638085693359375,-0.12581275665759897,-0.0007943888194859028,-0.06291275962667124,0.0008871229365468025,0.00763858129954192,0.9952543755738296,0.005979439706238852,right,0.0000680685043334961,-0.14848691662773777,-1.2170073075532912,-9.622079614546895,-0.07384079088371684,-0.009993233717978,-0.00029781460762023926,1.450813286948949,0.002267107367515564
1745971602713085700,3.678085693359375,-0.12577219120886443,-0.012821327894926071,-0.06288323763342653,0.0022079963237047195,0.007543557845165133,0.9952288265657483,0.005744807708449893,right,0.0012229084968566895,-0.14923088195650397,-1.2164812378525733,-9.621055532196163,-0.07421854956751717,-0.019069168716669083,-0.0003233477473258972,1.4580284790247677,0.002150416374206543
1745971602753085700,3.718085693359375,-0.1255838102333297,-0.018151627853512764,-0.06275828039965316,0.009004218503832817,0.007159257659378724,0.9952044070697504,0.004930679661122796,right,0.001298367977142334,-0.1501225388928909,-1.2145054808001965,-9.619991117835044,-0.07468852017193857,-0.026289667934179306,0.0010187327861785889,1.466674872947484,0.0025701671838760376
1745971602793085700,3.758085693359375,-0.12539615184315223,-0.023481929674744606,-0.06263330416138381,0.015800442546606064,0.006774904259351206,0.9951795694781497,0.004116507927272667,right,0.0013728737831115723,-0.15101434480215029,-1.212536153488606,-9.61891735112369,-0.07515846664089888,-0.03351016715168953,0.0023614615201950073,1.4753215591311455,0.0029898732900619507
1745971602833085700,3.798085693359375,-0.12486183344468071,-0.03200669586658478,-0.06232023679215395,0.023610692471265793,0.0061906432568661135,0.9951566804334199,0.002911022470906982,right,0.00002384185791015625,-0.15216300890544773,-1.2071845633275806,-9.617875733116268,-0.07576942411664371,-0.03436889871954918,0.0041897594928741455,1.4864568472601472,0.0023123174905776978
1745971602873085700,3.838085693359375,-0.1242946884592109,-0.03629317879676819,-0.06197619422047411,0.01600685343146324,0.005417486569713455,0.9951391393800336,0.001335450197412696,right,-0.003025531768798828,-0.15320758479336,-1.2015364744380115,-9.617012978807091,-0.07633978452995954,-0.026344552636146545,0.005628734827041626,1.496581497041881,0.0005556195974349976
1745971602913085700,3.878085693359375,-0.12428420367898595,-0.023960605263710022,-0.06191775385441869,-0.008284274488687515,0.004769323808355892,0.9951145691358676,-0.000012399764182063573,right,-0.005799233913421631,-0.15394685502507016,-1.2012981356374919,-9.615925183570385,-0.07674939529299779,-0.017228251323103905,0.005700230598449707,1.5037459818437695,-0.0012000948190689087
1745971602953085700,3.918085693359375,-0.12507077306140915,-0.0025550462305545807,-0.062284552002860566,-0.02204166352748871,0.004518648507631082,0.9950691483921474,-0.0006134164656579471,right,-0.00503772497177124,-0.15452999076723772,-1.2087518126443029,-9.61410556692779,-0.07705636536246144,-0.016790561378002167,0.006445840001106262,1.509396701081842,-0.0012637972831726074
1745971602993085700,3.958085693359375,-0.12628363628764452,0.005583824589848518,-0.06289101230250722,-0.08218102157115936,0.0046329951890847106,0.9950138496729519,-0.0005054465151587247,right,-0.018898963928222656,-0.15497176407379737,-1.220327391886711,-9.611969723942876,-0.07727000701779647,-0.015712004154920578,-0.010818801820278168,1.513677154880017,0.007410675287246704
1745971603033085700,3.998085693359375,-0.1290859841765987,-0.014518119394779205,-0.06422759761130534,-0.029931459575891495,0.004047239331879584,0.9949024382578903,-0.001943301462459802,right,-0.000797569751739502,-0.15563226005870098,-1.2471296202249824,-9.607519174274803,-0.07763819534559169,-0.010955942794680595,-0.005443587899208069,1.5200765005283057,0.0015937387943267822
1745971603073085700,4.038085693359375,-0.13188957559201295,-0.03462006896734238,-0.0655640392461566,0.022318098694086075,0.003461483463272856,0.9947886900670463,-0.0033831555665892717,right,0.017296195030212402,-0.15628875640532466,-1.273928779823333,-9.602993221282958,-0.0780062041303262,-0.006199881434440613,-0.00006866455078125,1.5264363909490406,-0.004219189286231995
1745971603113085700,4.078085693359375,-0.13110771051401812,-0.025304950773715973,-0.06512070672167013,0.061217695474624634,0.0027722729733408993,0.9947991275970275,-0.004736386529251541,right,0.007375657558441162,-0.1567282351182263,-1.266332333344966,-9.603320553541183,-0.07827023317791852,-0.0009081843309104443,-0.0016456395387649536,1.5306934638716279,-0.0022714585065841675
1745971603153085700,4.118085693359375,-0.12918396376982338,-0.004189256578683853,-0.06413624113346979,0.059312280267477036,0.0023561081934410483,0.9948578318586107,-0.005429087404527684,right,-0.001587212085723877,-0.15684269479336518,-1.2478330923192202,-9.60556511759758,-0.07835200720391126,-0.0033586628269404173,0.00037026405334472656,1.531802155765891,-0.002723708748817444
1745971603193085700,4.158085693359375,-0.12776204549160067,0.01427987776696682,-0.0634377113103688,0.02614525333046913,0.002407883867523579,0.9949047754490472,-0.005209789346495828,right,-0.006162822246551514,-0.15679225403265454,-1.2341833371512592,-9.607406361550092,-0.07832162464592773,0.006883280351758003,0.001613914966583252,1.5313136415965853,-0.0027696341276168823
1745971603233085700,4.198085693359375,-0.1272154929504074,0.027840550988912582,-0.06320597874373678,-0.0010543577373027802,0.002869367589025948,0.9949347514513719,-0.004216305362991458,right,-0.006917774677276611,-0.15643556791247126,-1.2290014044687152,-9.608620413514972,-0.07811345154885255,0.014176283031702042,0.002203643321990967,1.527858532706648,-0.0006107687950134277
1745971603273085700,4.238085693359375,-0.12738127724015552,0.029903169721364975,-0.0633414660854932,-0.014240837655961514,0.003517071134442831,0.9949456993647209,-0.0028972153500051133,right,-0.004124641418457031,-0.1559645111698669,-1.230685704293847,-9.609129532080889,-0.07783712352705262,0.01355008501559496,0.001124948263168335,1.5232953164443372,0.0002590268850326538
1745971603313085700,4.278085693359375,-0.12795781096100117,0.026652291417121887,-0.06368291300146595,-0.021929597482085228,0.004191157277229735,0.9949512924746478,-0.0015433701086556774,right,-0.0004655122756958008,-0.15527989575836976,-1.2363581969723105,-9.609450434598326,-0.07745244638316137,0.024495849385857582,0.0005142539739608765,1.5166626004315913,0.0005545467138290405
1745971603353085700,4.318085693359375,-0.12840268936654053,0.020553655922412872,-0.06395447404733366,-0.01526075229048729,0.004793648752798003,0.9949702041963819,-0.0003070381037551771,right,-0.00018447637557983398,-0.1543491698251861,-1.2408132766850293,-9.610295068728924,-0.07694898184275926,0.02982393652200699,-0.0008290261030197144,1.5076444505870341,0.0033361315727233887
1745971603393085700,4.358085693359375,-0.12873648612874092,0.005481265485286713,-0.06415198244947656,-0.012362336739897728,0.0051458969777942246,0.9949988306530623,0.00044449926420899453,right,0.0003343820571899414,-0.15327396756092948,-1.2442284919559954,-9.611482817208767,-0.07638918084808631,0.027308277785778046,-0.0011834055185317993,1.4972249095119534,0.0040986984968185425
1745971603433085700,4.398085693359375,-0.12914015260629205,-0.011617450043559074,-0.06435064953464333,-0.006242666859179735,0.005076005172428212,0.9950208547713068,0.0003317062917858696,right,0.0013529062271118164,-0.15236625445662727,-1.2482827357828616,-9.612323359686135,-0.07594017085757941,0.020286990329623222,-0.00042253732681274414,1.4884269782893358,0.002110689878463745
1745971603473085700,4.438085693359375,-0.12925475223490426,-0.021974660456180573,-0.06438344039450751,0.004243107046931982,0.004718103084040087,0.995044611976154,-0.00035215633280151053,right,0.002169191837310791,-0.15168225988800735,-1.2495152001872658,-9.613187283039093,-0.07562161179931501,0.015427222475409508,0.0005991756916046143,1.4817966003641485,-0.0006258338689804077
1745971603513085700,4.478085693359375,-0.12904586302802404,-0.019475525245070457,-0.06424879734801153,0.011573269963264465,0.0042637744387348355,0.9950768608062454,-0.0012092064391983843,right,0.0012798309326171875,-0.15105982032660573,-1.2476255870483814,-9.614361002993583,-0.07533995070346461,0.012325350195169449,0.0009559839963912964,1.4757624347664415,-0.002185136079788208
1745971603553085700,4.518085693359375,-0.1287037933044627,-0.01184544712305069,-0.06405683804901748,0.009088815189898014,0.003930194902588876,0.9951067844344079,-0.0018232196675541806,right,0.00010758638381958008,-0.15058636590213423,-1.2444263526156545,-9.615479193368554,-0.07512479013166462,0.007792249787598848,0.0007142871618270874,1.4711720382362603,-0.0020740479230880737
1745971603593085700,4.558085693359375,-0.1283505439708169,-0.008322193287312984,-0.06386943757490336,0.009639112278819084,0.0037379560683467494,0.9951319319553806,-0.002160379697467229,right,-0.0008674263954162598,-0.15023617080724563,-1.2410954546272754,-9.616428456917404,-0.07496200256121718,0.008012276142835617,0.0014923065900802612,1.467776550579071,-0.003041386604309082
1745971603633085700,4.598085693359375,-0.128667845330663,-0.011855100281536579,-0.06401009203208019,-0.0026437966153025627,0.0034836565473406263,0.9951418230662725,-0.0026621656850042523,right,-0.0011106133460998535,-0.14972146253528854,-1.2442433972641824,-9.616782092660666,-0.07472137894895965,0.00677472585812211,0.0010339915752410889,1.4627857565544544,-0.0013228058815002441
1745971603673085700,4.638085693359375,-0.12898490768680537,-0.015388007275760174,-0.06415075124037586,-0.014926706440746784,0.0032293570263343652,0.995151714177164,-0.0031637498477853714,right,-0.0013539791107177734,-0.14920665209131861,-1.2473891479440034,-9.617132805794476,-0.07448076137056242,0.005537175573408604,0.0005754530429840088,1.4577935012251138,0.0003958791494369507
1745971603713085700,4.678085693359375,-0.1297451338552225,-0.015237757004797459,-0.06450589676183817,-0.017356015741825104,0.002929454532460535,0.9951374562762527,-0.0038071372125049623,right,0.0014063715934753418,-0.1489569832309308,-1.254747109491378,-9.616542438685894,-0.07437606304685784,-0.00053005525842309,0.001485481858253479,1.4553721192970872,-0.0007347762584686279
1745971603753085700,4.718085693359375,-0.13042814625756044,-0.013095295988023281,-0.06482438252540015,-0.01668858341872692,0.002662973835635365,0.9951190719847256,-0.004388676527567662,right,0.000060498714447021484,-0.14887929093190555,-1.2613297027520836,-9.615794835188984,-0.0743552540811263,-0.0006528192898258567,0.0009488612413406372,1.4546186705812811,0.0002619922161102295
1745971603793085700,4.758085693359375,-0.13123956137198187,-0.023399848490953445,-0.06520193445870426,-0.016873594373464584,0.0023508005282665244,0.9950901883819521,-0.0050829334658172185,right,-0.00006705522537231445,-0.14897343365299842,-1.2691137807570396,-9.614632805672287,-0.07442363669240204,-0.009969539940357208,0.0004030466079711914,1.4555316937729716,0.0018620491027832031
1745971603833085700,4.798085693359375,-0.1321240739781958,-0.040415599942207336,-0.0655920683338811,-0.005980337969958782,0.0017101696110860092,0.9950650418805453,-0.006432231780975422,right,0.0023401379585266113,-0.14890597587969634,-1.2776304108202456,-9.61360346262455,-0.07443330359909264,-0.004494509659707546,0.001088455319404602,1.45487746764794,0.0010479539632797241
1745971603873085700,4.838085693359375,-0.13252659469530073,-0.04859079420566559,-0.06572494848209393,-0.002938944147899747,0.0008108985917496279,0.995058411461791,-0.008260013431972217,right,0.000710606575012207,-0.1487587817071452,-1.2815282950416207,-9.613300680285692,-0.07441982434556596,0.001657184213399887,-0.0013890862464904785,1.453450065193325,0.002000778913497925
1745971603913085700,4.878085693359375,-0.1329241932365455,-0.03827773779630661,-0.06586069219792902,-0.0017156167887151241,-0.00001009121927016269,0.9950479356976597,-0.00993577055199431,right,0.0005005002021789551,-0.14869700219300652,-1.2853623202465474,-9.612879240003227,-0.07444413648234767,-0.0019327616319060326,-0.0008814185857772827,1.452850784125924,0.00014619529247283936
1745971603953085700,4.918085693359375,-0.13332170948345387,-0.027964677661657333,-0.06599639676452618,-0.0004922891966998577,-0.0008311190420909578,0.9950368274687006,-0.011611565308169954,right,0.00029021501541137695,-0.1486345770489523,-1.289195614799112,-9.612457799720763,-0.07446840182106247,-0.005522707477211952,-0.00037385523319244385,1.4522453655786811,-0.001707702875137329
1745971603993085700,4.958085693359375,-0.13347888931687837,-0.011892128735780716,-0.06603769447676514,0.0005555737297981977,-0.0013131075947527993,0.9950293451405553,-0.012595312496588589,right,-0.0006170272827148438,-0.14868201435922518,-1.290697251533717,-9.612186581563948,-0.0745245589465937,-0.0025766142643988132,-0.0002988874912261963,1.452705530436337,-0.002484545111656189
1745971604033085700,4.998085693359375,-0.13360619392887388,-0.00038686860352754593,-0.0660874070889763,0.0008482256671413779,-0.0014903255289056535,0.995024964357686,-0.012960981252090187,right,-0.0005614757537841797,-0.14868092621043516,-1.2919210942402481,-9.612024084478616,-0.07453618232925233,-0.0017556468956172466,-0.0008666664361953735,1.4526948629118501,-0.0007908493280410767
1745971604073085700,5.038085693359375,-0.13360619392887388,0.00674744276329875,-0.0660874070889763,-0.008734909817576408,-0.0014903255289056535,0.995024964357686,-0.012960981252090187,right,-0.002328813076019287,-0.14868092621043516,-1.2919210942402481,-9.612024084478616,-0.07453618232925233,-0.004068298265337944,-0.00016038119792938232,1.4526948629118501,-0.00045415759086608887
1745971604113085700,5.078085693359375,-0.13407941704424745,0.008555218577384949,-0.06633582950807239,-0.008219849318265915,-0.0012566313712662383,0.9949950503373863,-0.012553263497302753,right,-0.00215834379196167,-0.14907386613114396,-1.2963932712182402,-9.610845103827119,-0.07471848902702448,-0.005324461497366428,0.0001439303159713745,1.4565056533716618,-0.0014318525791168213
1745971604153085700,5.118085693359375,-0.134581524015065,0.014738615602254868,-0.06660727109404282,-0.016594279557466507,-0.0009417946250441533,0.9949760945991859,-0.011963022267686266,right,-0.001262664794921875,-0.14914617872691932,-1.301204617022723,-9.610088147979974,-0.07473511467848191,0.005569152534008026,0.00012572109699249268,1.4572069335088134,-0.000980973243713379
1745971604193085700,5.158085693359375,-0.1353229941139292,0.017881281673908234,-0.06700694971891612,-0.01954495720565319,-0.0005437977920133256,0.9949655885549711,-0.011192671216319337,right,0.0018930435180664062,-0.14876461266225816,-1.3084047576598823,-9.609671383872628,-0.0745198535749416,0.01619795337319374,0.0015174001455307007,1.4535066176861524,-0.001667305827140808
1745971604233085700,5.198085693359375,-0.13546754547130932,0.019043361768126488,-0.06712023162837669,-0.014165828935801983,-0.00003433041330969648,0.9949786656321802,-0.010146694785828431,right,0.0001461505889892578,-0.14828515942033763,-1.3098878358244894,-9.61017115008831,-0.07424628408902723,0.007354550063610077,0.00045350193977355957,1.4488564537927509,-0.00009605288505554199
1745971604273085700,5.238085693359375,-0.13561251662746854,0.020205441862344742,-0.06723347096783673,-0.008786700665950775,0.0004751932155619043,0.9949911832208344,-0.009100604733749936,right,-0.0016009211540222168,-0.14780579810186079,-1.3113747133813798,-9.610668578216433,-0.07397267222358386,-0.0014888523146510124,-0.0006099790334701538,1.4442070205517112,0.0014751404523849487
1745971604313085700,5.278085693359375,-0.13576424584540683,0.01779305562376976,-0.06733976719565303,-0.0020675770938396454,0.0009056251461514361,0.9949818172860762,-0.008254064832154144,right,-0.0014572739601135254,-0.14791389024711757,-1.3128117604471743,-9.610314357951284,-0.07399791236533503,-0.004436332732439041,-0.00009934604167938232,1.4452553605608642,-0.0002640634775161743
1745971604353085700,5.318085693359375,-0.13598190726358594,0.012034133076667786,-0.06746987237883512,-0.008060801774263382,0.001227072375872138,0.9949663963310657,-0.007638675258745467,right,-0.0009831786155700684,-0.14812691276511109,-1.3148618248447774,-9.60972340632081,-0.07408302261976542,-0.004804167430847883,-0.00023595988750457764,1.4473216454409061,0.00027638673782348633
1745971604393085700,5.358085693359375,-0.13621123986014302,0.012934362515807152,-0.06760046839458658,-0.008256441913545132,0.0014812396068313017,0.9949487894419904,-0.007162666007713727,right,-0.00019407272338867188,-0.14838724433648864,-1.3170143267035483,-9.609047699016331,-0.07419629495029106,-0.0038520372472703457,-0.0006753355264663696,1.4498466338738798,-0.0018674135208129883
1745971604433085700,5.398085693359375,-0.13647560928684918,0.0204788688570261,-0.06775922071570432,-0.010485190898180008,0.00186108345067067,0.9949371949211949,-0.006422509267123578,right,0.0004355311393737793,-0.14844088565171598,-1.319544137442112,-9.60862216708064,-0.07419771515155656,0.0061197965405881405,-0.0003564208745956421,1.4503668583557008,-0.002093181014060974
1745971604473085700,5.438085693359375,-0.13676716554804108,0.017873596400022507,-0.06793748324131138,-0.012323259375989437,0.002314542586353898,0.9949274898352897,-0.005530446422636303,right,0.0010051131248474121,-0.1484079044288272,-1.3223520344696937,-9.6082843134284,-0.07415074907477029,0.0017088688910007477,-0.00027757883071899414,1.45004697875157,0.000033661723136901855
1745971604513085700,5.478085693359375,-0.13709515887037924,0.012618114240467548,-0.06812559573375644,-0.008355548605322838,0.0026710505774754116,0.99491147273148,-0.0048459208491736004,right,0.00019884109497070312,-0.1485196470362006,-1.325481272406131,-9.60768985466659,-0.07418263297380474,-0.007403791882097721,0.0007464885711669922,1.451130682335049,0.0011911243200302124
1745971604553085700,5.518085693359375,-0.13735441190689618,0.0028521250933408737,-0.06826449076822753,-0.01084297988563776,0.0028479323711146803,0.9948871751618112,-0.004537764190224944,right,-0.0016954541206359863,-0.1489270229115071,-1.3278909638963639,-9.60675929581821,-0.07437440964702977,-0.009623054414987564,0.00112934410572052,1.4550816119179129,-0.001045331358909607
1745971604593085700,5.558085693359375,-0.13735441190689618,0.004442725330591202,-0.06826449076822753,-0.010453126393258572,0.0028479323711146803,0.9948871751618112,-0.004537764190224944,right,0.0003503561019897461,-0.1489270229115071,-1.3278909638963639,-9.60675929581821,-0.07437440964702977,-0.001042693853378296,-0.00004410743713378906,1.4550816119179129,-0.0011750906705856323
1745971604633085700,5.598085693359375,-0.13800665243969926,0.007974999025464058,-0.068604188481273,-0.012368929572403431,0.003051341295539922,0.9948753488856096,-0.004156810636611899,right,0.00013381242752075195,-0.1486267781860475,-1.3342166597865521,-9.606323827010392,-0.07421106602210217,0.017574066296219826,0.00025200843811035156,1.4521698161244392,-0.0012581199407577515
1745971604673085700,5.638085693359375,-0.13830934705516895,0.01236867904663086,-0.06878001337046238,-0.007583328988403082,0.0033608676030835723,0.9948824337210163,-0.0035224130474229686,right,-0.0007853507995605469,-0.14812635009918043,-1.3372243171699345,-9.606637715265155,-0.07393986183465065,0.014416661113500595,-0.0008402317762374878,1.4473160924829542,0.0018971264362335205
1745971604713085700,5.678085693359375,-0.13859525658584265,0.015084508806467056,-0.06895132177714518,-0.010120315477252007,0.003714990319724733,0.9948937418697742,-0.0027892945125514777,right,0.0004477500915527344,-0.14751535029983684,-1.3400928583435714,-9.60712929817438,-0.0736101810738044,0.013552377000451088,-0.0004375278949737549,1.441389625043422,0.0033817142248153687
1745971604753085700,5.718085693359375,-0.13883104188429907,0.006942993029952049,-0.0690916805156329,-0.005149955861270428,0.003995994898978297,0.9949033947153662,-0.0022059116301002824,right,-0.000017583370208740234,-0.14699918443911178,-1.342460902649164,-9.607548400369286,-0.07333283071621388,0.014826813712716103,0.00015246868133544922,1.4363826105363666,0.0040976256132125854
1745971604793085700,5.758085693359375,-0.13898660594937745,-0.0022687576711177826,-0.06918030463357275,-0.003973972052335739,0.00410695916557779,0.9949203293448867,-0.0019508388623327353,right,-0.00010061264038085938,-0.14637529353629175,-1.344079297631234,-9.608225276717542,-0.07301333988846874,0.01580973155796528,0.00008316338062286377,1.4303300324991344,0.003372788429260254
1745971604833085700,5.798085693359375,-0.1390801211063659,0.000604735454544425,-0.06922934723530505,-0.006669387221336365,0.004107979404826221,0.9949346875192133,-0.001921812786286329,right,-0.0010457634925842285,-0.1458899735366637,-1.3450738616265356,-9.608785833209753,-0.07277071690896955,0.015499456785619259,-0.00045874714851379395,1.4256214164167642,0.0019133985042572021
1745971604873085700,5.838085693359375,-0.1390801211063659,0.003478228347375989,-0.06922934723530505,-0.00936480239033699,0.004107979404826221,0.9949346875192133,-0.001921812786286329,right,-0.0020480751991271973,-0.1458899735366637,-1.3450738616265356,-9.608785833209753,-0.07277071690896955,0.01518918201327324,-0.0011020749807357788,1.4256214164167642,-0.00002613663673400879
1745971604913085700,5.878085693359375,-0.13928405790628076,0.007052150554955006,-0.06934154260147243,-0.0004411637783050537,0.004213990371324162,0.9949504256576591,-0.0016786908193162512,right,-0.0007770657539367676,-0.14524634764011765,-1.3471606047727167,-9.609417701372504,-0.07244168898537977,0.006994951516389847,-0.00041826069355010986,1.4193762384168802,-0.000009924173355102539
1745971604953085700,5.918085693359375,-0.13928405790628076,0.006977432873100042,-0.06934154260147243,-0.00002432827022857964,0.004213990371324162,0.9949504256576591,-0.0016786908193162512,right,-0.0012106895446777344,-0.14524634764011765,-1.3471606047727167,-9.609417701372504,-0.07244168898537977,0.008517527021467686,-0.0004928857088088989,1.4193762384168802,0.0003531128168106079
1745971604993085700,5.958085693359375,-0.13929166022318554,0.0027081496082246304,-0.06936706483014611,-0.000892441370524466,0.0044627757891688505,0.9949736538627619,-0.0011313661899166338,right,0.00038933753967285156,-0.1445617928602861,-1.347368256174028,-9.610367549443245,-0.07208214379682043,0.008715745992958546,0.00021560490131378174,1.4127334394015372,-0.0006390661001205444
1745971605033085700,5.998085693359375,-0.13929166022318554,0.003836247604340315,-0.06936706483014611,0.0009730434976518154,0.0044627757891688505,0.9949736538627619,-0.0011313661899166338,right,0.0013602972030639648,-0.1445617928602861,-1.347368256174028,-9.610367549443245,-0.07208214379682043,0.007226625923067331,0.0006808489561080933,1.4127334394015372,-0.0018036216497421265
1745971605073085700,6.038085693359375,-0.1392511999093468,0.0037994375452399254,-0.06936245722124641,0.00005749514093622565,0.004638265175226234,0.9949928276539998,-0.0007394592957736458,right,0.0006082653999328613,-0.14404256591640505,-1.347080963665247,-9.611147301644086,-0.07181033372157554,0.004525729455053806,-0.00004126131534576416,1.4076945684514939,-0.00168628990650177
1745971605113085700,6.078085693359375,-0.13924914999474125,0.00285921199247241,-0.06936970695916457,-0.002457508584484458,0.004735952180403877,0.9950009154364157,-0.0005264365233554775,right,-0.00035256147384643555,-0.14380578823115087,-1.3471075594112276,-9.611479894599318,-0.07168515220285358,0.003706153482198715,-0.0004138052463531494,1.405396520642191,-0.001446351408958435
1745971605153085700,6.118085693359375,-0.13924914999474125,0.0019189862068742514,-0.06936970695916457,-0.004972511902451515,0.004735952180403877,0.9950009154364157,-0.0005264365233554775,right,-0.0013473033905029297,-0.14380578823115087,-1.3471075594112276,-9.611479894599318,-0.07168515220285358,0.002886577509343624,-0.0007890611886978149,1.405396520642191,-0.0014407485723495483
1745971605193085700,6.158085693359375,-0.13924914999474125,-0.0001685325987637043,-0.06936970695916457,-0.011914528906345367,0.004735952180403877,0.9950009154364157,-0.0005264365233554775,right,-0.0014911890029907227,-0.14380578823115087,-1.3471075594112276,-9.611479894599318,-0.07168515220285358,-0.012676533311605453,-0.00020840764045715332,1.405396520642191,0.0014760345220565796
1745971605233085700,6.198085693359375,-0.13988021281842072,-0.0019146285485476255,-0.06968253429372194,-0.0043995869345963,0.004783345798568751,0.9949586844536484,-0.0005161791855716431,right,-0.00022804737091064453,-0.14437009488540917,-1.3530619377709925,-9.609840895220637,-0.07196403085730815,-0.015520352870225906,0.0006973296403884888,1.4108731984876095,0.0003537386655807495
1745971605273085700,6.238085693359375,-0.13988021281842072,-0.000055438256822526455,-0.06968253429372194,-0.0020368683617562056,0.004783345798568751,0.9949586844536484,-0.0005161791855716431,right,-0.001281142234802246,-0.14437009488540917,-1.3530619377709925,-9.609840895220637,-0.07196403085730815,-0.004236225970089436,0.0008267313241958618,1.4108731984876095,-0.00238192081451416
1745971605313085700,6.278085693359375,-0.13988021281842072,0.009461370296776295,-0.06968253429372194,-0.0036475080996751785,0.004783345798568751,0.9949586844536484,-0.0005161791855716431,right,-0.0009372234344482422,-0.14437009488540917,-1.3530619377709925,-9.609840895220637,-0.07196403085730815,0.006238296627998352,0.0009445995092391968,1.4108731984876095,-0.0017657727003097534
1745971605353085700,6.318085693359375,-0.14016845647859455,0.02321512997150421,-0.06985595447764505,-0.006136043928563595,0.005205614979468907,0.9949482755991121,0.00031517523116120737,right,-0.0015372633934020996,-0.1443219959364919,-1.3558413393564521,-9.60951765461564,-0.07191038199137602,0.007266361732035875,-0.00000908970832824707,1.4104063116282224,-0.0021469295024871826
1745971605393085700,6.358085693359375,-0.14037118416574715,0.02614360861480236,-0.06999800148244037,-0.012079888954758644,0.005775586048114033,0.994942010497395,0.0014542066580802062,right,-0.0009004473686218262,-0.14420886422631762,-1.3578117626465855,-9.609400750237702,-0.07181372913393544,0.0063269734382629395,-0.0007821619510650635,1.4093084333889185,-0.0005972981452941895
1745971605433085700,6.398085693359375,-0.1404985666731275,0.01798108033835888,-0.07008648940046236,-0.0014461018145084381,0.006127385568263531,0.9949360672544265,0.0021532197002252064,right,-0.00028586387634277344,-0.14419427763516263,-1.3590386740930378,-9.609248190024495,-0.07178160822115724,-0.0001992364414036274,-0.0010308623313903809,1.409166832961142,0.0014211386442184448
1745971605473085700,6.438085693359375,-0.14062595585571214,0.009818552061915398,-0.07017496078461503,0.009187686257064342,0.006479080183595502,0.9949299674160657,0.0028520254559985607,right,0.0003287196159362793,-0.1441797493966364,-1.3602655855394898,-9.609095045289397,-0.07174947215247258,-0.0067254467867314816,-0.0012795627117156982,1.409025817055255,0.0034395307302474976
1745971605513085700,6.478085693359375,-0.14062595585571214,-0.003078293986618519,-0.07017496078461503,0.004308588337153196,0.006479080183595502,0.9949299674160657,0.0028520254559985607,right,-0.000929415225982666,-0.1441797493966364,-1.3602655855394898,-9.609095045289397,-0.07174947215247258,-0.005242047365754843,0.0004095137119293213,1.409025817055255,0.0026100575923919678
1745971605553085700,6.518085693359375,-0.14062595585571214,-0.005639326758682728,-0.07017496078461503,0.002582893706858158,0.006479080183595502,0.9949299674160657,0.0028520254559985607,right,-0.0005156993865966797,-0.1441797493966364,-1.3602655855394898,-9.609095045289397,-0.07174947215247258,-0.0017074146308004856,0.0016951262950897217,1.409025817055255,0.0007855594158172607
1745971605593085700,6.558085693359375,-0.14062595585571214,-0.0006135730072855949,-0.07017496078461503,-0.000999941723421216,0.006479080183595502,0.9949299674160657,0.0028520254559985607,right,-0.001452624797821045,-0.1441797493966364,-1.3602655855394898,-9.609095045289397,-0.07174947215247258,-0.0036918448749929667,0.0009460598230361938,1.409025817055255,-0.0006889998912811279
1745971605633085700,6.598085693359375,-0.14097663983970488,-0.025663327425718307,-0.07032909558455579,-0.009624655358493328,0.0062307980209942845,0.994907354946948,0.0023040687122186224,right,0.005127131938934326,-0.14451392058499063,-1.3635690109990537,-9.608150457915663,-0.0719338442503561,0.03444536030292511,0.003785938024520874,1.4122688906297087,-0.017577320337295532
1745971605673085700,6.638085693359375,-0.1399726929818478,-0.05155985802412033,-0.06984205382220988,0.0627654641866684,0.005784418098892867,0.9952741110358084,0.0021445315559675093,right,0.010544955730438232,-0.13501656405985912,-1.355732472154498,-9.622363107663393,-0.06721702673357718,0.4798738956451416,0.004935622215270996,1.3200402503959834,-0.01264343410730362
1745971605713085700,6.678085693359375,-0.13760011427377353,-0.07661165297031403,-0.0686895541641907,0.060018692165613174,0.004644558237128426,0.9961228152833235,0.0017395612172449925,right,0.00213468074798584,-0.1099719167983323,-1.337015204463899,-9.655278119793534,-0.05476850865227455,0.4275900423526764,0.0007518231868743896,1.0762827858284114,0.013813428580760956
1745971605753085700,6.718085693359375,-0.13522314747512224,-0.10166345536708832,-0.06752617184745498,0.05727192014455795,0.0035039161465158486,0.9968138228974738,0.0012758610406581855,right,-0.006896376609802246,-0.08492827275149267,-1.3172823299899696,-9.68210533644259,-0.042311312438166326,0.3753061890602112,-0.0035354942083358765,0.8318601353503763,0.04033812880516052
1745971605793085700,6.758085693359375,-0.13464335166960648,-0.08167076110839844,-0.06721631996895898,0.011066854000091553,0.0021575715398647805,0.9970790363017983,-0.0005662424316380437,right,-0.0015433430671691895,-0.07255451905489135,-1.3129498537436126,-9.692325701683759,-0.03620617259490322,0.1291075199842453,-0.0006359070539474487,0.7108918689750134,0.003243766725063324
1745971605833085700,6.798085693359375,-0.13499880352871613,-0.02943950518965721,-0.06735145734793237,-0.004999730736017227,0.0010136490325731737,0.9970673032614572,-0.0028792705983976563,right,0.004023849964141846,-0.07263650175907362,-1.3163869885854422,-9.69180080102682,-0.036324581324758756,-0.11391448974609375,0.003310099244117737,0.7116937599424272,-0.038985807448625565
1745971605873085700,6.838085693359375,-0.13542263551527195,0.045679960399866104,-0.06753213461298521,-0.0023281637113541365,0.0009400798512037477,0.9968995390603246,-0.003590272627128439,right,0.009256958961486816,-0.08070960148523341,-1.3196758009977638,-9.685233113074302,-0.040372691233738656,-0.2738763391971588,0.004236966371536255,0.7906309569265693,-0.045165207237005234
1745971605913085700,6.878085693359375,-0.13553873260492988,0.05693488568067551,-0.06758209793603975,-0.0061730146408081055,0.0016744265725397477,0.9966679055900292,-0.0028430808012690663,right,0.01029139757156372,-0.09132950218266028,-1.3195913375847041,-9.676214524838327,-0.04564021158664676,-0.284805029630661,0.003692254424095154,0.8943910450000315,-0.027210399508476257
1745971605953085700,6.918085693359375,-0.13535908157068638,0.018897585570812225,-0.06748419256608729,-0.003666455624625087,0.002141110145816986,0.9964850401893464,-0.0024375993157057744,right,0.002125680446624756,-0.09927865211254774,-1.3168518296182155,-9.669101477962732,-0.049587630731063086,-0.18502402305603027,-0.0008911639451980591,0.971991659618169,0.0020583271980285645
1745971605993085700,6.958085693359375,-0.1354582929537175,-0.02228090912103653,-0.06750371695915051,0.0008174811955541372,0.0018887255675658617,0.9963791232105742,-0.0032274400215612058,right,-0.005250215530395508,-0.10337744003841275,-1.317262017854303,-9.664942020195722,-0.05165624879595359,-0.0881037563085556,-0.0025992989540100098,1.0119807748530059,0.020521245896816254
1745971606033085700,6.998085693359375,-0.13529902051793058,-0.020423943176865578,-0.06739549571742959,-0.0017526617739349604,0.0012257367111290496,0.9964149869364136,-0.004471783796877634,right,-0.005124151706695557,-0.10222541200724518,-1.3158790390633046,-9.666300449067354,-0.051124403433645944,0.00960078090429306,-0.0012534409761428833,1.000742903132364,0.011749930679798126
1745971606073085700,7.038085693359375,-0.13513831702111237,-0.018566977232694626,-0.06728722691708325,-0.004322804976254702,0.0005627250453300351,0.9964500038281986,-0.005716210428391276,right,-0.004999220371246338,-0.10107357063832376,-1.3144801320508122,-9.667647187501192,-0.05059252213548268,0.10730531811714172,0.00009074807167053223,0.9895055428683757,0.0029785707592964172
1745971606113085700,7.078085693359375,-0.1355465921979248,0.00270143523812294,-0.06752482136857682,-0.01104301679879427,0.0008543649742030015,0.9965422146633234,-0.004857547362589005,right,-0.004015684127807617,-0.09674969286378882,-1.318992787169665,-9.671258948257565,-0.04840911039874289,0.09823666512966156,0.002461671829223633,0.9473100766956806,-0.0022341161966323853
1745971606153085700,7.118085693359375,-0.13595838178615988,0.023969845846295357,-0.06776207074696247,-0.017763227224349976,0.0011460459279921567,0.99662940682755,-0.003997370769926254,right,-0.0030514001846313477,-0.09242614074655317,-1.323518009509146,-9.67468249296546,-0.04622545065068242,0.0891680046916008,0.004833877086639404,0.9051000705409794,-0.007445327937602997
1745971606193085700,7.158085693359375,-0.13633953598318022,0.03103438951075077,-0.0679906852122552,-0.013744046911597252,0.0017601910759926862,0.9966791253567244,-0.0025903124478223287,right,0.0013067126274108887,-0.08961246555921928,-1.3275463882423937,-9.676661684083937,-0.04477530481360305,0.04603821039199829,0.003832802176475525,0.8776215503763407,-0.011800408363342285
1745971606233085700,7.198085693359375,-0.13729763359495886,0.010631822049617767,-0.06848985616168558,-0.03437931835651398,0.002211200921140952,0.9966611921520842,-0.0016802153047016277,right,-0.0005213618278503418,-0.08891353296718367,-1.3369006381735205,-9.675990652954578,-0.044394994800735256,-0.012972082942724228,0.0026594549417495728,0.8707946269657463,-0.006563857197761536
1745971606273085700,7.238085693359375,-0.138545972208535,-0.0018706778064370155,-0.069104880561099,-0.034102827310562134,0.0022130188477342055,0.9965813403268016,-0.0018473497042950345,right,-0.0015038847923278809,-0.09057254156355893,-1.348777100058645,-9.67287047510743,-0.045226061494747775,-0.0845331996679306,0.00031282007694244385,0.8869985235959291,-0.0011145174503326416
1745971606313085700,7.278085693359375,-0.13949684057056086,-0.006458814721554518,-0.06954637851210012,-0.02148592844605446,0.0018640662232828008,0.9964581009467587,-0.002867920807258467,right,-0.00021588802337646484,-0.09453531569180612,-1.3574746396467088,-9.668026542207597,-0.04723494706568905,-0.08802081644535065,0.0006018131971359253,0.9256936534974723,0.0008902028203010559
1745971606353085700,7.318085693359375,-0.14045213607784993,-0.01104695163667202,-0.06998757395999795,-0.008869031444191933,0.0015151090164279455,0.9963304860034936,-0.0038926625800275423,right,0.0010553598403930664,-0.09849711864919337,-1.366185769368708,-9.663018358656764,-0.04924362700484261,-0.0915084257721901,0.0008921772241592407,0.9643648180015385,0.0028973668813705444
1745971606393085700,7.358085693359375,-0.14079266941249258,-0.01213108655065298,-0.07012377895220223,0.002727378159761429,0.001129178676907417,0.9962458576139777,-0.004892937862581367,right,0.0014608502388000488,-0.10145233164634651,-1.3690703848943113,-9.659688337451218,-0.050750535906343285,-0.05713191628456116,-0.001022055745124817,0.9932008902549743,0.0015147700905799866
1745971606433085700,7.398085693359375,-0.1407427899344691,-0.006573796737939119,-0.07007641872345739,0.0018032398074865341,0.0008417215725101362,0.9962075401204517,-0.005579951596807521,right,-0.0006114840507507324,-0.10304483137931489,-1.3683648669734596,-9.658178517410159,-0.05156786878668313,-0.028817811980843544,-0.0024605989456176758,1.0087363861043006,0.0021956786513328552
1745971606473085700,7.438085693359375,-0.1404246553532612,-0.00569743849337101,-0.06990385780721307,0.014617733657360077,0.0006743006569767121,0.9961893362693147,-0.005980186255066521,right,0.0016632676124572754,-0.10418823637535493,-1.3651299767054617,-9.657464816182852,-0.05215151642401857,-0.022101694718003273,-0.001466706395149231,1.019889209889993,0.001509338617324829
1745971606513085700,7.478085693359375,-0.1397050161769988,-0.0019574176985770464,-0.06953527981470885,0.025579527020454407,0.0005475567716225222,0.9961922970091514,-0.006257085389228069,right,0.0007827281951904297,-0.10504554721877202,-1.3580574079707264,-9.657575290820002,-0.05258839903620271,-0.014535477384924889,-0.001702725887298584,1.028250576326251,0.00012818723917007446
1745971606553085700,7.518085693359375,-0.13897991242663338,0.0024553711991757154,-0.06916701022399592,0.01395680196583271,0.0004837720344463834,0.9961938724034156,-0.0064096587744353825,right,-0.002496182918548584,-0.10594559345238075,-1.350925510264188,-9.65763725014031,-0.05304217797613287,-0.02117711864411831,-0.0006901770830154419,1.0370279762174934,0.0009653270244598389
1745971606593085700,7.558085693359375,-0.13876629991367045,0.007333887740969658,-0.06905918879314628,-0.0014924108982086182,0.0005420544869994041,0.996177107222485,-0.006345021709882141,right,-0.0030531883239746094,-0.10686067876617163,-1.3487307766988872,-9.65698200110197,-0.053495783565483575,-0.01775093749165535,0.0018764287233352661,1.0459511412549762,0.001043558120727539
1745971606633085700,7.598085693359375,-0.13942382751813628,0.020533081144094467,-0.06940949265870766,-0.018824994564056396,0.0010472554828435876,0.9961363016097037,-0.0054124994445198,right,-0.0020061135292053223,-0.10752483163943545,-1.3549832612223922,-9.655402622956037,-0.053794033643375615,-0.01603410392999649,0.003795430064201355,1.0524268400751053,0.001230873167514801
1745971606673085700,7.638085693359375,-0.14008078743371977,0.033732276409864426,-0.06975976708296826,-0.036157578229904175,0.0015524397525825124,0.996095030770335,-0.004480382742971793,right,-0.0009598135948181152,-0.10818959641485028,-1.3612282930918036,-9.653815646025539,-0.05409226089602617,-0.014317270368337631,0.005713656544685364,1.0589080918531864,0.0014176145195960999
1745971606713085700,7.678085693359375,-0.1408227299415709,0.033726293593645096,-0.07016252044952824,-0.01971026510000229,0.0022462004351484076,0.9960482401415997,-0.0031788157030217465,right,0.0035955309867858887,-0.10891380237253326,-1.3682824493870138,-9.65204103756845,-0.0544067049157808,-0.015154130756855011,0.0018956810235977173,1.065968312563002,0.004754357039928436
1745971606753085700,7.718085693359375,-0.1408758026010817,0.017497794702649117,-0.07021538345737931,-0.0050537316128611565,0.002786699444533712,0.9960263946398911,-0.0021449070584197497,right,0.0009998083114624023,-0.10960039097034806,-1.3686916147097945,-9.651241411623358,-0.05471228498420892,-0.014357823878526688,-0.002482682466506958,1.0726613073956222,0.006800346076488495
1745971606793085700,7.758085693359375,-0.14056371049234617,-0.003355257213115692,-0.07006580852394316,0.012401578016579151,0.0029282134500265905,0.9960219788542722,-0.0018824429158295238,right,0.0017945170402526855,-0.11015164474999926,-1.3655964251734316,-9.651081252625584,-0.054978050102122304,-0.008488410152494907,-0.0025381147861480713,1.0780346709970383,0.006071865558624268
1745971606833085700,7.798085693359375,-0.1397161677976604,-0.008876973763108253,-0.06963114786915194,0.03544868528842926,0.0026910118029530687,0.9960473683329139,-0.002324064740175569,right,0.00261080265045166,-0.11032466807964794,-1.357390176233649,-9.652050389918685,-0.055080836449256425,0.007326633669435978,-0.001220613718032837,1.0797211627792567,0.00003927946090698242
1745971606873085700,7.838085693359375,-0.1387703556544567,-0.011357428506016731,-0.06914553535151287,0.007351692765951157,0.0023593540633742942,0.996095061802994,-0.0029018905696164936,right,-0.005490303039550781,-0.10981017404456,-1.3483372473366557,-9.653878774389623,-0.054845840916585356,0.03427359089255333,-0.002884611487388611,1.0747062572266906,-0.012313373386859894
1745971606913085700,7.878085693359375,-0.13959383497774028,-0.01723352074623108,-0.06954501805043187,-0.03443550691008568,0.0020519229884803395,0.9961107806772029,-0.0034518366348091057,right,-0.0058632493019104,-0.10820050408370542,-1.3565255222283303,-9.65446563436687,-0.054062311225196856,0.05061415582895279,-0.0018049776554107666,1.0590144748371093,-0.014064513146877289
1745971606953085700,7.918085693359375,-0.14133301169388077,-0.03399539366364479,-0.07040871045935398,-0.05062270537018776,0.0017414316098998766,0.9961441812343315,-0.0039182718565014445,right,-0.002037525177001953,-0.10465415705856766,-1.3738346766866742,-9.65574924443662,-0.05231070079514094,0.11081267148256302,-0.00006589293479919434,1.024433429190889,-0.01469036191701889
1745971606993085700,7.958085693359375,-0.14365930522318943,-0.05596385896205902,-0.07155039206398499,-0.07011652737855911,0.0010209022945617935,0.9961849468505165,-0.005139488686590036,right,-0.008385300636291504,-0.09983081486795639,-1.3969842277362943,-9.657305241706966,-0.049950053804523095,0.11523610353469849,-0.0037757456302642822,0.9773797093320638,-0.02451397478580475
1745971607033085700,7.998085693359375,-0.1474695831346923,-0.08995886147022247,-0.07341118338044564,-0.10395444184541702,-0.00017743024968318102,0.9961706644612738,-0.007358366165664327,right,0.004339635372161865,-0.09472121744329645,-1.4344861292652784,-9.656725980514288,-0.04748467986462677,0.0812477245926857,0.002501353621482849,0.9275085939649492,-0.0055862292647361755
1745971607073085700,8.038085693359376,-0.15232762657288085,-0.09443767368793488,-0.07575688043153674,-0.07493550330400467,-0.0017498742456777676,0.9960130620463207,-0.010664838355247874,right,0.002436339855194092,-0.09364113126199454,-1.4815329809918998,-9.650628248161077,-0.04707240980106564,-0.10991444438695908,0.008472084999084473,0.9169635268140583,0.02962065488100052
1745971607113085700,8.078085693359375,-0.15569705955806218,-0.04841065779328346,-0.07734811343260811,-0.05042921379208565,-0.0029975387478920674,0.995801461297343,-0.013593538443200087,right,0.0034966468811035156,-0.09700896879304903,-1.5135541130222379,-9.642475921365618,-0.04886546049771975,-0.08950840681791306,0.013018950819969177,0.9498407642170786,0.01817406713962555
1745971607153085700,8.118085693359374,-0.15680533303481686,-0.04431240260601044,-0.07785377198327048,-0.008722774684429169,-0.00359583442947734,0.9957070261730268,-0.015010189375215111,right,0.009303390979766846,-0.09904340772613365,-1.5239347833916543,-9.638864160609245,-0.04993509825250896,-0.03751154616475105,-0.00013659894466400146,0.9696960229616611,0.03410004824399948
1745971607193085700,8.158085693359375,-0.15671406490954,-0.06890763342380524,-0.07774983798202247,-0.004440000746399164,-0.0046423817137026605,0.9956879128848227,-0.017166384579937896,right,0.0066127777099609375,-0.0997864384962947,-1.522942119092494,-9.638288406547904,-0.050388684717254405,-0.011519603431224823,-0.005021020770072937,0.9769466516770422,0.021850600838661194
1745971607233085700,8.198085693359374,-0.15575800860942357,-0.03488607332110405,-0.07721574154592224,-0.003933645784854889,-0.005456093745957005,0.9956685232740674,-0.018917097255634507,right,0.0011187195777893066,-0.10188400544395737,-1.513405498331785,-9.637694532307982,-0.05149827571917653,-0.022919606417417526,-0.0027549415826797485,0.99741229740493,0.002124287188053131
1745971607273085700,8.238085693359375,-0.15480547557684216,-0.0008645132184028625,-0.07668148955853608,-0.0034272903576493263,-0.006269773861072604,0.9956470477448907,-0.020666135916879103,right,-0.004381299018859863,-0.10398326293902034,-1.5038983959265053,-9.637041621357202,-0.052607763373703646,-0.03431960940361023,-0.00048582255840301514,1.0178899988967924,-0.017603270709514618
1745971607313085700,8.278085693359374,-0.1551445674838156,0.04624281823635101,-0.07685503237631915,-0.02822934463620186,-0.005916236831988451,0.9955976741803929,-0.020089890710585808,right,-0.0028287768363952637,-0.1054658355808854,-1.5069313338816166,-9.6350296970129,-0.05332465882616951,-0.019510839134454727,0.0018193423748016357,1.032349463012442,-0.012474752962589264
1745971607353085700,8.318085693359375,-0.15601179737409554,0.07774336636066437,-0.07734676343852274,-0.03468743711709976,-0.004653278909682381,0.9955515573252703,-0.017657245350155504,right,-0.0022634267807006836,-0.10620430548372445,-1.5151676856987177,-9.632963412132858,-0.05360073856717866,-0.020860619843006134,0.00261746346950531,1.039550845758617,-0.0024805888533592224
1745971607393085700,8.358085693359374,-0.15693936714452977,0.08108742535114288,-0.07788810004319947,-0.0358458012342453,-0.003003311742727067,0.9954953981923503,-0.01447117910101318,right,0.00010842084884643555,-0.10720132176466388,-1.523939459566772,-9.630525371330975,-0.05397511426570649,-0.02424047142267227,0.002528071403503418,1.049272613827884,0.005099266767501831
1745971607433085700,8.398085693359375,-0.15780760111781145,0.05787990987300873,-0.07838756531038271,-0.026593424379825592,-0.0015831240152351606,0.9954338155754775,-0.011757061889503128,right,0.0014583468437194824,-0.10836187676924725,-1.532108152975142,-9.627989715373516,-0.05444768124059047,-0.02291909046471119,0.000929415225982666,1.0605877155032009,0.010498277842998505
1745971607473085700,8.438085693359374,-0.1583536349685219,0.021806292235851288,-0.07869516925699477,-0.011498244479298592,-0.000769042981998148,0.995382332560957,-0.01024243086423473,right,0.004149138927459717,-0.1095068955220605,-1.5371725967578589,-9.625946226847171,-0.05495838114869291,-0.018734470009803772,-0.0008929669857025146,1.0717499647043645,0.008909575641155243
1745971607513085700,8.478085693359375,-0.15823320221382078,0.011737504042685032,-0.07864826508909056,0.004391219466924667,-0.0004332619422124708,0.995364364949237,-0.009628069994075441,right,0.0030466318130493164,-0.11034872381127382,-1.535870574248582,-9.625236617273092,-0.05535312735436331,-0.008077453821897507,-0.0014851689338684082,1.0799556291222572,0.0010494813323020935
1745971607553085700,8.518085693359374,-0.15799561422665037,0.009163708426058292,-0.07853981591567336,0.0054148221388459206,-0.0001670702740890299,0.9953517705930076,-0.009144003704037628,right,0.0023676156997680664,-0.11115469675098517,-1.5334462697111069,-9.62473860462308,-0.05573516413451298,-0.008749952539801598,-0.00045017898082733154,1.0878110918629913,-0.0004014447331428528
1745971607593085700,8.558085693359375,-0.15775758732333547,0.006589912343770266,-0.07843134246408832,0.006438424810767174,0.00009907882264099153,0.9953388417602963,-0.008659784863636036,right,0.0016880035400390625,-0.1119605274294808,-1.5310169967375695,-9.62423474675417,-0.056117183591105665,-0.009422451257705688,0.0005843192338943481,1.0956645087771117,-0.0018521696329116821
1745971607633085700,8.598085693359375,-0.15775758732333547,-0.00023287860676646233,-0.07843134246408832,-0.020992284640669823,0.00009907882264099153,0.9953388417602963,-0.008659784863636036,right,-0.002822399139404297,-0.1119605274294808,-1.5310169967375695,-9.62423474675417,-0.056117183591105665,0.0014256034046411514,0.001048251986503601,1.0956645087771117,-0.0015648752450942993
1745971607673085700,8.638085693359375,-0.1589851451553577,-0.00033848430030047894,-0.07904415103376929,-0.028721943497657776,0.00019132572969665347,0.9952848263275145,-0.008560019863729411,right,0.00005173683166503906,-0.11216564932233035,-1.5427945282928646,-9.62212579177618,-0.05621524248774494,-0.00918995775282383,0.0022865980863571167,1.0976634275093673,0.0026030689477920532
1745971607713085700,8.678085693359375,-0.1599421780634957,-0.005226590670645237,-0.07951569062204754,0.006289564073085785,0.00019193210402937755,0.9952335099625967,-0.008651750745258197,right,0.014111101627349854,-0.11264950714294682,-1.5519177459470928,-9.620119128128886,-0.05645955540549237,-0.03021824359893799,0.005005896091461182,1.1023784733325241,0.01851131021976471
1745971607753085700,8.718085693359376,-0.1573838085163981,-0.004805298522114754,-0.07822798017052925,0.12962444126605988,0.00011899498126155182,0.9952730013997525,-0.008825580228522794,right,0.02226996421813965,-0.11482887551305727,-1.5269208134651182,-9.621662850439549,-0.0575510814150565,-0.074069082736969,0.002832174301147461,1.1236126922801137,0.01769500970840454
1745971607793085700,8.758085693359375,-0.15098087708328867,-0.04126361757516861,-0.07500964137882339,0.17442010343074799,-0.0004607328544962125,0.9954813438280661,-0.009717991924464648,right,0.00863105058670044,-0.11611841045200656,-1.465063930619508,-9.629801733231544,-0.05822648462370862,0.01858782023191452,-0.005704760551452637,1.1361745060808957,-0.003445371985435486
1745971607833085700,8.798085693359376,-0.14562821047322802,-0.02848750352859497,-0.07230858129572419,0.1101543977856636,-0.0014188250423945884,0.9957199141802885,-0.011221233310305147,right,-0.007417440414428711,-0.1146410029824686,-1.4137399860955775,-9.639155837032199,-0.057543913736272205,0.012484433129429817,-0.005902484059333801,1.1217824081130325,-0.0034553930163383484
1745971607873085700,8.838085693359375,-0.14027422605654002,-0.01571139134466648,-0.06960688576929884,0.04588868468999863,-0.002376952240384048,0.9959498641561783,-0.012732253060962274,right,-0.023496687412261963,-0.11317160679203114,-1.3623410766392945,-9.648208912059664,-0.05686083702166001,0.006381044629961252,-0.0061078667640686035,1.1074659326646477,-0.0034731030464172363
1745971607913085700,8.878085693359376,-0.1404082217200211,-0.0064010899513959885,-0.0696577063146669,0.011435188353061676,-0.002594343944500534,0.9959319448557833,-0.0132082636086507,right,-0.015201747417449951,-0.1136215319260826,-1.3635640425629914,-9.647531451189517,-0.05710161698178561,-0.0064960685558617115,-0.0019945353269577026,1.111849846837297,-0.005060434341430664
1745971607953085700,8.918085693359375,-0.14054247002216202,0.002909211441874504,-0.06970852671750319,-0.023018304258584976,-0.0028117356486170365,0.9959140255553885,-0.013684362221210939,right,-0.006907105445861816,-0.1140714186791541,-1.3647890543133019,-9.646852236753702,-0.057342397126016624,-0.019373180344700813,0.0021189898252487183,1.1162331764880566,-0.0066476911306381226
1745971607993085700,8.958085693359376,-0.14161202084188748,-0.004039481282234192,-0.07023541072387718,-0.031009668484330177,-0.002870536826005654,0.9958743067046252,-0.013869200191591095,right,0.001850128173828125,-0.11414381708470328,-1.3750946136198936,-9.64530676087737,-0.057386431547665005,0.015196284279227257,0.0017576664686203003,1.116938548278436,-0.009707406163215637
1745971608033085700,8.998085693359375,-0.14267258956970386,-0.00580882653594017,-0.07076800625045691,-0.028999296948313713,-0.0029220157907074193,0.9958710868528562,-0.013945929111473463,right,0.0015189051628112793,-0.11292220058832451,-1.3855163466520606,-9.645186349368094,-0.05678241844851858,0.02185693010687828,0.0003991127014160156,1.1050357098430394,-0.002121374011039734
1745971608073085700,9.038085693359376,-0.14340465519339243,-0.005303539335727692,-0.0711315483354889,-0.015386338345706463,-0.003001616694173839,0.9958622266421998,-0.014102316588149123,right,0.000843048095703125,-0.11229604819159571,-1.3926754246264694,-9.644852587369083,-0.05647729015281392,-0.0059149544686079025,-0.00022414326667785645,1.0989341780975461,0.0027068108320236206
1745971608113085700,9.078085693359375,-0.14380340496463712,0.0044127050787210464,-0.07131960702779852,-0.0031505152583122253,-0.003072161057868198,0.9958263817015266,-0.014322105130089764,right,-0.0008879899978637695,-0.11306230196663578,-1.396400144238025,-9.64346025622785,-0.056867234981971444,-0.035729579627513885,0.0019405633211135864,1.1064008607164024,-0.0014749914407730103
1745971608153085700,9.118085693359374,-0.1442214983614964,0.0037040722090750933,-0.07151797579247748,-0.0077989413402974606,-0.0030442097430843245,0.9957722647176709,-0.014391012527967824,right,0.00003045797348022461,-0.11445501481904949,-1.4002090350016951,-9.641341364377736,-0.05756372287277859,-0.030052386224269867,0.0014132857322692871,1.1199704633202403,-0.0013802647590637207
1745971608193085700,9.158085693359375,-0.14463975103551996,0.00299543933942914,-0.07171630977901211,-0.012447367422282696,-0.0030162493091176784,0.9957175517571228,-0.0144605024252563,right,0.0009467601776123047,-0.11584769650199049,-1.4040152954168617,-9.639202014261484,-0.058260182661038225,-0.0243751909583807,0.0008857250213623047,1.1335375086408108,-0.0012852847576141357
1745971608233085700,9.198085693359374,-0.14500185429906845,0.003512409282848239,-0.07189135319870552,-0.0035044411197304726,-0.002967643980405372,0.9956771634305641,-0.014453651219141758,right,0.003006577491760254,-0.11680040254216774,-1.4073489698842168,-9.637620298027992,-0.058734754661789575,-0.02450910396873951,0.0010371506214141846,1.1428172320310026,0.0008534342050552368
1745971608273085700,9.238085693359375,-0.14490073066531195,0.0006408998742699623,-0.07183308099584788,0.002273069228976965,-0.002969526328023465,0.995651358545644,-0.01452547826612769,right,-0.0005847811698913574,-0.11781425382842109,-1.4062063757203518,-9.636610828724503,-0.05924187960887513,-0.024626826867461205,0.0005851984024047852,1.1526914141830056,0.0008567944169044495
1745971608313085700,9.278085693359374,-0.1449424742047187,-0.002947901375591755,-0.07184408082772599,-0.0018485798500478268,-0.0029839896012066915,0.9956171705140999,-0.014638291760135912,right,-0.0007583498954772949,-0.1189272010258489,-1.406422356558591,-9.635276949772239,-0.059800002463605416,-0.03035082295536995,0.0005893856287002563,1.1635293268006295,0.0009047985076904297
1745971608353085700,9.318085693359375,-0.1451165663283027,-0.003075827145949006,-0.07190749466871077,0.001336358254775405,-0.0032473506501526257,0.9955842410269224,-0.015241698280107295,right,0.0011603832244873047,-0.11980097166086592,-1.4079521964743733,-9.634021981275081,-0.06025689269683673,-0.0249436404556036,0.001515612006187439,1.1720371159702538,-0.000865444540977478
1745971608393085700,9.358085693359374,-0.14529117719268617,-0.0032037529163062572,-0.0719708797654684,0.004521296359598637,-0.0035107177823554088,0.9955509299322789,-0.01584533306586725,right,0.003078162670135498,-0.12067461135485294,-1.409485689651966,-9.632759413993359,-0.060713759204440006,-0.01953645795583725,0.0024421662092208862,1.180542713182792,-0.002635449171066284
1745971608433085700,9.398085693359375,-0.14514076355867292,0.009753135964274406,-0.07190590769557975,0.006028160452842712,-0.0032669846984652072,0.9955381350006004,-0.015393017013766403,right,0.002337217330932617,-0.1213101777710599,-1.4079279388159514,-9.632226914551854,-0.061013579844299747,-0.017508143559098244,0.0031754672527313232,1.1867299504503608,-0.00008270144462585449
1745971608473085700,9.438085693359374,-0.1449900599340855,0.022710023447871208,-0.0718409300193734,0.007535024080425501,-0.0030232257692870057,0.9955252093188168,-0.01494052013686069,right,0.0015959739685058594,-0.1219456918928894,-1.4063671192400156,-9.631690907979012,-0.06131339555492774,-0.015479828231036663,0.003908440470695496,1.1929161648046225,0.002470150589942932
1745971608513085700,9.478085693359375,-0.14472343962318038,0.013910172507166862,-0.0717269765584597,0.003675652900710702,-0.0026536062696506002,0.9955187399477275,-0.01422268464486538,right,-0.0006315708160400391,-0.12250985633263548,-1.403701699423045,-9.631398062512279,-0.061568054949088444,-0.01268854271620512,0.003565773367881775,1.198407455697283,0.006101988255977631
1745971608553085700,9.518085693359374,-0.1446456372841978,-0.0058081913739442825,-0.0716881017967652,-0.00044991145841777325,-0.0025721871448017254,0.9955014942250171,-0.01410298896154135,right,-0.00003403425216674805,-0.12317791351494878,-1.4028366070263087,-9.630712418335676,-0.06189616419881269,-0.026822730898857117,0.0010880976915359497,1.204909458002448,0.008443944156169891
1745971608593085700,9.558085693359375,-0.1449415761261738,-0.01344689168035984,-0.07181105432628894,-0.013458975590765476,-0.0027736153860202597,0.9954477660533132,-0.014627097865783225,right,-0.001176297664642334,-0.12456093061946287,-1.4054445975676177,-9.628639119192957,-0.06260370182509578,-0.0420195646584034,0.0011538714170455933,1.2183683667734264,0.0038480162620544434
1745971608633085700,9.598085693359375,-0.14555962127077032,-0.016962843015789986,-0.07207688620581687,-0.020884618163108826,-0.003109001764330764,0.9953526683027701,-0.01550904643838165,right,-0.0022597908973693848,-0.12686669468463113,-1.4109841115161776,-9.62496306102872,-0.06378383440355587,-0.06316260993480682,0.00036019086837768555,1.2408017323777079,0.00014834105968475342
1745971608673085700,9.638085693359375,-0.14615566267448085,-0.005807928740978241,-0.07233591414118254,-0.016382256522774696,-0.003366578218608052,0.995258033879935,-0.016232724311978527,right,-0.0014185905456542969,-0.1291443083623652,-1.4163054526694119,-9.621299862346053,-0.0649443002057387,-0.04927912726998329,-0.0000950247049331665,1.2629546736054122,-0.004097416996955872
1745971608713085700,9.678085693359375,-0.1468657785396184,0.0018778550438582897,-0.07266568686333102,-0.02036074548959732,-0.00346909879900021,0.995176251735072,-0.016612991080558265,right,-0.00020700693130493164,-0.13087038719205416,-1.4228162958681583,-9.618120647788047,-0.0658181426883334,-0.03966456279158592,-0.001003757119178772,1.2797389274068176,-0.002572283148765564
1745971608753085700,9.718085693359376,-0.147317517617039,0.008690038695931435,-0.072887728250138,-0.015618189238011837,-0.003282151016299133,0.9951088658883501,-0.01638450692777407,right,0.00028973817825317383,-0.13244924082197662,-1.4268626486495137,-9.61546633388698,-0.06659612171197203,-0.04144059121608734,-0.0012103021144866943,1.2950881799690426,-0.0020191818475723267
1745971608793085700,9.758085693359375,-0.14776898025488042,0.015502223744988441,-0.07310971414393982,-0.010875632986426353,-0.0030952047572632554,0.9950408004458168,-0.016156700604748834,right,0.0007838010787963867,-0.13402818983608003,-1.430900671993941,-9.612786885544658,-0.06737405070688283,-0.04321661964058876,-0.0014177262783050537,1.3104350944437086,-0.001465827226638794
1745971608833085700,9.798085693359376,-0.14801429583238215,0.018356652930378914,-0.07323633249729565,-0.005376198794692755,-0.0028023297120713304,0.9949774794983706,-0.01570782086471935,right,-0.0001379847526550293,-0.13567793833552053,-1.4329380230404436,-9.61028396281302,-0.06817868621291596,-0.03763120248913765,-0.0009832829236984253,1.3264667763121425,-0.0011340975761413574
1745971608873085700,9.838085693359375,-0.14814436839521075,0.014398960396647453,-0.0733092315844937,-0.004906744696199894,-0.0024862753848168173,0.9949233595938377,-0.015192535007430837,right,-0.001479506492614746,-0.1371648392303074,-1.4338953237652778,-9.60813642939031,-0.0688996135130937,-0.03640320897102356,-0.0009733587503433228,1.3409127964243293,0.000977829098701477
1745971608913085700,9.878085693359376,-0.14850200811110698,0.009454876184463501,-0.07349095380379851,-0.009659511968493462,-0.0022611895882481818,0.9948685392514109,-0.014857470791382303,right,0.0008974075317382812,-0.13840179909614214,-1.437084913586825,-9.60597486744225,-0.06950301547744883,-0.02916235849261284,0.000734671950340271,1.3529282283887267,0.00011295080184936523
1745971608953085700,9.918085693359375,-0.1488526168861794,0.012458095327019691,-0.07366925897447978,-0.008183957077562809,-0.002060733404306791,0.99481982779376,-0.014557845201045852,right,0.00026357173919677734,-0.13945239512969684,-1.4402411856606603,-9.604059389209747,-0.07001492539674459,-0.01838625594973564,0.00021569430828094482,1.363131788625568,0.00003312528133392334
1745971608993085700,9.958085693359376,-0.14911635610482077,0.010149851441383362,-0.07380711915063018,-0.003676826599985361,-0.0018504739602776073,0.9947810426505503,-0.014217727084624062,right,-0.000032901763916015625,-0.14030400739969973,-1.4426011927902698,-9.602527941858767,-0.070426200077272,-0.02155049704015255,0.0007102340459823608,1.3714017504513263,0.0002256631851196289
1745971609033085700,9.998085693359375,-0.14955381783830707,0.010952362790703773,-0.07403510425676958,-0.010678604245185852,-0.0016021966780503387,0.9947408601196616,-0.013802251311168303,right,-0.0010845065116882324,-0.1410032193800443,-1.4466585053570569,-9.600945641103387,-0.07075897420820697,-0.016491686925292015,0.00039702653884887695,1.378190972200036,0.0011622756719589233
1745971609073085700,10.038085693359376,-0.15025792518065545,0.007682771421968937,-0.07439609360530693,-0.02651882730424404,-0.001361404081774994,0.994696616770353,-0.013408098781697336,right,-0.00396496057510376,-0.1415300705049365,-1.453309341548383,-9.5992049349159,-0.07100688537012732,-0.0006460323929786682,-0.001466497778892517,1.3833061232566832,-0.0012181848287582397
1745971609113085700,10.078085693359375,-0.15124482710629167,0.013522438704967499,-0.0749024983232642,-0.02427104115486145,-0.0011144737701075688,0.9946618740532448,-0.012978022519203278,right,-0.00017601251602172852,-0.1414773579667595,-1.4627930630780757,-9.597838322737813,-0.07096523087015524,0.0028297766111791134,-0.0008967667818069458,1.3827943743422626,0.001557677984237671
1745971609153085700,10.118085693359374,-0.15213595200416766,0.01915385201573372,-0.0753668704033861,-0.023703912273049355,-0.0007589313140115183,0.9946209125772778,-0.012343906852193732,right,0.0012958049774169922,-0.14170215423811333,-1.4712982949644327,-9.596223288756608,-0.07105360786329379,-0.008821900933980942,0.0001491457223892212,1.38497683294788,0.0021374672651290894
1745971609193085700,10.158085693359375,-0.15292293797696319,0.02309158444404602,-0.07578170653159844,-0.019567176699638367,-0.0003178434879384203,0.9945657491003449,-0.01156913002464059,right,0.002802133560180664,-0.14242888534483134,-1.4786961501307785,-9.594065233939885,-0.0713859266504698,-0.022037629038095474,0.0002602487802505493,1.3920317198954522,0.0012023299932479858
1745971609233085700,10.198085693359374,-0.1536055309014298,0.015553126111626625,-0.07613707801712519,-0.017021894454956055,0.000054969983467201714,0.9945009210960685,-0.010953675675770387,right,0.0003170967102050781,-0.14353142029757088,-1.4850089865393936,-9.591531331548094,-0.07191081103439874,-0.02181597240269184,-0.00015589594841003418,1.4027335850432514,0.000787585973739624
1745971609273086000,10.2380859375,-0.1540073404384357,0.008389350958168507,-0.07634568803917605,-0.008687591180205345,0.00029922741128537257,0.9944515207071717,-0.010565484885026637,right,0.00009328126907348633,-0.14448555638792415,-1.488656841522455,-9.589607085487247,-0.0723703836628078,-0.01768980361521244,-0.0006689727306365967,1.4119935808196662,0.0020971596240997314
1745971609313085700,10.278085693359374,-0.154435270414185,0.006643133237957954,-0.0765662869072991,-0.009633666835725307,0.0004908565158747966,0.9944132373702143,-0.010258795990208786,right,0.00002664327621459961,-0.14509750559675924,-1.4926272064581512,-9.588113632059097,-0.07266282257458614,-0.010871311649680138,-0.00019022822380065918,1.417932030957937,0.0005965828895568848
1745971609353085700,10.318085693359375,-0.15482074035768004,0.0051965126767754555,-0.0767623516837868,-0.011317329481244087,0.0006218663074826425,0.9943800353373938,-0.01006314399478487,right,0.00012874603271484375,-0.14560663136625693,-1.4962114946857095,-9.586823007726668,-0.07290834058077078,-0.012218229472637177,0.00037175416946411133,1.4228721177086234,0.0008039027452468872
1745971609393085700,10.358085693359374,-0.15520616362391887,0.0037498923484236,-0.07695841646027038,-0.013000992126762867,0.0007528654562421563,0.9943467496854523,-0.009867699648721903,right,0.00023043155670166016,-0.14611585202278687,-1.4997941754780708,-9.585528291741014,-0.07315385858695146,-0.01356514636427164,0.0009335875511169434,1.4278129351116715,0.001011177897453308
1745971609433085700,10.398085693359375,-0.1555915044746772,0.002303272020071745,-0.07715447059425393,-0.014684654772281647,0.0008839375812745656,0.9943133697715425,-0.009672291572243774,right,0.0003317594528198242,-0.1466251577295684,-1.5033748104438185,-9.584230068624018,-0.07339936599825495,-0.01491206418722868,0.0014952272176742554,1.4327540447756648,0.0012184083461761475
1745971609473085700,10.438085693359374,-0.15607444975159224,-0.004120966419577599,-0.0773858935308733,-0.0066077494993805885,0.0008451973839791462,0.9942747089921218,-0.009829126269602053,right,0.0011161565780639648,-0.14717582848120342,-1.507880451299995,-9.582722002148628,-0.07367896773367366,-0.011665736325085163,0.0034347325563430786,1.4380961364559828,0.0008222907781600952
1745971609513085700,10.478085693359375,-0.15607444975159224,-0.009776057675480843,-0.0773858935308733,-0.007447314448654652,0.0008451973839791462,0.9942747089921218,-0.009829126269602053,right,0.0001583099365234375,-0.14717582848120342,-1.507880451299995,-9.582722002148628,-0.07367896773367366,-0.004360100720077753,0.002099081873893738,1.4380961364559828,0.0009537339210510254
1745971609553085700,10.518085693359374,-0.1565483549516483,-0.012881919741630554,-0.07759059972192417,-0.012443250976502895,0.00048259561546925135,0.9942448510965355,-0.010619065318153048,right,0.0003120899200439453,-0.14749842261815582,-1.512349121146649,-9.581547697672248,-0.07386977673414581,-0.003996540792286396,0.0018219947814941406,1.4412255205228923,0.0012032091617584229
1745971609593085700,10.558085693359375,-0.15702337197297364,-0.013517558574676514,-0.07779913547063465,-0.010489892214536667,0.00015731994008375588,0.9942175076767882,-0.011328185780319355,right,-0.000024616718292236328,-0.1477449572320815,-1.516844825130701,-9.58047685357034,-0.07401979621422904,-0.006480344571173191,0.000850290060043335,1.4436167995736002,0.0015009939670562744
1745971609633085700,10.598085693359375,-0.15774733400069346,-0.03191355615854263,-0.07811018760012478,-0.017190895974636078,-0.000446171966213393,0.9941813886367152,-0.012612893188104442,right,-0.0014845728874206543,-0.14795584907476422,-1.5237323926873505,-9.579075170078873,-0.07417475683393208,-0.0041462695226073265,0.0016873180866241455,1.4456624800570308,0.003105446696281433
1745971609673085700,10.638085693359375,-0.1584716551111597,-0.05030955374240875,-0.07842121844461461,-0.02389189973473549,-0.0010496593129189506,0.9941449716082967,-0.01389779133560825,right,-0.0029448866844177246,-0.14816587910309106,-1.530622444462031,-9.577669394934176,-0.07432969626386861,-0.001812194474041462,0.0025245994329452515,1.4476995388425886,0.004710778594017029
1745971609713085700,10.678085693359375,-0.15971587005429047,-0.08044208586215973,-0.07894107854847653,-0.020741887390613556,-0.0023157450549326705,0.9940924071405964,-0.01654118356880584,right,0.0006160140037536621,-0.14820491879933448,-1.542528863094002,-9.575701309731603,-0.07445413627843407,-0.011646258644759655,0.0027289241552352905,1.448078162896633,0.007253721356391907
1745971609753085700,10.718085693359376,-0.16088160669961946,-0.10136070847511292,-0.07937657880607568,-0.01620064675807953,-0.004159920595504696,0.9940320582680855,-0.020356556528308308,right,0.002041041851043701,-0.14842126343422812,-1.553640331955999,-9.573587094056606,-0.07471456133136932,-0.019241055473685265,0.0010777562856674194,1.450176596480608,0.0042034536600112915
1745971609793085700,10.758085693359375,-0.162040812299155,-0.12018051743507385,-0.07977765371923172,-0.011138174682855606,-0.0064260369710079,0.9939700101877247,-0.02501163479423733,right,0.00027865171432495117,-0.14852187888339924,-1.5647135146342217,-9.571635959988832,-0.0749528422004752,-0.003550497815012932,0.00031666457653045654,1.4511524557754396,-0.0036236196756362915
1745971609833085700,10.798085693359376,-0.16240309910486003,-0.1053207591176033,-0.07981007626421005,0.00011518504470586777,-0.008604745049928789,0.9939878438865362,-0.029312644259820785,right,0.0010259747505187988,-0.1471847541266954,-1.5684934715643524,-9.572974515116215,-0.07446137389296495,0.006385689601302147,0.000042825937271118164,1.438182791826129,-0.0012224316596984863
1745971609873085700,10.838085693359375,-0.1627595228682711,-0.09046100825071335,-0.07984210484679617,0.011368544772267342,-0.010783437949217059,0.994000789664563,-0.03361237315927941,right,0.0017726421356201172,-0.14584611524522817,-1.5722159992188214,-9.57430605598092,-0.07396953816168399,0.016321878880262375,-0.00023686885833740234,1.4251958844810724,0.0011805295944213867
1745971609913085700,10.878085693359376,-0.1633108922396699,-0.08107372373342514,-0.08002549561613499,0.009721068665385246,-0.012251640031713282,0.9940095966205178,-0.036496233727370736,right,0.0015766620635986328,-0.14450661190749198,-1.577803590092808,-9.57531260267496,-0.07342237405928458,0.016592392697930336,0.0017583370208740234,1.4121980173505841,0.0008179396390914917
1745971609953085700,10.918085693359375,-0.16385825160910128,-0.07168643921613693,-0.08020868740883072,0.008073592558503151,-0.013719816280325248,0.9940159360505879,-0.03937879772815201,right,0.0013794302940368652,-0.143165544516402,-1.5833520180001854,-9.576307458931208,-0.07287502882247557,0.016862906515598297,0.0037495195865631104,1.399182468432933,0.0004571676254272461
1745971609993085700,10.958085693359376,-0.16440156557383714,-0.062299150973558426,-0.08039166901226026,0.006426115985959768,-0.015187930206916523,0.9940197608237896,-0.04226000389199102,right,0.0011809468269348145,-0.14182290113551,-1.5888608445495367,-9.57729062474966,-0.07232749259280136,0.017133422195911407,0.005736634135246277,1.3861490915976464,0.0000982135534286499
1745971610033085700,10.998085693359375,-0.16467878846723416,-0.05839871987700462,-0.08046055405733601,0.004463672637939453,-0.016418383200984068,0.9940328494467529,-0.04465016732925827,right,0.0015854835510253906,-0.14056513873842771,-1.591800259002298,-9.578561959859728,-0.07180082944298834,0.028681855648756027,0.0035779476165771484,1.3739374064087866,-0.0008947253227233887
1745971610073085700,11.038085693359376,-0.16557124071799334,-0.05903727561235428,-0.0808484267044907,-0.026866871863603592,-0.01754328908021049,0.9940319944268787,-0.046843476881861586,right,-0.0014279484748840332,-0.13897445658078877,-1.6007063267745076,-9.579280921784044,-0.07110647714436404,0.03253694623708725,0.002250775694847107,1.3584902464300392,0.001808762550354004
1745971610113085700,11.078085693359375,-0.16733048024563152,-0.05700559914112091,-0.08166236279060812,-0.046328842639923096,-0.018663755757428915,0.9939849009945606,-0.04910923658952662,right,-0.004277288913726807,-0.13763394025897416,-1.6178578064531086,-9.578237550210952,-0.07054838995850107,0.01613876037299633,-0.0013432055711746216,1.3454697290763258,0.0019806772470474243
1745971610153085700,11.118085693359374,-0.16970032087135076,-0.040627993643283844,-0.08278123323783526,-0.05524185299873352,-0.019567037842100933,0.9938890063215704,-0.051042819326766714,right,0.0007374286651611328,-0.13703076208681256,-1.640688939203322,-9.575174655508995,-0.07035085563476472,-0.00269375741481781,-0.002628624439239502,1.339610335523635,0.001367613673210144
1745971610193085700,11.158085693359375,-0.1716206019040944,-0.028759121894836426,-0.08368705274416573,-0.032740287482738495,-0.020207482058775386,0.9937978964254145,-0.05245967512806428,right,0.006423652172088623,-0.13693995302750153,-1.6590937799438834,-9.572126373854278,-0.0703838115960389,0.0023276610299944878,-0.0030826181173324585,1.3387281458616256,-0.0031429827213287354
1745971610233085700,11.198085693359374,-0.17173773109752838,-0.02711845375597477,-0.08372724542030972,-0.00996963307261467,-0.020618629882152087,0.9938045530063523,-0.05324328806271404,right,0.004087865352630615,-0.13634695017653778,-1.6603502097457645,-9.572712064787744,-0.0701232274404428,0.005464809946715832,-0.004478082060813904,1.3329669519864022,-0.0014691054821014404
1745971610273086000,11.2380859375,-0.17185436586580527,-0.025477785617113113,-0.0837674153861356,0.012801023200154305,-0.021029773145937295,0.9938109115989443,-0.05402676466339805,right,0.0017517805099487305,-0.1357538427474418,-1.6616016711115835,-9.573296002155542,-0.06986262393613427,0.008601958863437176,-0.005874127149581909,1.3272042968064546,0.00020493566989898682
1745971610313085700,11.278085693359374,-0.17129577607782173,-0.026521187275648117,-0.08346745766281129,0.024416394531726837,-0.021550639842561354,0.9938454686524321,-0.054978195478940825,right,-0.00033164024353027344,-0.13509819989194427,-1.6564019105114043,-9.575077624875307,-0.06957076092862573,0.010352268815040588,-0.0027009248733520508,1.3208335927307604,-0.0014239400625228882
1745971610353085700,11.318085693359375,-0.17092456847014292,-0.03869496285915375,-0.08324743937728193,0.0046243444085121155,-0.022212968979196012,0.9938631489984471,-0.0562414418019039,right,-0.005154907703399658,-0.13460003215416186,-1.6529590765811502,-9.57633902311325,-0.069371883491943,0.0008722338825464249,-0.0014705657958984375,1.3159925824403762,-0.0006176382303237915
1745971610393085700,11.358085693359374,-0.17118563200437942,-0.04103737697005272,-0.08332286054198,-0.0009262962266802788,-0.02306343535814546,0.9938420643926127,-0.05794642637035537,right,-0.0027260184288024902,-0.1343184070997778,-1.6555222050674259,-9.576272387617825,-0.06930593714825377,0.00028260814724490047,-0.00047639012336730957,1.3132557048223912,-0.0029004961252212524
1745971610433085700,11.398085693359375,-0.17170053168674462,-0.03883969038724899,-0.08353341897295469,-0.018350690603256226,-0.02383564027797116,0.9938176467972766,-0.05949459973180021,right,-0.002498328685760498,-0.13384407311185817,-1.6605590301908553,-9.576030980077386,-0.06914093211524826,0.007506804075092077,-0.0008195042610168457,1.3086457268089056,-0.0042256563901901245
1745971610473085700,11.438085693359374,-0.17279262215479604,-0.036632049828767776,-0.08404423178582099,-0.02870352566242218,-0.024507278730813934,0.993782213776298,-0.060848442564024545,right,-0.0006343722343444824,-0.13301077658505092,-1.6712027354106307,-9.575282792058587,-0.06879692090606997,0.020950600504875183,0.00044593214988708496,1.3005465915054082,-0.003026530146598816
1745971610513085700,11.478085693359375,-0.17406253650234876,-0.047292742878198624,-0.08464812677073816,-0.03090529888868332,-0.025242514854638794,0.9937501592833833,-0.062304176180660906,right,-0.004985988140106201,-0.1317570539492489,-1.6836422380059957,-9.574751461660862,-0.06825137650870398,0.022306183353066444,0.0015937238931655884,1.288359310105443,-0.0029850155115127563
1745971610553085700,11.518085693359374,-0.1764794135789337,-0.06994743645191193,-0.08582006276463716,-0.07073940336704254,-0.02647644357568473,0.993702891573415,-0.06470059468650592,right,-0.007306814193725586,-0.12896021405067912,-1.7074042218655348,-9.574164017161726,-0.06699561902818935,0.05177181959152222,-0.0030976980924606323,1.2611644291877746,-0.008035838603973389
1745971610593085700,11.558085693359375,-0.1788887179888667,-0.09260213375091553,-0.08699163474031513,-0.11057350784540176,-0.02771015186705735,0.9936513471217922,-0.06708914223411155,right,-0.009639322757720947,-0.1261577193103409,-1.7310884643137454,-9.573463175415991,-0.06573957715353475,0.08123745769262314,-0.0077970921993255615,1.233904666340351,-0.013080015778541565
1745971610633085700,11.598085693359375,-0.1832113118086345,-0.06231345608830452,-0.08915354911182855,-0.08379717171192169,-0.02873125782433352,0.9935497152370024,-0.06905787133664507,right,-0.004568934440612793,-0.12218814064692705,-1.7733327380642294,-9.57063175138235,-0.06391593151344137,0.04797026887536049,0.0011676549911499023,1.195276171934232,0.009823627769947052
1745971610673085700,11.638085693359375,-0.18643658650682676,-0.037664417177438736,-0.09073576465832359,-0.06705887615680695,-0.029457049961041166,0.9934232850071397,-0.07058992757811756,right,-0.008303821086883545,-0.1207577181796054,-1.8045064594849942,-9.566532499369979,-0.0633214762568612,0.014122162014245987,-0.002787545323371887,1.1813518376085907,0.007986918091773987
1745971610713085700,11.678085693359375,-0.18924843986052073,0.0002636462450027466,-0.09214096452471193,-0.06279486417770386,-0.02959450967736343,0.9933170162921211,-0.0709509566906085,right,0.00976651906967163,-0.11977801176782435,-1.831615854076296,-9.562553074344992,-0.0628930863915673,0.045709289610385895,0.003929644823074341,1.171813609412685,-0.005840197205543518
1745971610753085700,11.718085693359376,-0.19077181864199533,0.014374303631484509,-0.09298213572348496,-0.012132339179515839,-0.029304331153389946,0.9933403294357519,-0.07017282030454045,right,0.011053323745727539,-0.116807741478685,-1.8468330046914516,-9.563127074840665,-0.06140486591457714,0.11652295291423798,0.01045997440814972,1.1428888359624891,-0.01366811990737915
1745971610793085700,11.758085693359375,-0.19054623397731169,0.035171281546354294,-0.09299598019296335,-0.0055579436011612415,-0.028559926685830395,0.9934721233753352,-0.06831859865046112,right,-0.0034379959106445312,-0.1133055628166508,-1.8454224072411656,-9.567415127423406,-0.05957650616499998,0.05040784180164337,0.0013012886047363281,1.108771243109554,0.006728731095790863
1745971610833085700,11.798085693359376,-0.1910258702464733,0.05895213782787323,-0.09327469138712817,-0.02888486161828041,-0.027521042188595107,0.9934520618350637,-0.06634850467289685,right,-0.0065004825592041016,-0.11425340918937535,-1.8498107053279875,-9.565492634928226,-0.05996214365845377,-0.0932789295911789,-0.0040337443351745605,1.118006323640421,0.011770136654376984
1745971610873085700,11.838085693359375,-0.1926672352744331,0.058969441801309586,-0.09406910620257332,-0.034695617854595184,-0.02635004016104785,0.993288998609658,-0.06449072497271179,right,0.0014300346374511719,-0.11832210417039121,-1.8646221977517008,-9.557899695581197,-0.061917357239852616,-0.03985654562711716,-0.003552749752998352,1.15763712695688,0.0050004348158836365
1745971610913085700,11.878085693359376,-0.19430177374229737,0.05898674577474594,-0.09486297121986531,-0.040506377816200256,-0.02517885267970688,0.9931200485936146,-0.06263869532678404,right,0.00934302806854248,-0.1223938157317896,-1.8793167857974766,-9.5501349067986,-0.0638722099547136,0.013565842062234879,-0.003083661198616028,1.1972780863411723,-0.0017702952027320862
1745971610953085700,11.918085693359375,-0.19451533335679727,0.027063798159360886,-0.09503058468742835,0.009181354194879532,-0.024163011941049844,0.9931302390845832,-0.060622085668121245,right,0.00045686960220336914,-0.12254881248258491,-1.8813203807048497,-9.549550969430804,-0.06385605032191483,0.016619345173239708,-0.004406958818435669,1.1987866642732172,0.014425083994865417
1745971610993085700,11.958085693359376,-0.19393486710273614,-0.012582022696733475,-0.09475732905021995,0.01877794973552227,-0.023976011939626434,0.9931654099340964,-0.06019980069208684,right,0.0011698603630065918,-0.12246413187213741,-1.8757963565863667,-9.550741055998206,-0.06378698714780771,-0.009597757831215858,-0.006218582391738892,1.1979624884087592,0.019460253417491913
1745971611033085700,11.998085693359375,-0.19347146084930167,-0.02143271639943123,-0.09447713676731488,0.007528212852776051,-0.024342431329783674,0.993139606833797,-0.06103562532295673,right,0.0033597350120544434,-0.12375550308156306,-1.8710713738910854,-9.550083468872309,-0.06446196273170894,-0.04307287186384201,-0.0050317347049713135,1.2105306588850915,0.007299110293388367
1745971611073085700,12.038085693359376,-0.19332919611732252,-0.021583499386906624,-0.09433048966031093,0.01236502081155777,-0.024779805636172932,0.9930673893309293,-0.06212625789134249,right,0.005954623222351074,-0.12597093572152873,-1.869192866668105,-9.54769394338727,-0.06561136657193457,-0.04519571736454964,-0.0020909756422042847,1.232087533915788,-0.0024899542331695557
1745971611113085700,12.078085693359375,-0.19260979180444726,-0.0517362542450428,-0.09390235932208245,0.03441683202981949,-0.02551435155738721,0.9930494375983184,-0.06366488399207906,right,0.004626870155334473,-0.12705453261101993,-1.8620669603109359,-9.547720246872306,-0.06621255796501034,-0.009873677045106888,0.003977641463279724,1.2426289478048682,-0.014709189534187317
1745971611153085700,12.118085693359374,-0.1904877300833515,-0.023370828479528427,-0.09281362430640872,0.056818507611751556,-0.02640872957739517,0.9931546896913809,-0.06523787663286158,right,-0.00734400749206543,-0.12616632191873725,-1.84201026071012,-9.552730183988809,-0.0658175666790518,0.0066833775490522385,-0.0010654926300048828,1.2339883991010487,-0.011337243020534515
1745971611193085700,12.158085693359375,-0.1898584030717077,0.02745446190237999,-0.09246541561264823,-0.02255355566740036,-0.026551917637254546,0.9931422812990801,-0.0656037755473092,right,-0.009890079498291016,-0.12739229271969477,-1.8357111605659127,-9.552394668424128,-0.06643472556774363,-0.08190254122018814,-0.005326360464096069,1.2459145453467964,-0.005987241864204407
1745971611233085700,12.198085693359374,-0.19140458289500728,0.10200941562652588,-0.09322807932010728,-0.06668086349964142,-0.025362703323260814,0.9929834430435867,-0.06367159697476421,right,-0.00524216890335083,-0.1310580679899596,-1.8495975009687244,-9.544996959388255,-0.06818454171796941,-0.07516129314899445,-0.003153279423713684,1.281563804746419,-0.01154201477766037
1745971611273086000,12.2380859375,-0.19371343477855973,0.13488657772541046,-0.09447788197053164,-0.06920173764228821,-0.022892973755995635,0.992840323498089,-0.059137354437652195,right,0.0010246634483337402,-0.13390296210803015,-1.8709210056349634,-9.537084871089458,-0.06941143002129853,-0.023659266531467438,-0.0017762184143066406,1.309218119869381,-0.00075511634349823
1745971611313085700,12.278085693359374,-0.194868155863555,0.1319555640220642,-0.09522914520290554,-0.008095253258943558,-0.020090872534751142,0.992821024153484,-0.05364651953163729,right,0.006012558937072754,-0.13463823152643303,-1.8817456203795968,-9.533971122983097,-0.06952829121402632,0.0012110620737075806,0.0024449676275253296,1.3163637538403272,0.015943899750709534
1745971611353085700,12.318085693359375,-0.1940700440324132,0.08322583138942719,-0.09496868460062831,0.012930994853377342,-0.01795035374665043,0.9928726736368744,-0.049361717705430276,right,0.0059947967529296875,-0.13547486743726123,-1.873922817799449,-9.534386133524775,-0.06973214654506128,0.007640886586159468,0.0001319795846939087,1.324493576543033,0.009659528732299805
1745971611393085700,12.358085693359374,-0.19343495769006025,0.058683060109615326,-0.0947540352256031,0.006622018292546272,-0.016534150281097774,0.9929273323959864,-0.04646594692134832,right,0.0042212605476379395,-0.1354895293882634,-1.8678635177604852,-9.535555177304149,-0.06959659614099835,0.0298916045576334,0.0018954873085021973,1.3246360537536441,-0.006785959005355835
1745971611433085700,12.398085693359375,-0.19373548061906154,0.05281712859869003,-0.09499500975753125,-0.015087781473994255,-0.015272213723667846,0.9929409546377529,-0.04392199915674334,right,-0.0009497404098510742,-0.1352548425637887,-1.8707889036878942,-9.535297987672687,-0.06936182761416312,0.0011922400444746017,0.0038719922304153442,1.3223556877315044,0.004146784543991089
1745971611473085700,12.438085693359374,-0.19483000870765785,0.04344405233860016,-0.09555421176505795,-0.028702519834041595,-0.014889070968609933,0.9928781684126915,-0.04327380304018538,right,-0.0030545592308044434,-0.1357298404566966,-1.881102500170469,-9.532627307158709,-0.06957495201997012,0.00741545669734478,0.00148753821849823,1.3269710725724697,0.003372371196746826
1745971611513085700,12.478085693359375,-0.19592426979906938,0.034070976078510284,-0.09611335371857072,-0.042317260056734085,-0.014505908451520954,0.9928148698300606,-0.04262606193376504,right,-0.005160868167877197,-0.13620552511944473,-1.8914095207817851,-9.529943182641267,-0.0697880322884303,0.013638673350214958,-0.0008976012468338013,1.3315928871542215,0.002597332000732422
1745971611553085700,12.518085693359374,-0.19701834301744056,0.02469789981842041,-0.09667245932610184,-0.055932000279426575,-0.014122752017689059,0.9927511896399641,-0.04197883862265211,right,-0.007268548011779785,-0.13668194503031228,-1.9017104039132593,-9.527245029598474,-0.07000108647951031,0.019861890003085136,-0.003283366560935974,1.3362215698681772,0.0018215775489807129
1745971611593085700,12.558085693359375,-0.19837101357015155,0.03947150707244873,-0.0974014181228527,-0.03183179348707199,-0.013445459619475672,0.9927202183314585,-0.04063163433867564,right,0.0031425952911376953,-0.13590843421910856,-1.9147990180671215,-9.525674419280886,-0.06956120926281179,0.03784697502851486,-0.001557663083076477,1.3287063719324768,-0.00443132221698761
1745971611633085700,12.598085693359375,-0.19905662231074217,0.04351809620857239,-0.09783046216544682,-0.02417508326470852,-0.01240097088510945,0.9927351749857161,-0.038468906740309526,right,0.000932157039642334,-0.1348563554979286,-1.9216048986896872,-9.52572410364151,-0.06893800127456676,0.021580897271633148,-0.0024533718824386597,1.3184833763428032,0.0006043761968612671
1745971611673085700,12.638085693359375,-0.19927827721572147,0.0378190241754055,-0.0980059625260779,-0.01742604747414589,-0.01178273454499162,0.9927793168321007,-0.037092915630417785,right,-0.000339508056640625,-0.13341519989241296,-1.9240904318951069,-9.527150921574234,-0.06815679793918303,0.046443916857242584,-0.0031463205814361572,1.3044775012135505,0.0032766014337539673
1745971611713085700,12.678085693359375,-0.19950190340166812,0.03211995214223862,-0.0981813646337961,-0.01067701168358326,-0.011164495168948399,0.9928224810943292,-0.03571688674720538,right,-0.0016137957572937012,-0.13197435572580868,-1.926591308800131,-9.528552605065704,-0.06737552678243867,0.07130693644285202,-0.003837674856185913,1.2904717722147703,0.005948811769485474
1745971611753085700,12.718085693359376,-0.19972744435234535,0.026420876383781433,-0.09835665585065625,-0.003927974961698055,-0.010546274042676463,0.9928645005341605,-0.03434084856233458,right,-0.0028905272483825684,-0.1305337815913083,-1.9291072371438145,-9.529929738637804,-0.06659417978692413,0.09616996347904205,-0.004527539014816284,1.2764661893464624,0.008620992302894592
1745971611793085700,12.758085693359375,-0.20033201350178115,0.025068242102861404,-0.09876235756724212,-0.0018639122135937214,-0.009809004690451612,0.9929662721717141,-0.03249777969084866,right,0.0068228840827941895,-0.12660991425367574,-1.9358501355327664,-9.533597028973698,-0.06455881168629217,0.13082252442836761,0.003007441759109497,1.2383037780821322,0.00601688027381897
1745971611833085700,12.798085693359376,-0.20005027963542807,0.02051003836095333,-0.09875446982387895,0.005823239218443632,-0.008954706051779083,0.9931553295467979,-0.03020385518976647,right,0.0005466938018798828,-0.12113151183125719,-1.9344832310937343,-9.540647532007098,-0.06172455404586156,0.15649209916591644,-0.00021670758724212646,1.1849907055675983,0.010753050446510315
1745971611873085700,12.838085693359375,-0.19990699034035914,0.02714940905570984,-0.09869311339585989,0.006056796759366989,-0.00846762154110693,0.9931203986547336,-0.029370084676687704,right,0.006054401397705078,-0.1226735131267148,-1.9327510004736481,-9.539122514396905,-0.06244834727468456,0.054368749260902405,-0.00008751451969146729,1.2000003509119153,-0.003249324858188629
1745971611913085700,12.878085693359376,-0.1997624054916139,0.0337887778878212,-0.09863168703155549,0.006290354300290346,-0.007980585685085596,0.9930847516787222,-0.028536044799710846,right,0.011560022830963135,-0.12421539837279251,-1.9310022571101784,-9.537577038520574,-0.06317209696008318,-0.047754593193531036,0.00003999471664428711,1.2150060507334768,-0.01725129783153534
1745971611953085700,12.918085693359375,-0.19961653957377992,0.040428150445222855,-0.09857019776259326,0.0065239123068749905,-0.007493551352730225,0.9930484251068994,-0.027701638436889997,right,0.017063498497009277,-0.12575718799813393,-1.9292372932642696,-9.536011104378103,-0.06389580619023523,-0.14987793564796448,0.00016584992408752441,1.230007805032283,-0.031252868473529816
1745971611993085700,12.958085693359376,-0.19817042857407102,0.03415164723992348,-0.09782863780302586,0.06274759024381638,-0.006974492667697984,0.9929793013948792,-0.027022302081052323,right,0.01454782485961914,-0.13033531282560593,-1.9143164952471852,-9.533170327994227,-0.06612989253438188,-0.10322947800159454,-0.004307642579078674,1.274536390327662,-0.002675577998161316
1745971612033085700,12.998085693359375,-0.19487066131676953,-0.016109127551317215,-0.0961816097967364,0.06096547469496727,-0.006972369766878858,0.9931007985887791,-0.026918559655205124,right,-0.014604032039642334,-0.13155451296053267,-1.8825465614989398,-9.53790320173502,-0.06671860946421687,0.012061215937137604,-0.011481449007987976,1.2863902019895612,0.027230411767959595
1745971612073085700,13.038085693359376,-0.19348547646105327,-0.035057783126831055,-0.09552838191936663,0.03038760833442211,-0.007705118640486128,0.9933550015672367,-0.02770420671585191,right,-0.011817395687103271,-0.12545998483178034,-1.8708057086922227,-9.548018353036046,-0.06372506852493323,0.14142915606498718,-0.0020029544830322266,1.2271163213744758,0.014014571905136108
1745971612113085700,13.078085693359375,-0.19209649298551867,-0.05400644242763519,-0.09487419688386957,-0.00019025802612304688,-0.008437821952400514,0.993599214334903,-0.028497827811934134,right,-0.009067773818969727,-0.11936652642260671,-1.8589349458955227,-9.557769931721687,-0.060730889625516385,0.27079710364341736,0.007462337613105774,1.1678070771850644,0.0008023306727409363
1745971612153085700,13.118085693359374,-0.19204130917742412,-0.035056307911872864,-0.09495387932620637,-0.036569710820913315,-0.008835730449262677,0.9938891454382824,-0.028292078563555957,right,-0.009210944175720215,-0.10903713103028229,-1.8606106240227818,-9.569203764405845,-0.05558928522626163,0.3041721284389496,0.0048028528690338135,1.0671706010248512,-0.018527954816818237
1745971612193085700,13.158085693359375,-0.1939767035387539,0.014722999185323715,-0.09605569624668783,-0.09837585687637329,-0.008588836745347677,0.994075764143732,-0.02683871992549978,right,-0.0160863995552063,-0.09817190305602524,-1.8812515532523393,-9.576397475302219,-0.05012912684807311,0.27002498507499695,0.0008368343114852905,0.9611910102710127,-0.02061840146780014
1745971612233085700,13.198085693359374,-0.19806058409094848,0.05383109673857689,-0.0982038782158944,-0.1318821758031845,-0.007345986762233459,0.9940192056716197,-0.02397945823712134,right,-0.004369199275970459,-0.09252507553166125,-1.9213819035887718,-9.573803951677679,-0.04720025735557596,0.014094680547714233,-0.0034797340631484985,0.906066139094159,0.008743822574615479
1745971612273086000,13.2380859375,-0.20253589226880014,0.08741359412670135,-0.1004718389628562,-0.10460629314184189,-0.005987012163985994,0.9937701019326185,-0.021613694851928444,right,0.018714070320129395,-0.09405816689909502,-1.9639266215905546,-9.563737315693498,-0.04785945586723289,-0.04004137963056564,-0.0009286552667617798,0.9210352332323789,-0.01771146059036255
1745971612313085700,13.278085693359374,-0.20403113915527155,0.09900323301553726,-0.1012917070003592,-0.012723132967948914,-0.004021518174904544,0.9936646910602743,-0.017904514447442142,right,0.00752413272857666,-0.09575786535206326,-1.9779044396691023,-9.559242926883696,-0.04852053370016748,-0.023260189220309258,-0.008675441145896912,0.9376285675715654,0.0013380274176597595
1745971612353085700,13.318085693359375,-0.20421224155661288,0.06529238820075989,-0.1014494728899174,-0.005665600299835205,-0.0024360060723656227,0.9936352174213523,-0.01483277347927004,right,-0.004501640796661377,-0.09683435321398759,-1.9794297495402395,-9.557890927752853,-0.04889991382107764,-0.01744195632636547,-0.010609269142150879,0.948136444517225,0.011382214725017548
1745971612393085700,13.358085693359374,-0.204567391327552,0.02438739314675331,-0.10167233469830682,-0.023056339472532272,-0.0015557607250983264,0.9936292290330766,-0.013033800355680105,right,-0.011316359043121338,-0.09640063090443349,-1.9829075086534023,-9.557589314457774,-0.048593450792812354,0.029607584699988365,-0.007350951433181763,0.9439028986006974,0.0127788707613945
1745971612433085700,13.398085693359375,-0.20538926819773337,0.020454907789826393,-0.10210319735987976,0.005342328920960426,-0.0011195987002926163,0.9935944489137315,-0.012167548807004889,right,0.010274529457092285,-0.09612492466520302,-1.9908149207770822,-9.556210427320003,-0.04841290627084185,0.010145412757992744,0.0050373375415802,0.941211613690108,-0.00545472651720047
1745971612473085700,13.438085693359374,-0.20324289369075682,0.05774672329425812,-0.10107752010451507,0.11671417951583862,-0.0003631639346082412,0.9937082692233509,-0.010522282081688178,right,0.02628922462463379,-0.09594646600007103,-1.970333127631992,-9.560625905674696,-0.04823988220686349,0.0198243148624897,0.01429547369480133,0.9394696653936058,-0.01845630258321762
