time,seconds_elapsed,roll,rotationRateZ,quaternionY,rotationRateY,quaternionZ,quaternionW,yaw,devicelocation,accelerationZ,pitch,gravityX,gravityZ,quaternionX,rotationRateX,accelerationX,gravityY,accelerationY
1745971742924953000,0.485953125,-1.668588561127141,-0.037030190229415894,7.627798898142053e-17,0.030869293957948685,-0.6453706873028472,-0.19151354770959209,2.880900421420522,right,-1.0802414417266846,0.287168565147362,-9.36012788324952,0.9182783357396721,-0.7394721699039254,-0.022129476070404053,0.8504219651222229,-2.777614994303882,0.3611994981765747
1745971742964952800,0.525952880859375,-0.9180998247399885,-0.006177512928843498,0.018120982052383102,0.010121617466211319,-0.895326824087346,-0.04523681287030382,3.044387734467231,right,-0.38525182008743286,0.007607586058307898,-7.790658552390337,-5.955707562541961,-0.44273582460373223,-0.002106230705976486,0.6915489435195923,-0.07460417274851351,0.08542821556329727
1745971743004952800,0.565952880859375,-0.13182646044799853,0.024675166234374046,0.03312051715943022,-0.010626060888171196,-0.9910577909143465,0.1088322561332177,-2.9281847669513748,right,-0.01044684648513794,-0.08091593198989434,-1.2848178381063042,-9.689754389891029,-0.06973562016354959,0.01791701652109623,0.029306232929229736,0.7926488726202398,-0.003147795796394348
1745971743044953000,0.605953125,-0.11364105769495485,0.038265444338321686,0.03320656872007753,-0.015849757939577103,-0.9911931103494495,0.11285641930863699,-2.91938298303866,right,-0.0051863789558410645,-0.07963610780041813,-1.1085171952832489,-9.712515672275423,-0.060801663464827946,0.007335006259381771,0.012966670095920563,0.7801384967457503,0.00003742426633834839
1745971743084953000,0.645953125,-0.10452311983677953,0.04886956512928009,0.03258679616898824,-0.03576623648405075,-0.9912238612019625,0.11510284676786096,-2.914447003350224,right,-0.003277719020843506,-0.07762952758041142,-1.0200754531770944,-9.723756612735986,-0.056253868699484164,-0.014802095480263233,0.0009297579526901245,0.7605215037364512,0.005520731210708618
1745971743124953000,0.685953125,-0.10102494802193744,0.04134788364171982,0.03335319294892359,-0.044440001249313354,-0.9911161548815941,0.1165774854732265,-2.91141644850795,right,0.0033075809478759766,-0.07893607017742472,-0.9859528918880969,-9.726268303295969,-0.05464324920158996,-0.007502027787268162,-0.0048510730266571045,0.7732950605917721,0.0013568177819252014
1745971743164953000,0.725953125,-0.10169859049854874,0.02372662164270878,0.033726661349929486,-0.006089650094509125,-0.9910218228540234,0.1170827020609789,-2.910460554235135,right,0.006411194801330566,-0.07982163087866864,-0.9924348012533039,-9.724916888687014,-0.055043055070885444,-0.009829851798713207,-0.004185095429420471,0.7819521220389754,0.009291909635066986
1745971743204952800,0.765952880859375,-0.10260742177376261,-0.004117373377084732,0.03396115103808481,0.00870826281607151,-0.9909711764943601,0.11721377356895961,-2.9102546041960164,right,0.005341947078704834,-0.08041351802435749,-1.0012250606261193,-9.723548522943258,-0.05553032976458743,-0.0033898837864398956,-0.003657236695289612,0.7877379388988017,0.009631238877773285
1745971743244952800,0.805952880859375,-0.10313805065053563,-0.02087598666548729,0.03500950377256521,0.00935042928904295,-0.9909535914366784,0.11687824454307763,-2.9110500175310836,right,0.0017278194427490234,-0.08254626468156277,-1.0062092787794767,-9.721322663587332,-0.05589990763186335,-0.010449307039380074,-0.0013325586915016174,0.808583596920222,0.004506856203079224
1745971743284952800,0.845952880859375,-0.10392518489938414,-0.0017986297607421875,0.03564057218485749,-0.00824964139610529,-0.9909164654153859,0.11678045313893787,-2.9113388446806914,right,-0.0016847848892211914,-0.08389570944578857,-1.0137468346774579,-9.719434073361754,-0.05636075033189416,-0.005933863576501608,-0.00031231343746185303,0.8217713605996221,0.0011947005987167358
1745971743324953000,0.885953125,-0.10471280815238357,0.017278729006648064,0.03627162060272537,-0.025849714875221252,-0.990878777101926,0.1166826573746096,-2.911628675907882,right,-0.005099892616271973,-0.08524494381234601,-1.0212849750973283,-9.717520933216809,-0.056821561594060745,-0.0014184205792844296,0.0007079914212226868,0.8349555440824479,-0.0021171048283576965
1745971743364953000,0.925953125,-0.1056949565260845,-0.0013066083192825317,0.03595931833745013,-0.026327017694711685,-0.9908451798757827,0.11683704280134491,-2.911329073626902,right,-0.0035133957862854004,-0.08474781403829261,-1.0308721570014954,-9.71692472088933,-0.057285642479526604,-0.0020082411356270313,0.00018140673637390137,0.8300979479834437,-0.0006650984287261963
1745971743404953000,0.965953125,-0.10667722516734622,-0.019891945645213127,0.03564700422431292,-0.026804322376847267,-0.9908113678903862,0.11699142024450063,-2.911029014760245,right,-0.0019281506538391113,-0.08425099068363104,-1.0404600695580244,-9.716316233602166,-0.05774970441087131,-0.002598061691969633,-0.00034509599208831787,0.8252432014286517,0.0007866173982620239
1745971743444953000,1.005953125,-0.10751637829556102,-0.03379238396883011,0.03561276493059885,-0.02394208312034607,-0.990832717808451,0.1166222513572602,-2.9118036495891086,right,0.0007572770118713379,-0.08423551185647314,-1.0486145883105695,-9.715452310249209,-0.058150758057169405,-0.00203655450604856,-0.00028219074010849,0.8250918833244592,-0.0013559237122535706
1745971743484952800,1.045952880859375,-0.10835549428905408,-0.04769282042980194,0.03557851006292683,-0.021079842001199722,-0.9908536889960803,0.11625303530534022,-2.91257823624714,right,0.003442108631134033,-0.0842193662928365,-1.0567680110845714,-9.714582541677355,-0.05855178629421001,-0.0014750473201274872,-0.00021938234567642212,0.82493413547948,-0.0034978166222572327
1745971743524952800,1.085952880859375,-0.10867990718644606,-0.04410577565431595,0.035656036429108764,-0.000747406855225563,-0.9909254716550222,0.11554405027807021,-2.9140262738580254,right,0.00424957275390625,-0.08432806296724087,-1.0599098162416367,-9.714149995478987,-0.058692780378769564,0.0017412013839930296,-0.0006449893116950989,0.8259962848182767,-0.004330545663833618
1745971743564953000,1.125953125,-0.10841121406679338,-0.023422669619321823,0.035482088493308986,-0.00044177332893013954,-0.9910137301058856,0.11492987227060188,-2.915233690126102,right,0.0005451440811157227,-0.0838745815541481,-1.0573400388188658,-9.714805829039216,-0.058513073889242005,0.0006615896709263325,-0.0027234405279159546,0.8215648782420903,-0.005147784948348999
1745971743604953000,1.165953125,-0.10814199425435793,-0.002739565446972847,0.03530812900723498,-0.0001361398317385465,-0.9911015590382434,0.11431567829597455,-2.916441124854456,right,-0.0031595230102539062,-0.08342143916168594,-1.0547646353729068,-9.715458739989995,-0.0583333482628016,-0.0004180219257250428,-0.00480247288942337,0.8171366134710609,-0.005965344607830048
1745971743644953000,1.205953125,-0.1081740156968028,0.00039471243508160114,0.03521667195537949,0.005364397540688515,-0.9911052854814096,0.11430933205542246,-2.9164461755805613,right,-0.0008620023727416992,-0.083240379677451,-1.0550917484354227,-9.715572137236595,-0.05833917970680264,-0.009306364692747593,-0.0013101771473884583,0.8153671926457434,-0.0016274675726890564
1745971743684953000,1.245953125,-0.1081740156968028,-0.008053812198340893,0.03521667195537949,0.0049006822519004345,-0.9911052854814096,0.11430933205542246,-2.9164461755805613,right,-0.00005549192428588867,-0.083240379677451,-1.0550917484354227,-9.715572137236595,-0.05833917970680264,-0.007492785807698965,-0.00032251328229904175,0.8153671926457434,-0.00012508779764175415
1745971743724952800,1.285952880859375,-0.1081740156968028,-0.008176243863999844,0.03521667195537949,-0.004749820102006197,-0.9911052854814096,0.11430933205542246,-2.9164461755805613,right,-0.0001461505889892578,-0.083240379677451,-1.0550917484354227,-9.715572137236595,-0.05833917970680264,-0.00018796464428305626,-0.002482198178768158,0.8153671926457434,-0.002573832869529724
1745971743764952800,1.325952880859375,-0.10889698470461658,0.00854681059718132,0.035032076815577594,0.008917409926652908,-0.9911260699851157,0.11401633815393535,-2.917046907509441,right,0.002166748046875,-0.08291585820839302,-1.0621442242302,-9.715069448411464,-0.058669106301018445,0.005725836381316185,-0.0016300156712532043,0.8121957230027764,-0.0011848360300064087
1745971743804953000,1.365953125,-0.10889698470461658,0.0190226249396801,0.035032076815577594,0.010101263411343098,-0.9911260699851157,0.11401633815393535,-2.917046907509441,right,0.0011343955993652344,-0.08291585820839302,-1.0621442242302,-9.715069448411464,-0.058669106301018445,-0.010281050577759743,-0.0034544840455055237,0.8121957230027764,-0.0013008564710617065
1745971743844953000,1.405953125,-0.10856774487741157,0.043775856494903564,0.035372772095901485,-0.006698795594274998,-0.9910086537021104,0.11497342264358917,-2.9151417069629697,right,0.00010257959365844727,-0.08367766850817016,-1.0588782081715762,-9.71480056834221,-0.05858138647448815,-0.023518666625022888,-0.0007054954767227173,0.8196406321812421,0.001077696681022644
1745971743884953000,1.445953125,-0.10891865680653372,0.04226884990930557,0.03578365106267297,-0.012824676930904388,-0.990879577894412,0.11582406761121976,-2.913485474815856,right,-0.001279294490814209,-0.08464541654896436,-1.0622004844620823,-9.713635616216063,-0.05883835865674997,-0.017936768010258675,-0.0007554441690444946,0.8290973926387727,0.002480030059814453
1745971743924953000,1.485953125,-0.10926799540983125,0.04076184332370758,0.03619449521122833,-0.018950557336211205,-0.990749611852181,0.11667462985646183,-2.911829439423088,right,-0.002662181854248047,-0.08561375156342287,-1.065505663487315,-9.712461311739682,-0.05909527353108518,-0.012354869395494461,-0.0008071139454841614,0.8385591215323657,0.0038818493485450745
1745971743964952800,1.525952880859375,-0.11017528434580698,0.023166971281170845,0.036734121303949235,-0.019205136224627495,-0.9906015013878651,0.11748016642052726,-2.910300813139022,right,-0.00039452314376831055,-0.08690127537218026,-1.074197650117427,-9.710409055384993,-0.05964491011344711,-0.02384433150291443,-0.0017548725008964539,0.8511384709898382,0.0022013336420059204
1745971744004952800,1.565952880859375,-0.11074127941966161,0.024549735710024834,0.03705566792810014,-0.0019907988607883453,-0.9905274848698894,0.11783272055787565,-2.9096480505094333,right,0.0063021183013916016,-0.0876567186853449,-1.079622159384191,-9.709157594019175,-0.05997991038218009,-0.018939422443509102,0.0002548694610595703,0.858518644369021,0.0018239468336105347
1745971744044953000,1.605953125,-0.11043375947195191,0.009824163280427456,0.03782865290359882,0.007956231012940407,-0.9904469394208909,0.11828658807931372,-2.908798960235443,right,0.002408921718597412,-0.08923136926642962,-1.07648605331555,-9.708133511668443,-0.05993264364307703,-0.03254764899611473,-0.0021366700530052185,0.8739003378961234,0.004088848829269409
1745971744084953000,1.645953125,-0.10951478064841459,-0.0000354452058672905,0.0386995681604048,0.026295753195881844,-0.9904381302283176,0.11826233978077684,-2.9088941812084865,right,0.003389120101928711,-0.09087356905131946,-1.0674057249549775,-9.707679338160156,-0.059568804593887976,-0.03130133077502251,-0.0009168684482574463,0.8899395454838871,0.001155555248260498
1745971744124953000,1.685953125,-0.10832436697839883,-0.016059018671512604,0.03900247414921042,0.028245065361261368,-0.9905162299747851,0.11780039121806225,-2.9098007061883187,right,0.0012711882591247559,-0.09128885507551711,-1.0558087375983596,-9.708574825695157,-0.05898514204905914,-0.02518681436777115,-0.0002936124801635742,0.8939952506154775,0.0013641640543937683
1745971744164953000,1.725953125,-0.1071343217905163,-0.03208259493112564,0.0393053594492281,0.03019437938928604,-0.9905938066101848,0.11733827432397714,-2.910707030971152,right,-0.0008484721183776855,-0.09170522544415001,-1.0442144536554814,-9.709453362095356,-0.05840144849289265,-0.01907229609787464,0.00032991915941238403,0.8980613310106098,0.0015717223286628723
1745971744204952800,1.765952880859375,-0.10594455076531152,-0.04810617119073868,0.03960821196459966,0.032143693417310715,-0.9906705358155437,0.11687625826923552,-2.911612409037382,right,-0.002969801425933838,-0.09212265704336496,-1.0326219963435084,-9.710315531882642,-0.057817705123603715,-0.012957777827978134,0.0009536445140838623,0.9021377136040478,0.0017782226204872131
1745971744244952800,1.805952880859375,-0.10498799022675186,-0.040154654532670975,0.039826781269392576,0.006577678956091404,-0.9908149396966016,0.11582110238905484,-2.9137138832882785,right,-0.009084761142730713,-0.09232932298422586,-1.0233134121850131,-9.711112819740176,-0.05731364503558556,-0.001213999930769205,0.0031672120094299316,0.9041557754281908,0.0005601495504379272
1745971744284952800,1.845952880859375,-0.10531023672762012,-0.03463144600391388,0.03965314928840477,-0.016720309853553772,-0.990871140769819,0.11534035774103663,-2.9146797942212133,right,-0.0046675801277160645,-0.09196072533349502,-1.0264777214348315,-9.711113404262065,-0.057433679994340264,0.02238483540713787,0.007147558033466339,0.9005564357619732,-0.00019559264183044434
1745971744324953000,1.885953125,-0.10609257403713762,-0.0239671990275383,0.03875550086469894,-0.02211758680641651,-0.9909764689778358,0.11460831839291657,-2.9161021854271754,right,-0.0008467435836791992,-0.09015811722433582,-1.0342449944354593,-9.71190601594448,-0.05769409559551986,0.03790031373500824,0.0028648823499679565,0.8829520977493375,-0.00007181614637374878
1745971744364953000,1.925953125,-0.10631988824316001,-0.00473763607442379,0.038179729440804645,-0.008645646274089813,-0.9910132584946244,0.11446106574426997,-2.91635291156619,right,0.002350926399230957,-0.08900840223997077,-1.0365597011186183,-9.712673493185639,-0.057738779664270906,0.02757328748703003,0.0029450654983520508,0.8717224824003875,-0.0032263100147247314
1745971744404953000,1.965953125,-0.10652112548109018,0.01408800482749939,0.037606674554790165,-0.010623978450894356,-0.9910038285333712,0.11470672273784502,-2.915811656650914,right,0.00595778226852417,-0.0879072923636247,-1.0386156107351183,-9.713413497897982,-0.057788239348566195,0.020586147904396057,0.003819800913333893,0.860966475912556,-0.00527634471654892
1745971744444953000,2.005953125,-0.10588615024986184,0.02342882566154003,0.03755472184585582,0.024035809561610222,-0.9909655088510176,0.11520530351070407,-2.914775650643765,right,0.002401888370513916,-0.08778910213152763,-1.0324584032796322,-9.714172207310796,-0.057486561208826115,-0.006005644798278809,-0.00007136911153793335,0.8598118990499526,0.004273109138011932
1745971744484952800,2.045952880859375,-0.10552587609257598,0.0072613488882780075,0.03816753158878851,0.017152000218629837,-0.9909367661333539,0.11530564222518287,-2.914617010998506,right,0.0016079545021057129,-0.08899256573257781,-1.0288488344803453,-9.713507021400332,-0.05737761805364996,-0.0248725488781929,-0.0004957914352416992,0.8715677302300929,0.003826439380645752
1745971744524952800,2.085952880859375,-0.10516534479217292,-0.008906131610274315,0.03878032484020339,0.010268192738294601,-0.9909074923210435,0.11540602736754382,-2.9144576479863953,right,0.0008124113082885742,-0.09019596933752111,-1.0252359046801924,-9.712827222442627,-0.057268650052848376,-0.043739452958106995,-0.0009205564856529236,0.8833218078445643,0.0033799558877944946
1745971744564953000,2.125953125,-0.10490081959550367,-0.013888477347791195,0.03999025120927274,0.008894652128219604,-0.9908977095196336,0.11508445272412066,-2.9152083221757623,right,-0.00002181529998779297,-0.09256260158930767,-1.022444812656939,-9.7109924082309,-0.05725354026391835,-0.035824038088321686,-0.00029764324426651,0.9064336572322994,0.0013566091656684875
1745971744604953000,2.165953125,-0.10457540207265248,-0.00957056786864996,0.04043586570570034,0.014560166746377945,-0.9909014411002021,0.11495603757508317,-2.915494099149027,right,-0.0002244114875793457,-0.0934072748765421,-1.019204369430989,-9.710559277510642,-0.05713310371326245,-0.030189961194992065,0.0008932128548622131,0.9146813341610133,0.00175417959690094
1745971744644953000,2.205953125,-0.10378303180408155,0.007892691530287266,0.04129507890905449,0.0216419268399477,-0.9908947426425335,0.11486166021628445,-2.915728159560562,right,-0.0037485361099243164,-0.09503524135054009,-1.0113540212567895,-9.709870126202702,-0.05682530540911057,-0.025104958564043045,0.002687126398086548,0.9305754341896623,-0.009543918073177338
1745971744684953000,2.245953125,-0.10310864939973724,0.01814163848757744,0.04151114593679318,0.004738107323646545,-0.9908641403878212,0.11519447154162861,-2.9150466252732867,right,-0.004123091697692871,-0.0954318267370056,-1.004767628603801,-9.710182260891795,-0.056527137614702024,0.0033321743831038475,0.0025076866149902344,0.9344469418607652,-0.005713187158107758
1745971744724952800,2.285952880859375,-0.10351793039408647,0.015283782035112381,0.04153882351499594,-0.004807343706488609,-0.9908210932741638,0.11544552904345731,-2.9145630275870635,right,-0.0026103854179382324,-0.09556288720200691,-1.0087290065154433,-9.70964800788462,-0.05674718506860622,-0.00610404834151268,0.0022366344928741455,0.9357263872120529,-0.004382528364658356
1745971744764952800,2.325952880859375,-0.10392718484529939,0.012425924651324749,0.04156650109319935,-0.014352794736623764,-0.9907780969485769,0.1156965553477655,-2.9140796238581275,right,-0.0010979771614074707,-0.09569416719052996,-1.0126899460356682,-9.709112001311778,-0.056967232522508765,-0.015540271997451782,0.0019655004143714905,0.9370078783899545,-0.003052055835723877
1745971744804953000,2.365953125,-0.10433634680902758,0.009568067267537117,0.04159416617877202,-0.02389824576675892,-0.9907348546662161,0.11594752288042365,-2.913596264673162,right,0.000414431095123291,-0.09582560952120489,-1.0166495703816414,-9.708574241173267,-0.05718726141835306,-0.024976495653390884,0.0016942620277404785,0.9382909770030528,-0.0017217695713043213
1745971744844953000,2.405953125,-0.10502300984732134,0.02051030658185482,0.04210171664010251,-0.01802293211221695,-0.990638009509096,0.11638328220369336,-2.912799533259284,right,-0.0011255741119384766,-0.09697627033544969,-1.0232019876997918,-9.706793787497281,-0.05760801484081093,-0.01694284752011299,-0.0005591511726379395,0.9495227112438529,-0.0015249103307724
1745971744884953000,2.445953125,-0.10548864004761109,0.021044954657554626,0.04228736116026559,-0.01994279772043228,-0.9905809474738749,0.11666869087516236,-2.912264834069439,right,-0.000742495059967041,-0.09743674861222097,-1.0276755529172719,-9.705880764305592,-0.057875583401214556,-0.01317878719419241,0.00002279132604598999,0.9540171731188892,-0.000802159309387207
1745971744924953000,2.485953125,-0.10621414972442503,0.014729578979313374,0.04254413850102658,-0.01818116195499897,-0.9904985714449768,0.117068560890172,-2.911519117744795,right,2.980232238769531e-7,-0.09808413624122117,-1.0346513102140278,-9.704516490215063,-0.05828689295822882,-0.017409678548574448,-0.000037476420402526855,0.9603355624854564,0.00011241436004638672
1745971744964952800,2.525952880859375,-0.10671415736142621,0.006839478388428688,0.04297175100156948,-0.0205601267516613,-0.9904477604941583,0.11719070973218579,-2.911338454386866,right,0.0000016093254089355469,-0.09901680980597458,-1.0394076378956436,-9.703103116285801,-0.058590570689616976,-0.04325605183839798,-0.0003492683172225952,0.9694375912211834,0.0010471343994140625
1745971745004952800,2.565952880859375,-0.10780056949878045,0.007536591961979866,0.04414504294358781,-0.025516502559185028,-0.9903401419613163,0.11732264105026913,-2.911239702788941,right,0.00015532970428466797,-0.10151910255191135,-1.049684336433932,-9.699525842320918,-0.059270733785650107,-0.05900125950574875,-0.000913567841053009,0.9938534358795732,-0.0003031790256500244
1745971745044953000,2.605953125,-0.10873572816752435,0.013358201831579208,0.04522185363141037,-0.01676533743739128,-0.9902265798882904,0.11756594895880786,-2.9109016747901912,right,0.001509249210357666,-0.10382360321891317,-1.0585030912488698,-9.696237322169543,-0.05987029380820714,-0.04583844915032387,-0.001190483570098877,1.0163338554959744,-0.0010690614581108093
1745971745084953000,2.645953125,-0.10899364628344065,0.003453523851931095,0.045545971741276524,-0.010837986133992672,-0.9901988516976683,0.11759004665506048,-2.910898053848483,right,0.0007630586624145508,-0.10450864549609856,-1.0609279072429985,-9.695269938442111,-0.06003641619034755,-0.028110546991229057,-0.0012265890836715698,1.0230153790865093,0.002503611147403717
1745971745124953000,2.685953125,-0.10899364628344065,-0.006451154127717018,0.045545971741276524,-0.00491063529625535,-0.9901988516976683,0.11759004665506048,-2.910898053848483,right,0.00011551380157470703,-0.10450864549609856,-1.0609279072429985,-9.695269938442111,-0.06003641619034755,-0.010382644832134247,-0.0015099570155143738,1.0230153790865093,0.00675760954618454
1745971745164953000,2.725953125,-0.10922393597191574,-0.034979090094566345,0.04613980978572986,-0.011854459531605244,-0.9902081702998715,0.11719741953285447,-2.911758690642744,right,-0.002317667007446289,-0.10568233962666918,-1.0630289711754768,-9.693825000330806,-0.060196260575482975,-0.014337899163365364,-0.0013071224093437195,1.0344619251217693,0.008810006082057953
1745971745204952800,2.765952880859375,-0.10936030425562952,-0.03541595861315727,0.046445959820221566,-0.00852031446993351,-0.9902659260635344,0.1165520328541998,-2.9130954287193345,right,-0.00185394287109375,-0.1062350955048281,-1.0642883235868066,-9.693110130059718,-0.06026355225323886,-0.012575259432196617,-0.0009871646761894226,1.0398521667927503,0.005140997469425201
1745971745244952800,2.805952880859375,-0.10949742576516279,-0.0358528271317482,0.046752085991666956,-0.005186169408261776,-0.9903231703231004,0.11590661061783593,-2.914432274879623,right,-0.0013906359672546387,-0.10678767366032679,-1.065554471065104,-9.692391168135403,-0.06033081486950249,-0.010812620632350445,-0.0006665065884590149,1.0452404357023537,0.00147218257188797
1745971745284953000,2.845953125,-0.11016220222994304,-0.009107425808906555,0.04700835019405775,-0.011521748267114162,-0.990357667317419,0.11533552965848615,-2.9156425622804,right,-0.0020092129707336426,-0.10730854194093134,-1.0719375231657176,-9.691138537725806,-0.06066021138126705,-0.007243316620588303,-0.0009259358048439026,1.0503191272061319,-0.0009307041764259338
1745971745324953000,2.885953125,-0.11100218595473851,-0.006690965965390205,0.046867585417739825,-0.011108907870948315,-0.9903553581374677,0.11520229103566966,-2.9159413252138604,right,0.0002300739288330078,-0.10710381058338365,-1.0801013212032615,-9.690448217374087,-0.06105794648537741,0.0005969945341348648,-0.0006033554673194885,1.0483229849528521,0.0007236301898956299
1745971745364953000,2.925953125,-0.11141865815531882,-0.013567013666033745,0.04693802155020195,-0.004050710704177618,-0.9903664878787269,0.11496965020493012,-2.9164387774511438,right,0.0014004707336425781,-0.10726362060707252,-1.0841184478901327,-9.689830962258577,-0.06126123339465591,-0.006807290483266115,-0.000430084764957428,1.049881174180284,0.0012426748871803284
1745971745404953000,2.965953125,-0.11183524203175638,-0.020443061366677284,0.04700845688910212,0.0030074864625930786,-0.990377586422466,0.11473695858612011,-2.9169364281381447,right,0.0025706887245178223,-0.1074232355685244,-1.0881362321641295,-9.689211953577399,-0.06146452079139631,-0.01421157643198967,-0.0002567470073699951,1.0514374637115746,0.0017619132995605469
1745971745444953000,3.005953125,-0.11176883069731697,-0.02158941701054573,0.047103133573406314,0.0125200767070055,-0.9904157474921562,0.11439083010891458,-2.9176392380577925,right,0.0023273229598999023,-0.10756304927222153,-1.0874763800159095,-9.689137719297408,-0.06142268885849366,-0.005330323241651058,-0.00009341537952423096,1.05280064182356,0.001295827329158783
1745971745484952800,3.045952880859375,-0.11176883069731697,-0.022735774517059326,0.047103133573406314,0.022032666951417923,-0.9904157474921562,0.11439083010891458,-2.9176392380577925,right,0.002091526985168457,-0.10756304927222153,-1.0874763800159095,-9.689137719297408,-0.06142268885849366,0.003550930880010128,0.00013720989227294922,1.05280064182356,0.00096873939037323
1745971745524952800,3.085952880859375,-0.11120693758909224,-0.011887365952134132,0.047140082618823964,0.00859032105654478,-0.9905007479541007,0.11380243697542759,-2.9187974713661373,right,-0.001713097095489502,-0.1075013108766245,-1.082039157398045,-9.689811673036218,-0.061113802207020965,0.0018722922541201115,-0.00019407272338867188,1.052198657342419,0.0015458762645721436
1745971745667128000,3.228128173828125,-0.1112076725081859,0.0061820512637495995,0.04710106421999159,-0.0076096937991678715,-0.9905351324174864,0.11352941949577039,-2.919343226399579,right,0.0002174939145334065,-0.1073890257821055,-1.0820593234032392,-9.689928577414154,-0.06109525682546447,0.007763849105685949,0.0021925424225628376,1.0511039209082722,0.0029149430338293314
1745971745707051300,3.26805126953125,-0.11118725610092933,0.0014782100915908813,0.047022140837727676,-0.00004206574521958828,-0.9905278445600045,0.11363245818303534,-2.9191268286793686,right,0.0006843873998150229,-0.10724077097575795,-1.0818787792045623,-9.69010510302484,-0.061082258158853986,0.008608545176684856,-0.0005508792819455266,1.0496583982750773,0.0019991290755569935
1745971745906675700,3.46767578125,-0.10989435791099683,0.0037843440659344196,0.04693104818055977,0.004744752310216427,-0.9905639137892417,0.11370438705105788,-2.9189045624364582,right,-0.0008364460081793368,-0.10692232594188551,-1.069386158182472,-9.691827689033746,-0.06042997848841089,0.0011458757799118757,0.0005912852939218283,1.0465533449318258,0.0009263304527848959
1745971745946675700,3.50767578125,-0.109846356580894,0.003993305843323469,0.04688227631701512,0.0011022700928151608,-0.9905573269523857,0.11379524323352988,-2.918714355317488,right,-0.0011013150215148926,-0.1068300093354207,-1.0689315462827682,-9.691974988549948,-0.06040568120472517,0.005531962960958481,0.000409148633480072,1.0456532542869448,-0.00022810697555541992
1745971745986676000,3.547676025390625,-0.109846356580894,0.007462016306817532,0.04688227631701512,0.0021360868122428656,-0.9905573269523857,0.11379524323352988,-2.918714355317488,right,-0.0012636184692382812,-0.1068300093354207,-1.0689315462827682,-9.691974988549948,-0.06040568120472517,0.0031595404725521803,0.00044895708560943604,1.0456532542869448,-0.0009493008255958557
1745971746026676000,3.587676025390625,-0.1098067883973042,0.009735302068293095,0.04682436199582285,0.0021169509273022413,-0.99052784406114,0.11408147862878382,-2.9181303805413323,right,0.0005248785018920898,-0.10674419606386713,-1.0685578906647861,-9.692106505975127,-0.06039512298925968,0.0012875829124823213,0.000947222113609314,1.0448165112018584,-0.0018779560923576355
1745971746066676000,3.627676025390625,-0.1098067883973042,0.012008588761091232,0.04682436199582285,0.0020978152751922607,-0.99052784406114,0.11408147862878382,-2.9181303805413323,right,0.0023000240325927734,-0.10674419606386713,-1.0685578906647861,-9.692106505975127,-0.06039512298925968,-0.0005843747640028596,0.0014835894107818604,1.0448165112018584,-0.002891942858695984
1745971746226067000,3.78706689453125,-0.11067249491126056,-0.009680140763521194,0.04686162595972164,-0.016086917370557785,-0.9903879886108065,0.11501695121791114,-2.9162964413391186,right,0.002571200719103217,-0.10703164296676713,-1.076914800121635,-9.690879010006785,-0.060882425838761564,-0.004620198160409927,0.001333160325884819,1.0476192936629056,0.00044122300460003316
1745971746385762600,3.946762451171875,-0.11078085741000597,0.0011669477680698037,0.046624053439736454,0.0005684769130311906,-0.9904158105623647,0.11486261576303017,-2.9165892368495547,right,-0.002730404492467642,-0.1065467862328966,-1.0780209347326308,-9.691265963497758,-0.06090280458456978,0.010437493212521076,0.0004553813487291336,1.042891534488648,-0.0027561397291719913
1745971746425685500,3.986685546875,-0.1108835180377534,0.0020935896318405867,0.04643781556551693,-0.0065035270527005196,-0.9904207411229569,0.11487861393897528,-2.916543898144221,right,-0.001365202246233821,-0.10618564569871097,-1.0790574381735176,-9.691528998348117,-0.06093501139295293,0.006698785349726677,0.0002276906743645668,1.039370009298995,-0.0013780698645859957
1745971746465685500,4.026685546875,-0.1108835180377534,0.002267330652102828,0.04643781556551693,-0.0038118832744657993,-0.9904207411229569,0.11487861393897528,-2.916543898144221,right,-0.0007104277610778809,-0.10618564569871097,-1.0790574381735176,-9.691528998348117,-0.06093501139295293,0.0016504311934113503,0.0005870312452316284,1.039370009298995,-0.0007826164364814758
1745971746505685500,4.066685546875,-0.1108835180377534,0.0024410716723650694,0.04643781556551693,-0.0011202392634004354,-0.9904207411229569,0.11487861393897528,-2.916543898144221,right,-0.000055670738220214844,-0.10618564569871097,-1.0790574381735176,-9.691528998348117,-0.06093501139295293,-0.0033979229629039764,0.0009463727474212646,1.039370009298995,-0.0001871734857559204
1745971746545685500,4.106685546875,-0.11094422297604355,0.0037169521674513817,0.046725537551121,-0.005173183046281338,-0.9904038317672212,0.1148755701045052,-2.9165818983857448,right,-0.0008977651596069336,-0.10677097434000349,-1.0795782471772282,-9.690856798174977,-0.06099609118579239,-0.005309797823429108,0.00047641992568969727,1.0450775732908397,-0.0011483430862426758
1745971746585685500,4.146685546875,-0.11100495391665423,0.00499283242970705,0.04701325524025423,-0.009226126596331596,-0.9903868404258945,0.1148725066794851,-2.916619957925593,right,-0.001740097999572754,-0.10735629925270176,-1.0800988369852305,-9.690181675392388,-0.06105716487385598,-0.007221672683954239,0.000006452202796936035,1.0507847719565033,-0.0021094754338264465
1745971746625685500,4.186685546875,-0.11130443753194781,0.009485989809036255,0.04727833149854992,-0.01032854150980711,-0.9903342692879453,0.11511409506961834,-2.916175869713704,right,-0.0011570453643798828,-0.1079533917599276,-1.082930918605998,-9.689232411843538,-0.061248493696437006,-0.010037092491984367,0.00000461190938949585,1.056606390782073,-0.0014030933380126953
1745971746665685500,4.226685546875,-0.11160371079417555,0.013979146257042885,0.04754340306359426,-0.011430956423282623,-0.9902817177405459,0.11535560147416031,-2.915732178937441,right,-0.0005744099617004395,-0.10855063385114953,-1.0857601506825536,-9.68827905664146,-0.061439816657969465,-0.01285251323133707,0.000002473592758178711,1.0624290325209498,-0.000696815550327301
1745971746705685500,4.266685546875,-0.11182564806738596,0.017061427235603333,0.04783690463381971,-0.007633683737367392,-0.990218768101444,0.11568813669444777,-2.9151039240058196,right,0.00013720989227294922,-0.10920787986804914,-1.08783213465102,-9.687342068052292,-0.061600664935429025,-0.01660771854221821,-0.0005163997411727905,1.0688362692147493,-0.000152587890625
1745971746745685500,4.306685546875,-0.11191415124695514,0.013549761846661568,0.0481587159461198,-0.004446757957339287,-0.9901683118217155,0.11593647044298712,-2.914640876497039,right,0.00009226799011230469,-0.1098965695234648,-1.088607064546272,-9.686512046968936,-0.061693382189806384,-0.01646721549332142,-0.0004894211888313293,1.0755495031177997,0.00033789128065109253
1745971746785685500,4.346685546875,-0.11200236095242418,0.010038095526397228,0.048480522565167244,-0.001259832875803113,-0.9901177735563955,0.11618478460097642,-2.91417791660388,right,0.00004678964614868164,-0.11058531767833592,-1.0893784142449499,-9.685677349710463,-0.0617860935831385,-0.01632671058177948,-0.0004627928137779236,1.0822628100860863,0.0008283630013465881
1745971746825685500,4.386685546875,-0.11197738616725769,0.006382843479514122,0.04882571146515491,0.0005267880624160171,-0.9900894206843378,0.11626662643697648,-2.914046319413708,right,-0.0001970529556274414,-0.11128738607093584,-1.0890513742476702,-9.684947281870246,-0.061815563203924104,-0.015550398267805576,-0.00041575729846954346,1.0891054425224662,0.0007586851716041565
1745971746865685500,4.426685546875,-0.11195230968988418,0.0027275909669697285,0.04917089487832669,0.002313409000635147,-0.9900608530530277,0.11634846028939706,-2.9139146220291208,right,-0.0004413127899169922,-0.11198944542403244,-1.08872279988043,-9.684211953333019,-0.06184502745112969,-0.014774085022509098,-0.00036887824535369873,1.09594741737172,0.0006890669465065002
1745971747024596200,4.58559619140625,-0.11149589361919952,0.007328382693231106,0.0502397067861429,0.0018490235088393092,-0.9899955258597412,0.11650198052555102,-2.913686299399906,right,-0.00031126232352107763,-0.11410763302586367,-1.0840419485878199,-9.682379477208853,-0.06174144071875183,-0.011884449049830437,0.0018289478030055761,1.1165871775574983,0.0006105426582507789
1745971747184297200,4.745297119140625,-0.11196320780867344,-0.0018953353865072131,0.0509646714832707,0.007313120644539595,-0.989954739894036,0.11637181120537599,-2.9140470087652672,right,0.0006826011231169105,-0.11560355602362182,-1.088378662617877,-9.68020096412599,-0.062045956446090705,-0.01736396923661232,-0.0001138453371822834,1.131160477311164,0.0006890349322929978
1745971747224223000,4.785222900390625,-0.1116363868447544,0.012669038958847523,0.05141189823895662,0.0035410625860095024,-0.9899247461457108,0.11648844766742401,-2.9138378120811788,right,0.000680814846418798,-0.11648111875729285,-1.0851039517961443,-9.679566173353791,-0.061937802873840035,-0.01988331228494644,0.00032318857847712934,1.139708598491177,-0.000621059094555676
1745971747264223000,4.825222900390625,-0.11145998199148324,0.00840037316083908,0.051567777989865636,0.0028327624313533306,-0.9898943919849399,0.11670778479499014,-2.9134012423475446,right,0.0010346770286560059,-0.11680233288064586,-1.0833555737588554,-9.679393154874443,-0.06187942253639745,-0.0161940548568964,0.0004202350974082947,1.142837178840488,0.0013555213809013367
1745971747304222700,4.86522265625,-0.11128344293343448,0.0041317082941532135,0.05172365463464882,0.002124462043866515,-0.9898640886122392,0.11692709072503564,-2.912964727345526,right,0.0013884305953979492,-0.11712348208570214,-1.081605953612551,-9.679218967351316,-0.061821035362983126,-0.012504796497523785,0.0005171447992324829,1.1459651016026735,0.0033321604132652283
1745971747344222700,4.90522265625,-0.11128344293343448,0.0004712690133601427,0.05172365463464882,-0.0019358571153134108,-0.9898640886122392,0.11692709072503564,-2.912964727345526,right,0.0007221698760986328,-0.11712348208570214,-1.081605953612551,-9.679218967351316,-0.061821035362983126,-0.008639844134449959,0.00032820552587509155,1.1459651016026735,0.0019835233688354492
1745971747384223000,4.945222900390625,-0.11128344293343448,0.0034486521035432816,0.05172365463464882,0.002201854484155774,-0.9898640886122392,0.11692709072503564,-2.912964727345526,right,-0.0002728104591369629,-0.11712348208570214,-1.081605953612551,-9.679218967351316,-0.061821035362983126,-0.00795254297554493,0.00037736445665359497,1.1459651016026735,0.0008389651775360107
1745971747543625200,5.104625244140625,-0.1107600342603417,-0.0013509122654795647,0.0524191822360484,0.009102682583034039,-0.9897705554321845,0.11748735828292099,-2.9118738744683186,right,-0.00015563116176053882,-0.11853383639761139,-1.07635994271785,-9.67816741247177,-0.06166847749935625,-0.003268580650910735,0.0009144739015027881,1.1597000508360564,0.00030527132912538946
1745971747583549700,5.1445498046875,-0.11055556742347787,-0.016159165650606155,0.05257742912028436,0.002614070661365986,-0.9897930170512061,0.11727874525012504,-2.9122976550331323,right,-0.0015190471895039082,-0.1188027686252703,-1.074346630134061,-9.67807739610076,-0.06157107028681799,-0.014051370322704315,0.0007051306311041117,1.1623187819670886,0.0002372954913880676
1745971747623549700,5.1845498046875,-0.1107527457663786,-0.017895366996526718,0.052979829397666656,0.002556504448875785,-0.9898149067685942,0.11685055529036106,-2.913211157381439,right,0.0008704066276550293,-0.11958170399793344,-1.0761544832736254,-9.676962128335237,-0.061687593683924236,-0.016417255625128746,0.0014002397656440735,1.1699033918771893,-0.0006280392408370972
1745971747663549700,5.2245498046875,-0.11077388173603048,-0.010871384292840958,0.05332779108518896,0.0035489979200065136,-0.9898338612307018,0.11651734406733463,-2.9139177531036498,right,-0.0005925893783569336,-0.12024273754332779,-1.076273287347704,-9.676168932130933,-0.061715657366758485,-0.014505445957183838,0.0008692145347595215,1.1763393432088196,-0.00134962797164917
1745971747703549700,5.2645498046875,-0.11100142047217217,-0.018457964062690735,0.0536247595426809,-0.017430925741791725,-0.9898404494559618,0.11625601467561365,-2.91448680669783,right,-0.00299912691116333,-0.12083355841303743,-1.0783978052210061,-9.675231359019875,-0.061845477240799404,-0.016644250601530075,0.001133263111114502,1.1820912577990441,0.0021222755312919617
1745971747743549700,5.3045498046875,-0.11142776344444466,-0.011824806220829487,0.053926459525214625,-0.007089605554938316,-0.9898373296736135,0.11601953557734333,-2.9150182973328316,right,-0.001570582389831543,-0.12145942171679938,-1.0824402124796062,-9.674033673667907,-0.06207644388553664,-0.014500712975859642,0.0010232627391815186,1.18818387558572,0.0012094825506210327
1745971747783549400,5.344549560546875,-0.11180251715016686,-0.013554188422858715,0.05421680889952707,-0.01762215420603752,-0.989827768414455,0.11585353737098505,-2.9154037907939743,right,-0.0023373961448669434,-0.12206528421552809,-1.0859849724143742,-9.67291022259593,-0.062284574671693384,-0.012199519202113152,-0.0007837340235710144,1.1940814091917127,0.000538267195224762
1745971747823549400,5.384549560546875,-0.11254314463765873,-0.013088846579194069,0.05449846739569736,-0.014170357957482338,-0.9898153921877549,0.11561952643820707,-2.915947898335712,right,-0.0005539655685424805,-0.12268617326924865,-1.0930652129989116,-9.671364746719599,-0.06267014273656125,-0.01792886108160019,0.00039596855640411377,1.200124707943946,-0.00020423531532287598
1745971747863549700,5.4245498046875,-0.11285554013119839,-0.011195434257388115,0.054825948973518265,-0.0009264908730983734,-0.9898104662076268,0.11540982911570813,-2.916421857372205,right,0.0001786351203918457,-0.12335375380817153,-1.0959960057538003,-9.67022434451282,-0.06284805823442277,-0.016989540308713913,0.001243390142917633,1.2066219610087572,0.0017137303948402405
1745971747903549700,5.4645498046875,-0.11286637197922283,-0.013316240161657333,0.055152871953043275,0.00745258666574955,-0.9898205521756307,0.1151545355222491,-2.9169693627102804,right,0.0013066530227661133,-0.12398033096604731,-1.096015368041396,-9.66945920535922,-0.06287230938436607,-0.015541591681540012,0.0017495602369308472,1.2127196202967314,0.0012260526418685913
1745971747943549700,5.5045498046875,-0.11229817288936043,-0.016623003408312798,0.05540491653469544,0.017963334918022156,-0.9898654093414974,0.11479960707919201,-2.917674441313044,right,-0.00011807680130004883,-0.12437859436551607,-1.0904667940035462,-9.669600075134634,-0.06259312086539177,-0.006802133284509182,0.001001887023448944,1.2165952196210623,0.0013883709907531738
1745971747983549700,5.5445498046875,-0.11154844449083441,-0.02110998146235943,0.05569480075916937,0.009717516601085663,-0.9899197405292807,0.11439052239599304,-2.9184808167967122,right,-0.005218803882598877,-0.12482629396978023,-1.083156178729236,-9.669872462335228,-0.062223753578107756,-0.016369856894016266,-0.001290649175643921,1.2209515881996602,0.003407590091228485
1745971748023549400,5.584549560546875,-0.1112144933006389,-0.02437814138829708,0.05624324914365406,0.009075328707695007,-0.9899609158092538,0.11384227059460504,-2.919618185979483,right,-0.0037979483604431152,-0.12582364746407323,-1.0797911592755467,-9.669018475854397,-0.0620800830896569,-0.017713336274027824,-0.00020522624254226685,1.2306556014165282,0.002236500382423401
1745971748063549400,5.624549560546875,-0.11088167274106953,-0.027646301314234734,0.05679167168118343,0.008433140814304352,-0.99000157958513,0.11329398323550788,-2.9207553666178425,right,-0.0023782849311828613,-0.12682141451981221,-1.0764366612158716,-9.668152214413881,-0.06193638475836694,-0.019056813791394234,0.0008812695741653442,1.240362318047136,0.0010651201009750366
1745971748103549700,5.6645498046875,-0.11058795271158374,-0.024801548570394516,0.05732427564382524,0.009030867367982864,-0.990042422684142,0.11273642204689686,-2.921911683695926,right,-0.0014400482177734375,-0.12779079883223057,-1.0734637098196893,-9.667268417316675,-0.061809389711185325,-0.021380368620157242,0.000028848648071289062,1.24979182517156,0.000022113323211669922
1745971748143549700,5.7045498046875,-0.11013327756543306,-0.018207211047410965,0.05773377903778824,0.022374499589204788,-0.9900895693440325,0.11223046049498914,-2.9229415494080726,right,0.0017855167388916016,-0.1285016196758768,-1.0689701977927237,-9.666870357909797,-0.06159217342206466,-0.014368928037583828,0.0006972327828407288,1.2567054039523005,-0.0023477375507354736
1745971748183549700,5.7445498046875,-0.10891915452551515,-0.0020057354122400284,0.057883020292476155,0.030787458643317223,-0.9901439280061044,0.1120044226048579,-2.9233339334172332,right,-0.0011963844299316406,-0.12864120431039813,-1.057213562894985,-9.66798621019721,-0.06098710596202937,0.0012685703113675117,0.00024653226137161255,1.25806310217157,-0.0019244402647018433
1745971748223549700,5.7845498046875,-0.10800975958375518,-0.0033566728234291077,0.057720700443639014,0.021131914108991623,-0.99019822533428,0.11186859016149239,-2.9235343295243563,right,0.0006369352340698242,-0.1281985902806391,-1.0484810250587762,-9.66949661476016,-0.06050784097893542,0.01411523763090372,0.0017070695757865906,1.2537582445845008,-0.0018985867500305176
1745971748263549400,5.824549560546875,-0.10649780500334538,0.007488074712455273,0.05731602732231614,0.0363776832818985,-0.990264632537082,0.11191474827429783,-2.9233077922826083,right,-0.001764059066772461,-0.1272248950812211,-1.0339892661087213,-9.672280107998848,-0.05971460165053109,0.03163118660449982,0.00029780715703964233,1.244287236405909,-0.00037109851837158203
1745971748303549400,5.864549560546875,-0.10512752939810045,0.01022682897746563,0.056713148672745205,0.027230195701122284,-0.9903212111982348,0.11211048469641499,-2.9227719684024644,right,-0.004062056541442871,-0.12588542921207338,-1.0209086160656065,-9.675336572960019,-0.05898082175140121,0.034751005470752716,-0.0008686855435371399,1.2312566360495985,0.002817213535308838
1745971748343549700,5.9045498046875,-0.10461202871976061,0.004478832241147757,0.05607388347254268,0.015360308811068535,-0.9903577690469699,0.11227340041468405,-2.9223532396159184,right,-0.0032311677932739258,-0.12456185733049888,-1.016090109867975,-9.677473584988713,-0.058667435802741925,0.03267455846071243,0.0005778074264526367,1.2183785228412598,0.004463300108909607
1745971748383549700,5.9445498046875,-0.10409716006255439,-0.0012691640295088291,0.055434586938568585,0.0034904219210147858,-0.9903937334060169,0.11243626098469392,-2.9219352159920815,right,-0.002402365207672119,-0.12323806192894948,-1.0112740148231387,-9.679591307795047,-0.05835401663765955,0.0305981133133173,0.002024523913860321,1.2054960257187486,0.006109848618507385
1745971748423549700,5.9845498046875,-0.10422647099201851,-0.006105049513280392,0.05501106751051578,-0.011527384631335735,-0.9904170312507034,0.11242943467007764,-2.9219182083706965,right,-0.0012536048889160156,-0.12239910444106629,-1.0126305439986287,-9.68046282993257,-0.05837401832020647,0.013145508244633675,0.0010119825601577759,1.197330620246008,0.004484646022319794
1745971748463549700,6.0245498046875,-0.10422647099201851,-0.009644150733947754,0.05501106751051578,-0.014640736393630505,-0.9904170312507034,0.11242943467007764,-2.9219182083706965,right,-0.00125044584274292,-0.12239910444106629,-1.0126305439986287,-9.68046282993257,-0.05837401832020647,0.006171317771077156,-0.001346781849861145,1.197330620246008,-0.001833215355873108
1745971748503549700,6.0645498046875,-0.10477386039168653,-0.00026765186339616776,0.054890513168856216,-0.005504511296749115,-0.9904194078411649,0.11233479910000783,-2.9221308587631127,right,0.00008624792098999023,-0.12220535244557922,-1.017953638717532,-9.680137835761904,-0.0586289749941263,-0.003177427686750889,-0.0005510598421096802,1.1954447334341705,-0.0008611530065536499
1745971748543549400,6.104549560546875,-0.10496856481263751,0.0026063895784318447,0.05520776510311146,-0.006835526321083307,-0.9903839562491867,0.11242114136114617,-2.921997984346649,right,-0.0004564523696899414,-0.12287549924592671,-1.0197541853334755,-9.6791406414181,-0.05876456653044699,-0.016104616224765778,-0.0002734139561653137,1.2019673401359467,-0.000045277178287506104
1745971748583549700,6.1445498046875,-0.10516318850873628,0.005480431020259857,0.05552501155055083,-0.0081665413454175,-0.9903482898979555,0.11250747563870504,-2.9218651612488293,right,-0.0009996891021728516,-0.12354566621868636,-1.0215531975794583,-9.678138770899176,-0.058900152693187664,-0.02903180569410324,0.000004060566425323486,1.2084896545767783,0.0007706284523010254
1745971748623549700,6.1845498046875,-0.1054685002354319,-0.0017549884505569935,0.055953899335703015,-0.012551805004477501,-0.9903086018247784,0.11254045885802942,-2.921857094574312,right,-0.001536726951599121,-0.1244463481804632,-1.0243930241152643,-9.676740010017156,-0.05909930864245353,-0.015244746580719948,0.00017718970775604248,1.2172544872473925,-0.0006845593452453613
1745971748663549700,6.2245498046875,-0.10614026069964067,-0.013096997514367104,0.056037944160144286,-0.025576330721378326,-0.9903029548730145,0.11237240596874568,-2.9222447279211563,right,-0.0023833513259887695,-0.1246690038526843,-1.0308644851516933,-9.6757796405524,-0.059432871743113,-0.0008639656007289886,0.0003821924328804016,1.219421090696752,0.0027566999197006226
1745971748703549700,6.2645498046875,-0.10732108772900159,-0.02800210937857628,0.056012667099207325,-0.028583629056811333,-0.9903246884825863,0.11189590529555947,-2.923274764793992,right,-0.0014290213584899902,-0.12468953011480297,-1.0422864812675863,-9.674531101796031,-0.059989798812923774,-0.004069364629685879,-0.00022546201944351196,1.2196208510525524,0.0008290261030197144
1745971748743549700,6.3045498046875,-0.10823495737907417,-0.022557642310857773,0.05601146957453654,-0.015326596796512604,-0.9903620802164459,0.11133773604440622,-2.9244550370384776,right,0.00035560131072998047,-0.1247183435778128,-1.0511235023915768,-9.673539168149233,-0.06041077818226099,-0.004091997630894184,0.0006138607859611511,1.2199012023638933,-0.0012296587228775024
1745971748783549400,6.344549560546875,-0.10854511000331689,-0.013213438913226128,0.056257735838317356,-0.0006188219413161278,-0.9903837454147238,0.11093605579725063,-2.9253065550533637,right,0.0009531974792480469,-0.12519810624339633,-1.0540602134305983,-9.67263023661077,-0.060565508378787804,-0.017537925392389297,0.00038451701402664185,1.2245693403054028,-0.0020682737231254578
1745971748823549400,6.384549560546875,-0.10845255526146966,-0.010747665539383888,0.05682126419348362,0.0041868314146995544,-0.9903834071722407,0.11065456797092502,-2.925921410091692,right,0.0008124709129333496,-0.12628733759215913,-1.0530199836626648,-9.671395726379751,-0.06055894872967876,-0.033315159380435944,0.0005779340863227844,1.2351667952306569,-0.001997619867324829
1745971748863549700,6.4245498046875,-0.10811635752522511,-0.014195390976965427,0.057507755248094136,0.007871290668845177,-0.990383470992743,0.11036359954418837,-2.926551640214993,right,-0.000037610530853271484,-0.12759667601769123,-1.0495930048886686,-9.670133159098029,-0.06044232702404995,-0.034673530608415604,0.000584527850151062,1.2479036733373998,-0.00048866868019104
1745971748903549700,6.4645498046875,-0.10768211863985941,-0.024848725646734238,0.05819604093729358,0.017682120203971863,-0.9904040709769143,0.10991269805153726,-2.927497217628969,right,0.0000960230827331543,-0.12887971694622097,-1.045220854219049,-9.668988080716133,-0.0602661932374688,-0.040617071092128754,0.001188911497592926,1.2603826311603188,0.0019464194774627686
1745971748943549700,6.5045498046875,-0.10706562054704254,-0.029020117595791817,0.05894781674787229,0.021357784047722816,-0.9904464836386908,0.10927820515630714,-2.9288061505239487,right,-0.000032961368560791016,-0.13024910496550696,-1.0390743142880499,-9.667905546176433,-0.059992868364690415,-0.035418421030044556,0.0010462403297424316,1.2736992088511585,0.00109805166721344
1745971748983549700,6.5445498046875,-0.10643558691953085,-0.02402922511100769,0.059511183319116645,0.018263718113303185,-0.9905008539117784,0.10864245286906331,-2.930098196951331,right,-0.0008828639984130859,-0.13123856618374358,-1.032848571640998,-9.667300566020607,-0.059693065517554794,-0.02037081867456436,0.0015686601400375366,1.2833197085030377,0.00013275444507598877
1745971749023549400,6.584549560546875,-0.10594781871768878,-0.014842908829450607,0.05987011506679184,0.012122057378292084,-0.9905410867717566,0.10820677267900189,-2.9309770165832774,right,-0.0021585822105407715,-0.13185658510505002,-1.0280489893395452,-9.667012396728992,-0.0594566272558474,-0.017964322119951248,0.001981087028980255,1.289328009007126,0.0019839107990264893
1745971749063549400,6.624549560546875,-0.10580174287864876,-0.00498600397258997,0.060168630164740555,0.0023413067683577538,-0.9905458586715253,0.10802812271394595,-2.931354846792789,right,-0.0011187195777893066,-0.13242029209496123,-1.026559992890805,-9.66643839623332,-0.0594014540746415,-0.01684919372200966,0.0012011751532554626,1.2948079017229377,0.0017927736043930054
1745971749103549700,6.6645498046875,-0.10580174287864876,0.0007143765687942505,0.060168630164740555,0.0008357976330444217,-0.9905458586715253,0.10802812271394595,-2.931354846792789,right,0.0010302066802978516,-0.13242029209496123,-1.026559992890805,-9.66643839623332,-0.0594014540746415,0.00010371766984462738,0.0025552064180374146,1.2948079017229377,0.000675499439239502
1745971749143549700,6.7045498046875,-0.10580174287864876,0.001954886130988598,0.060168630164740555,0.011873999610543251,-0.9905458586715253,0.10802812271394595,-2.931354846792789,right,0.0008243918418884277,-0.13242029209496123,-1.026559992890805,-9.66643839623332,-0.0594014540746415,0.009500538930296898,0.001679450273513794,1.2948079017229377,0.00004531443119049072
1745971749183549700,6.7445498046875,-0.10496093986526497,0.0030902852304279804,0.059955954088759415,0.0114012211561203,-0.9905697837942639,0.10816284314332288,-2.931008940358696,right,-0.0014556050300598145,-0.13192016273132426,-1.0184997282929718,-9.667941202011704,-0.05897011086823357,0.01712498441338539,0.0004409700632095337,1.2899461409054696,0.0017956197261810303
1745971749223549700,6.7845498046875,-0.10441392929719738,0.002311611780896783,0.059643314029939894,0.0060677798464894295,-0.9905943150568495,0.10827235837428212,-2.9307242048658178,right,-0.002277374267578125,-0.13124658046925694,-1.0133014289975166,-9.669358667594194,-0.05867355176969196,0.016836386173963547,0.0004905164241790771,1.2833975960448383,0.0024719834327697754
1745971749263549400,6.824549560546875,-0.1039696680424581,-0.0025504843797534704,0.05935296509230106,0.0016233627684414387,-0.9906173186823274,0.10835399187350392,-2.9305046138335995,right,-0.002236783504486084,-0.13062523012111407,-1.0090881952166557,-9.670599023044108,-0.05842849494648496,0.013302218168973923,0.000433899462223053,1.277356416184455,0.0016309022903442383
1745971749303549400,6.864549560546875,-0.1039696680424581,-0.001869412255473435,0.05935296509230106,0.0020505515858531,-0.9906173186823274,0.10835399187350392,-2.9305046138335995,right,-0.00042760372161865234,-0.13062523012111407,-1.0090881952166557,-9.670599023044108,-0.05842849494648496,0.010178977623581886,0.0008190497756004333,1.277356416184455,-0.0010256916284561157
1745971749343549700,6.9045498046875,-0.10403507624442648,0.0011569493217393756,0.05901188298325893,0.005023517645895481,-0.9906415201448274,0.10832107811575079,-2.930544129538468,right,0.0008882880210876465,-0.12994193023739822,-1.0098111026637255,-9.6713986489892,-0.0584250079821523,0.00872706063091755,0.0010927021503448486,1.27071230199486,-0.00173969566822052
1745971749383549700,6.9445498046875,-0.10410045171513616,0.004183310549706221,0.0586707938002727,0.007996483705937862,-0.9906655888336658,0.10828817596496808,-2.930583539512633,right,0.002203643321990967,-0.12925862909045538,-1.0105334255889058,-9.672194183281064,-0.058421516619159834,0.007275144103914499,0.001366250216960907,1.2640676032833755,-0.0024535953998565674
1745971749423549700,6.9845498046875,-0.10410045171513616,0.0041355472058057785,0.0586707938002727,0.004604346118867397,-0.9906655888336658,0.10828817596496808,-2.930583539512633,right,0.0006188750267028809,-0.12925862909045538,-1.0105334255889058,-9.672194183281064,-0.058421516619159834,0.0035681570880115032,0.0010316595435142517,1.2640676032833755,-0.00270649790763855
1745971749463549700,7.0245498046875,-0.10410045171513616,0.0024622054770588875,0.0586707938002727,0.003978091292083263,-0.9906655888336658,0.10828817596496808,-2.930583539512633,right,0.00023555755615234375,-0.12925862909045538,-1.0105334255889058,-9.672194183281064,-0.058421516619159834,-0.0020905332639813423,0.0005984008312225342,1.2640676032833755,-0.0016568005084991455
1745971749503549700,7.0645498046875,-0.10410045171513616,0.0026028305292129517,0.0586707938002727,0.003337384667247534,-0.9906655888336658,0.10828817596496808,-2.930583539512633,right,-0.00030297040939331055,-0.12925862909045538,-1.0105334255889058,-9.672194183281064,-0.058421516619159834,-0.001233173068612814,0.0005627349019050598,1.2640676032833755,-0.0014128834009170532
1745971749543549400,7.104549560546875,-0.1037946273298184,0.0017880136147141457,0.05852260731575705,0.0012542589101940393,-0.9906750038578038,0.10836955245920275,-2.9303866732687562,right,-0.0010218620300292969,-0.12893784646736794,-1.0076173189464956,-9.672905546420813,-0.05825949254960889,0.000713248155079782,0.0008880570530891418,1.260948009958118,0.00030100345611572266
1745971749583549700,7.1445498046875,-0.1037946273298184,0.0016271262429654598,0.05852260731575705,0.0019497891189530492,-0.9906750038578038,0.10836955245920275,-2.9303866732687562,right,-0.0006995797157287598,-0.12893784646736794,-1.0076173189464956,-9.672905546420813,-0.05825949254960889,0.0044020554050803185,0.001528322696685791,1.260948009958118,0.0001878291368484497
1745971749623549700,7.1845498046875,-0.10360541763230605,0.0049711912870407104,0.058276066438472204,0.0020910794846713543,-0.990681432651019,0.108502778785876,-2.930084004176897,right,-0.0007714629173278809,-0.12843755151919603,-1.0058522089701145,-9.673722123500704,-0.05814914053535972,0.007896756753325462,0.0010354742407798767,1.2560823036178945,0.0005761682987213135
1745971749663549700,7.2245498046875,-0.10351896676354326,0.004727962892502546,0.05806118827344982,-0.0020404160022735596,-0.9906805869632167,0.10865502355990483,-2.9297525120606815,right,-0.0007236599922180176,-0.12801402665032363,-1.0050707762688398,-9.674337625050544,-0.058094362339300036,0.008449332788586617,0.0003201887011528015,1.2519630317308008,0.0005997717380523682
1745971749703549700,7.2645498046875,-0.10373576509945012,0.002513991203159094,0.05779231294364454,-0.0069258431904017925,-0.9906769257613154,0.10878332553120547,-2.929483474226811,right,-0.00034308433532714844,-0.127511145059535,-1.0072332149997354,-9.674744452285767,-0.05818386248931776,0.013727572746574879,0.00038170814514160156,1.2470717525579034,-0.0004066377878189087
1745971749743549700,7.3045498046875,-0.10371522692186978,0.005900462623685598,0.057544990406043446,0.0024601141922175884,-0.9906798003106131,0.10890313588381402,-2.929218502811815,right,0.0005590319633483887,-0.12702549478323974,-1.0070970944646744,-9.675366383576392,-0.058156489946300544,0.007575116585940123,-0.00017032772302627563,1.2423476466454564,0.0012258440256118774
1745971749783549400,7.344549560546875,-0.10371522692186978,0.0031135734170675278,0.057544990406043446,0.0005163446767255664,-0.9906798003106131,0.10890313588381402,-2.929218502811815,right,0.00043123960494995117,-0.12702549478323974,-1.0070970944646744,-9.675366383576392,-0.058156489946300544,0.0016437927260994911,0.000719904899597168,1.2423476466454564,0.0018273591995239258
1745971749823549400,7.384549560546875,-0.10347368757903588,-0.004097249358892441,0.0576070159742668,0.0013921440113335848,-0.9906908213696527,0.10883361929129763,-2.929348920397786,right,-0.00018924474716186523,-0.12711646015376468,-1.0047484124466777,-9.675496731957793,-0.05803774398281975,-0.00032097194343805313,0.000246979296207428,1.2432324666559695,0.0016248077154159546
1745971749863549700,7.4245498046875,-0.10347368757903588,-0.01130807213485241,0.0576070159742668,0.0022679432295262814,-0.9906908213696527,0.10883361929129763,-2.929348920397786,right,-0.0008230805397033691,-0.12711646015376468,-1.0047484124466777,-9.675496731957793,-0.05803774398281975,-0.0022857366129755974,0.000013560056686401367,1.2432324666559695,0.001512482762336731
1745971749903549700,7.4645498046875,-0.10325422699617831,-0.011256868951022625,0.05769600663237512,0.003878410905599594,-0.9907170958982353,0.10860832400048168,-2.9297967795099438,right,-0.0005518198013305664,-0.12724572607334378,-1.0026084047432988,-9.67555693771243,-0.05792272895654407,-0.0019191474420949817,0.0009755268692970276,1.2444899193711578,0.001034557819366455
1745971749943549700,7.5045498046875,-0.10325422699617831,-0.011341728270053864,0.05769600663237512,0.0014270604588091373,-0.9907170958982353,0.10860832400048168,-2.9297967795099438,right,0.0003638267517089844,-0.12724572607334378,-1.0026084047432988,-9.67555693771243,-0.05792272895654407,0.004838004242628813,0.0013919472694396973,1.2444899193711578,-0.0000565946102142334
1745971749983549700,7.5445498046875,-0.1028904874837419,-0.01281819213181734,0.05764414590453803,0.008550615981221199,-0.9907727180462199,0.10823971783235253,-2.930511357853068,right,-0.00019180774688720703,-0.12705965682003792,-0.9991127446472644,-9.676151396474241,-0.057712456210509536,0.005007016472518444,0.0007133409380912781,1.2426799473397434,-0.00039230287075042725
1745971750023549400,7.584549560546875,-0.10257602947817518,-0.020478734746575356,0.05744911250347757,0.005521071143448353,-0.9908391060939906,0.10784183414418476,-2.931275103839469,right,-0.00017243623733520508,-0.12658759020744392,-0.9961299294441938,-9.67704746853113,-0.05751072599470277,0.013789093121886253,0.0008204281330108643,1.2380876511134207,-0.000021398067474365234
1745971750063549400,7.624549560546875,-0.10232853844655769,-0.024127336218953133,0.057174279747187015,0.007644487079232931,-0.9909178743200429,0.10735967860198385,-2.932205635255433,right,0.00011706352233886719,-0.12595250049575857,-0.9938150035653263,-9.67807388896942,-0.05732931632620891,0.012275330722332,0.0012967586517333984,1.2319092547394335,0.0006815791130065918
1745971750103549700,7.6645498046875,-0.10195422998949984,-0.016789976507425308,0.05693414394903819,0.008423134684562683,-0.9909948842496947,0.1069030162803287,-2.933080124807973,right,-0.000391542911529541,-0.12537728137930484,-0.9902643253464252,-9.679148824724555,-0.05708992995263793,0.010956009849905968,0.0011540129780769348,1.2263127499066293,0.00011426210403442383
1745971750143549700,7.7045498046875,-0.10158539082406616,-0.005363426171243191,0.05674764356103326,0.007090466096997261,-0.9910429010437429,0.10667268964254469,-2.9335042715619037,right,-0.0007135272026062012,-0.12493706593237414,-0.9867488645713776,-9.68004957295656,-0.05687299879517244,0.012265721336007118,0.0018077194690704346,1.222029446564242,-0.0006870031356811523
1745971750183549700,7.7445498046875,-0.10129501932750466,0.008370948024094105,0.05647461249754563,0.003359213238582015,-0.9910616460234117,0.1067331555078306,-2.9333403436363024,right,-0.0012282729148864746,-0.12436458735470174,-0.9840085528872906,-9.681029816165566,-0.05670500612625564,0.017570696771144867,0.0021738484501838684,1.2164588798902929,-0.0014293119311332703
1745971750223549700,7.7845498046875,-0.101228007748653,0.01930880732834339,0.05603668310154026,-0.005490593612194061,-0.9910562122386543,0.10704442081169498,-2.932670736678703,right,-0.0015505552291870117,-0.12351245441142916,-0.9834642168775201,-9.68212345662117,-0.05664774881801175,0.022075679153203964,0.0025996342301368713,1.2081664139717816,-0.0009126663208007812
1745971750263549400,7.824549560546875,-0.10136529538765378,0.025467026978731155,0.0555813670991655,-0.012335041537880898,-0.9910237424681154,0.10755206942141128,-2.931616690712594,right,-0.0007208585739135742,-0.12266928375296149,-0.9848961493767797,-9.68299848589003,-0.056702566588300723,0.02303248830139637,0.0012087970972061157,1.1999603111624717,-0.0004244893789291382
1745971750303549400,7.864549560546875,-0.10179038297096532,0.028951535001397133,0.0550529296570588,-0.020829210057854652,-0.9909735847760666,0.10817907829972065,-2.930332990788944,right,-0.0014317631721496582,-0.12172327106581593,-0.9891271380100398,-9.683704003810883,-0.05690060023574366,0.03093852289021015,0.000977933406829834,1.1907522647690028,-0.002005256712436676
1745971750343549700,7.9045498046875,-0.10226707622805004,0.028792133554816246,0.05440820228527246,-0.012962786480784416,-0.9909250308743915,0.10883637043951357,-2.9289805482868,right,-0.00001430511474609375,-0.12055282199517915,-0.9938847808659076,-9.684611181783676,-0.05711388716015967,0.03260353207588196,0.0005870237946510315,1.179358179573342,0.0006741583347320557
1745971750383549700,7.9445498046875,-0.10251511117675642,0.01718056946992874,0.05378197166806873,-0.01021998468786478,-0.9908909525388994,0.10940642475407981,-2.927791184705757,right,-0.0005325078964233398,-0.11938556000632133,-0.9964270857598632,-9.685727034071087,-0.05720882093740861,0.030598463490605354,-0.0003275051712989807,1.1679935396678744,0.005190841853618622
1745971750423549700,7.9845498046875,-0.1030292013809596,-0.00878482311964035,0.05295740289305984,-0.006112778093665838,-0.9909442983531922,0.10924011821421382,-2.9280813697226207,right,0.00021034479141235352,-0.11776231294408275,-1.001599958353117,-9.687086631986498,-0.05737196963666675,0.03820382058620453,0.0003218650817871094,1.1521866795312612,0.005334571003913879
1745971750463549700,8.0245498046875,-0.10354269268473396,-0.03475021570920944,0.05213278870451977,-0.0020055719651281834,-0.9909968359185437,0.10907374854250883,-2.9283705742049433,right,0.0009503960609436035,-0.11613889721613159,-1.0067660358794033,-9.688418757373094,-0.057535067536365433,0.045809175819158554,0.0009705424308776855,1.1363752162847667,0.005478769540786743
1745971750503549700,8.0645498046875,-0.10405229900168189,-0.051939282566308975,0.051294263270399765,-0.013204218819737434,-0.991112799712067,0.10834797725425445,-2.9297831630880102,right,-0.002009868621826172,-0.11442161299644275,-1.0119044216811657,-9.689830962258577,-0.05766282471683156,0.038227759301662445,0.0008822008967399597,1.1196461998019367,0.005028031766414642
1745971750543549400,8.104549560546875,-0.10473557140712834,-0.05807451158761978,0.050687119142074105,-0.014730199240148067,-0.9912434210073897,0.10731513800933909,-2.931843611560192,right,-0.0003936290740966797,-0.1131515433473626,-1.0186728198375552,-9.690544078963994,-0.057884188943482774,0.031565144658088684,0.00006766617298126221,1.1072715791363268,0.0002429559826850891
1745971750583549700,8.1445498046875,-0.10554734130278007,-0.06254569441080093,0.05005656672925542,-0.015178747475147247,-0.9913799913724023,0.10619302351981218,-2.9340873159155136,right,-0.0009168386459350586,-0.11183629847729198,-1.0266915103159844,-9.691153735294938,-0.05816369569791521,0.02924974635243416,0.00015529245138168335,1.0944549868568778,-0.0006322264671325684
1745971750623549700,8.1845498046875,-0.10639071234261388,-0.06398124247789383,0.04934980904533746,-0.017908068373799324,-0.9915287425681332,0.10497241952449192,-2.9365219555909094,right,0.00031238794326782227,-0.11035814279680463,-1.035035048834607,-9.691882049569488,-0.05844756100766576,0.03476141765713692,0.0008939728140830994,1.0800485681027174,-0.0023772045969963074
1745971750663549700,8.2245498046875,-0.10708515365056022,-0.06650412827730179,0.0486232443799295,-0.010730011388659477,-0.9916835407314626,0.1037248770904693,-2.9389988676616157,right,0.002804398536682129,-0.10882044613843837,-1.0419414672221987,-9.692800917980074,-0.05865544520205505,0.03191255033016205,0.0011409595608711243,1.0650593810245395,-0.003607906401157379
1745971750703549700,8.2645498046875,-0.10743539208635002,-0.0595296211540699,0.04796346185457154,0.007862314581871033,-0.9918428176371127,0.10247745152639745,-2.9414621389734377,right,0.003948569297790527,-0.10738144805151383,-1.045499451964721,-9.693948918971419,-0.05869960314161399,0.026882268488407135,0.0017274022102355957,1.0510299788892268,-0.005591370165348053
1745971750743549700,8.3045498046875,-0.10735897165891754,-0.05389814451336861,0.04747356100378002,0.015262559056282043,-0.991990491663476,0.10135257360514383,-2.943672027110729,right,0.001355290412902832,-0.10625583780644834,-1.0448847541324793,-9.695199211293458,-0.05855482770411991,0.014068255200982094,0.0015865638852119446,1.040054411366582,-0.0034803077578544617
1745971750783549400,8.344549560546875,-0.10704458010537368,-0.053540654480457306,0.047157722886714014,0.012154449708759785,-0.9921271642162478,0.10029713029894556,-2.945746561339462,right,-0.0007428526878356934,-0.10546541034299987,-1.041924150761217,-9.696341367065905,-0.058312180987103744,0.009980764240026474,0.002399750053882599,1.032346394272521,-0.0022172555327415466
1745971750823549400,8.384549560546875,-0.10676176057322334,-0.06350315362215042,0.04688360870881738,0.011955701746046543,-0.9922695051812958,0.09914216134102097,-2.948026659599932,right,-0.0007637143135070801,-0.10475108975700795,-1.039260119183734,-9.697366618460416,-0.058084651445205186,0.00937135424464941,0.004054144024848938,1.025379989326,-0.0016072392463684082
1745971750863549700,8.4245498046875,-0.10653554674243883,-0.07137035578489304,0.0465702743166569,0.008109414018690586,-0.9924287250765224,0.09781082872885691,-2.950660165844684,right,-0.0017148852348327637,-0.1039437108451468,-1.0371540868151932,-9.6984216804713,-0.05787336157218284,0.012049747630953789,0.0035284683108329773,1.0175053104281424,-0.0013592764735221863
1745971750903549700,8.4645498046875,-0.10671767084101254,-0.07955864071846008,0.04629132855384319,-0.0037329215556383133,-0.9925899344038666,0.0963036046048498,-2.9536710487338227,right,-0.0026398897171020508,-0.10322425615021752,-1.038998107246682,-9.698957687044143,-0.05786090231452924,0.006779314950108528,0.0021568462252616882,1.0104876867510377,-0.003207579255104065
1745971750943549700,8.5045498046875,-0.10747455576255369,-0.08518897742033005,0.04600985528013393,-0.013481457717716694,-0.9927444558437493,0.09466967890907098,-2.956964713398946,right,-0.00005716085433959961,-0.10253788019278809,-1.0464129135478288,-9.698855980235338,-0.05812968013370492,0.0032299556769430637,0.0036797672510147095,1.0037922807656228,-0.002149350941181183
1745971750983549700,8.5445498046875,-0.10811951193734845,-0.0743761956691742,0.04598917360594508,-0.008121522143483162,-0.9928889071766732,0.09300626359035656,-2.960336729222554,right,0.0007166266441345215,-0.10235944141170836,-1.0526873907074332,-9.698356798541544,-0.05836440230143748,-0.01417035423219204,0.0020257234573364258,1.0020515745781362,-0.001655474305152893
1745971751023549400,8.584549560546876,-0.10827113268231461,-0.04787539318203926,0.04646594365417153,0.00023674871772527695,-0.9929565209263229,0.09200135537390834,-2.9624101101086557,right,0.0029820799827575684,-0.10321153035946355,-1.0540651818666606,-9.697344991150498,-0.058428807124922565,-0.022014185786247253,0.0013407692313194275,1.0103635489147156,-0.002092406153678894
1745971751063549400,8.624549560546875,-0.10842453423494644,-0.021374590694904327,0.04694265269011102,0.008595018647611141,-0.9930228657110053,0.09099631727039166,-2.9644838173733827,right,0.005246639251708984,-0.10406329303540031,-1.0554592665735631,-9.696323831409215,-0.05849313575482617,-0.029858015477657318,0.0006574764847755432,1.0186717238590122,-0.002528958022594452
1745971751103549700,8.6645498046875,-0.10780621095272981,-0.007059724070131779,0.047323034281845956,0.020692430436611176,-0.9930581077730894,0.0906045545813352,-2.96527628369641,right,0.0007963180541992188,-0.10472595793060788,-1.0493906872496008,-9.696301619577408,-0.05819567454224719,-0.00613105483353138,0.0012861564755439758,1.025134855458513,-0.0032028406858444214
1745971751143549700,8.7045498046875,-0.1070824338009458,-0.018485315144062042,0.04718765117051032,0.017543576657772064,-0.9931120592678205,0.0903316193287974,-2.9657734780813287,right,-0.0032543540000915527,-0.10435852171441842,-1.0424126649305223,-9.69743208491206,-0.05780894414584469,0.01931009255349636,0.0012094154953956604,1.0215512248180807,-0.000037997961044311523
1745971751183549700,8.7445498046875,-0.10689552675833884,-0.039950352162122726,0.04656184398653919,0.003469507209956646,-0.9932035755911369,0.089759299832269,-2.966851531917542,right,-0.0029285550117492676,-0.10301933012614571,-1.040745170109719,-9.698978729832172,-0.05763426869553872,0.031134899705648422,0.001541733741760254,1.0084887680187822,0.003110729157924652
1745971751223549700,8.7845498046875,-0.10708361917516498,-0.043521225452423096,0.04597640518002632,-0.006680570542812347,-0.9933065965097728,0.08891577569457178,-2.96849711782165,right,-0.002188265323638916,-0.10176253631335283,-1.0427040490925312,-9.700034960886835,-0.05763689551050594,0.022761270403862,-0.0006220787763595581,0.9962283483173697,-0.00023435801267623901
1745971751263549400,8.824549560546876,-0.10754803365841073,-0.030040370300412178,0.045585764725664286,-0.010072187520563602,-0.9933808811657956,0.08817909180680462,-2.9699608538905546,right,0.0020599961280822754,-0.10093276602111098,-1.0472971490364522,-9.700368138363956,-0.05779955704844306,0.01541994046419859,-0.0013089776039123535,0.988132866275683,-0.004053562879562378
1745971751303549400,8.864549560546875,-0.10791507045540129,-0.0013409014791250229,0.04536332069051173,-0.0028274659998714924,-0.9934094740674642,0.08787318704688322,-2.9705711945875106,right,0.004180967807769775,-0.10048209949304679,-1.0509053295962512,-9.700424836987256,-0.05794936586632318,0.007292822934687138,-0.0009160265326499939,0.9837357272952795,-0.004340089857578278
1745971751343549700,8.9045498046875,-0.10779657992790827,0.023950902745127678,0.04530243652387771,0.007576738949865103,-0.9933932791592617,0.08812104090250411,-2.97006164206535,right,0.0019641518592834473,-0.10037878277048706,-1.0497669001508503,-9.700650462436675,-0.05789779524329606,0.0010559321381151676,-0.0009151920676231384,0.9827276462312787,-0.0021180883049964905
1745971751383549700,8.9445498046875,-0.10758676167304801,0.02301100455224514,0.045224464059622715,0.005768741946667433,-0.9933577891214985,0.08861648448062197,-2.969048812471608,right,-0.0004163980484008789,-0.1002621766531979,-1.0477437968254089,-9.700984224435686,-0.057811663765577906,0.005219854414463043,0.00006311386823654175,0.9815898743730038,0.000413358211517334
1745971751423549700,8.9845498046875,-0.10729644255981732,0.007909736596047878,0.04499210899539866,0.010194684378802776,-0.9933471761832406,0.08894869892122931,-2.9683443604074276,right,0.00030928850173950195,-0.09980956306440254,-1.0449748435687274,-9.701728905323147,-0.057664477253396525,0.015506068244576454,0.0014166384935379028,0.9771734461702406,0.0014511644840240479
1745971751463549700,9.0245498046875,-0.10684672121303401,-0.007769293151795864,0.04457195802474635,0.017398560419678688,-0.993381932472502,0.08893980061249242,-2.968298483058911,right,0.0019336342811584473,-0.09892644703306763,-1.040703230664134,-9.703052262881398,-0.05740519983594494,0.0260818712413311,0.002032063901424408,0.968555766885355,-0.0008977353572845459
1745971751503549700,9.0645498046875,-0.1063431934596944,-0.019458675757050514,0.04407758268738938,0.010376826860010624,-0.9934475225405665,0.08864971304085291,-2.968807535313485,right,0.00010949373245239258,-0.09785728093588777,-1.0359266639120877,-9.704598907801508,-0.05709913612075917,0.024217452853918076,0.0010343268513679504,0.958121539697796,-0.0011633634567260742
1745971751543549400,9.104549560546875,-0.10583867293519841,-0.01743004284799099,0.04371225132430261,0.013875411823391914,-0.9935143028293503,0.08827376310288146,-2.969501978476983,right,-0.00033271312713623047,-0.09703745616538205,-1.0311130530852823,-9.705898299962282,-0.05679912835868409,0.01431744359433651,0.001492910087108612,0.9501199464846402,-0.003802374005317688
1745971751583549700,9.1445498046875,-0.10538605526006957,-0.01077914610505104,0.043502757281173754,0.014747843146324158,-0.993566258170891,0.08795840414442341,-2.970092840216291,right,-0.0006157159805297852,-0.09654212466726789,-1.0267692517273128,-9.706830612376331,-0.05654083227435719,0.003009290434420109,0.001962326467037201,0.9452850736740976,-0.004085928201675415
1745971751623549700,9.1845498046875,-0.10512033705869063,-0.004182014148682356,0.04369879739611281,0.0022973129525780678,-0.9935657991078359,0.0879418277704977,-2.9701324337399524,right,-0.001291811466217041,-0.09691080926305133,-1.0241532970752567,-9.706756378096342,-0.056423244018837304,-0.007118433713912964,0.0018950030207633972,0.9488837557531893,-0.001634165644645691
1745971751663549700,9.2245498046875,-0.10485463505015942,0.002415117807686329,0.04389483751105186,-0.010153216309845448,-0.993565340044781,0.08792525139657194,-2.970171948260238,right,-0.001968204975128174,-0.09727951454572396,-1.021537488553673,-9.706679221206903,-0.05630565576331742,-0.017246156930923462,0.0018277168273925781,0.9524825108975171,0.0008175894618034363
1745971751703549700,9.2645498046875,-0.10505310470859136,0.005594286136329174,0.04421719158402118,-0.010993139818310738,-0.9935372992719153,0.08799780779543312,-2.9700671730289128,right,-0.000959932804107666,-0.09795162422391238,-1.023396560423821,-9.705837509685754,-0.056434405773917194,-0.019799550995230675,0.0013198629021644592,0.9590422347392886,0.0005326420068740845
1745971751743549700,9.3045498046875,-0.10551766268046013,0.00951547920703888,0.04452838109744456,-0.01603061892092228,-0.9934959237272681,0.08813759458825146,-2.969839470124893,right,-0.00042623281478881836,-0.09863189938619822,-1.027836442567408,-9.704709966960548,-0.05669843645546313,-0.015466202050447464,0.0008284300565719604,0.9656813074275851,-0.0004933476448059082
1745971751783549400,9.344549560546875,-0.10597475022873329,0.011677266098558903,0.04479857211879488,-0.010975101962685585,-0.9934479221047645,0.08837329819314949,-2.9694151595557736,right,-0.0006033778190612793,-0.09924044102507247,-1.0322098353460432,-9.703653151383996,-0.0569602301470993,-0.013580292463302612,-0.0013015717267990112,0.9716198306310921,-0.002397298812866211
1745971751823549400,9.384549560546875,-0.10626971496065148,0.018096009269356728,0.04486132837479228,-0.0034747980535030365,-0.9934045132250697,0.08871908270418508,-2.9687416514884375,right,0.0017207860946655273,-0.09943166002593329,-1.035052365295589,-9.703163322040439,-0.05712980482670427,-0.004260094836354256,-0.00042763352394104004,0.9734858436986803,-0.002231590449810028
1745971751863549700,9.4245498046875,-0.10641143025194273,0.007463027723133564,0.044821630761367394,-0.0019741326104849577,-0.9933779167786247,0.08898507779187782,-2.9682107507839324,right,0.0025802254676818848,-0.09939498808437285,-1.0364311793681233,-9.703051678359508,-0.05721056217480159,0.0016733244992792606,-0.00023999065160751343,0.9731279701717197,0.0018421560525894165
1745971751903549700,9.4645498046875,-0.10641143025194273,-0.009360055439174175,0.044821630761367394,0.006078723818063736,-0.9933779167786247,0.08898507779187782,-2.9682107507839324,right,-0.0005304813385009766,-0.09939498808437285,-1.0364311793681233,-9.703051678359508,-0.05721056217480159,0.004430467262864113,0.00019712746143341064,0.9731279701717197,0.0013608187437057495
1745971751943549700,9.5045498046875,-0.10592625328802746,-0.016840044409036636,0.044655952304821916,0.014827972277998924,-0.9934232645836465,0.08873309670439623,-2.9686764690284853,right,-0.0004947185516357422,-0.09899145045726979,-1.031764794992283,-9.70394307424128,-0.05694228861037402,-0.0007684575393795967,0.0016228631138801575,0.9691900462009012,0.001111738383769989
1745971751983549700,9.5445498046875,-0.10564661013610445,-0.02805117703974247,0.04476519010904535,0.006799507886171341,-0.9934671557805811,0.08828355731825419,-2.9695758747053063,right,-0.0014157295227050781,-0.0991349052127508,-1.0290364660069347,-9.70409329636693,-0.05678925155360651,-0.019144393503665924,0.0026687905192375183,0.9705899761267006,0.002774760127067566
1745971752023549400,9.584549560546876,-0.10563366501493165,-0.03493068739771843,0.045188486563613454,0.001732400618493557,-0.9935065301875903,0.08762532838721042,-2.970937923826249,right,-0.002118408679962158,-0.09990769615264354,-1.028831444954127,-9.703357383307814,-0.05678415540204427,-0.02938915230333805,0.003169834613800049,0.9781309660907834,0.001478150486946106
1745971752063549400,9.624549560546875,-0.10566627762389633,-0.031768571585416794,0.04574249067174321,-0.00540184648707509,-0.9935389476097569,0.08695087706181322,-2.9723475376304767,right,-0.001782238483428955,-0.10094474330434781,-1.0290403384644538,-9.702309920081495,-0.056810832305681236,-0.026512665674090385,0.0020302683115005493,0.9882496975883841,0.00004507601261138916
1745971752103549700,9.6645498046875,-0.10574456813397023,-0.02016580104827881,0.04622589946385414,-0.002546026837080717,-0.9935599635939175,0.08642025486434006,-2.9734638078183133,right,-0.00048720836639404297,-0.10186039427368966,-1.0297039900049567,-9.701325585219264,-0.05686130470234604,-0.0219914261251688,0.002321496605873108,0.9971830186937004,-0.002368234097957611
1745971752143549700,9.7045498046875,-0.1058690509618696,-0.00954106543213129,0.046628684925305544,-0.006533812265843153,-0.9935628157867055,0.08611924936517228,-2.974113703160154,right,-0.0017499327659606934,-0.10264442121616373,-1.030828756251186,-9.700417238202691,-0.05693976509399153,-0.018492944538593292,0.0012706965208053589,1.0048315606854856,-0.002586677670478821
1745971752183549700,9.7445498046875,-0.10622177129592537,-0.0034236209467053413,0.04698805354991262,-0.010355034843087196,-0.9935450343590416,0.0859972636665073,-2.9744117608394034,right,-0.0015328526496887207,-0.10338091771715334,-1.034171417742595,-9.699314245396852,-0.05713770354440137,-0.02072152867913246,0.0006827637553215027,1.012015846166387,-0.0019055232405662537
1745971752223549700,9.7845498046875,-0.106444252978649,-0.001666757743805647,0.04729482375204978,-0.007206400856375694,-0.9935315717619136,0.08589927665207187,-2.9746500569555736,right,-0.000732719898223877,-0.10400369795103712,-1.0362621794767677,-9.698455582740902,-0.05726765826461069,-0.019732244312763214,0.00039514899253845215,1.0180904168397187,-0.0009690374135971069
1745971752263549400,9.824549560546876,-0.1066668781898917,0.00009010545909404755,0.04760158456768101,-0.004057766869664192,-0.9935178944055328,0.08580128165405693,-2.9748884552913166,right,0.00006693601608276367,-0.10462640858974226,-1.0383535987980663,-9.697592243909835,-0.057397601262731184,-0.018742958083748817,0.00010760128498077393,1.0241639645997433,-0.00003244727849960327
1745971752303549400,9.864549560546875,-0.1066668781898917,0.002459365176036954,0.04760158456768101,-0.004894285928457975,-0.9935178944055328,0.08580128165405693,-2.9748884552913166,right,0.00001329183578491211,-0.10462640858974226,-1.0383535987980663,-9.697592243909835,-0.057397601262731184,-0.012583808973431587,0.0003960356116294861,1.0241639645997433,0.0006696656346321106
1745971752343549700,9.9045498046875,-0.1068580942726132,0.0015956423012539744,0.04792495508840491,-0.0031603286042809486,-0.9934927113297334,0.0858312308488038,-2.9748701474509556,right,-0.0012395381927490234,-0.10529464179783665,-1.0401347100611775,-9.696710784900187,-0.05751983346851853,-0.008565783500671387,0.0003881007432937622,1.0306810183435677,0.0007764622569084167
1745971752383549700,9.9445498046875,-0.1068580942726132,0.001815848983824253,0.04792495508840491,-0.002765201497823,-0.9934927113297334,0.0858312308488038,-2.9748701474509556,right,-0.0009512901306152344,-0.10529464179783665,-1.0401347100611775,-9.696710784900187,-0.05751983346851853,-0.005417653359472752,0.0003401637077331543,1.0306810183435677,0.0012578144669532776
1745971752423549700,9.9845498046875,-0.1071303417204372,0.002021819120272994,0.04821580961405964,-0.0036212257109582424,-0.9934662468855568,0.08586672386505398,-2.9748418540457306,right,-0.00041234493255615234,-0.10590504321775777,-1.0427070447672158,-9.695800099796056,-0.057680235425096794,-0.009608117863535881,0.00039517879486083984,1.0366336431376635,-0.00019931793212890625
1745971752463549700,10.0245498046875,-0.1071303417204372,0.0008712591370567679,0.04821580961405964,-0.003052568295970559,-0.9934662468855568,0.08586672386505398,-2.9748418540457306,right,0.0006573200225830078,-0.10590504321775777,-1.0427070447672158,-9.695800099796056,-0.057680235425096794,-0.0036535244435071945,0.00032510608434677124,1.0366336431376635,-0.0004275292158126831
1745971752503549700,10.0645498046875,-0.1071303417204372,0.0017454670742154121,0.04821580961405964,-0.003872264176607132,-0.9934662468855568,0.08586672386505398,-2.9748418540457306,right,0.0003464818000793457,-0.10590504321775777,-1.0427070447672158,-9.695800099796056,-0.057680235425096794,0.0006967391818761826,-0.0001656562089920044,1.0366336431376635,0.00009579956531524658
1745971752543549400,10.104549560546875,-0.1071303417204372,0.002300143474712968,0.04821580961405964,-0.0045738001354038715,-0.9934662468855568,0.08586672386505398,-2.9748418540457306,right,-0.00026917457580566406,-0.10590504321775777,-1.0427070447672158,-9.695800099796056,-0.057680235425096794,0.0015337375225499272,-0.00036673247814178467,1.0366336431376635,0.0014591589570045471
1745971752583549700,10.1445498046875,-0.1071303417204372,0.010077008977532387,0.04821580961405964,0.0026426678523421288,-0.9934662468855568,0.08586672386505398,-2.9748418540457306,right,0.0007143616676330566,-0.10590504321775777,-1.0427070447672158,-9.695800099796056,-0.057680235425096794,-0.002899144310504198,-0.0002705007791519165,1.0366336431376635,0.0009274184703826904
1745971752623549700,10.1845498046875,-0.10710982439998347,0.020924484357237816,0.0484014802606471,0.013499489985406399,-0.9934147953290788,0.08633629673189216,-2.9739164233244453,right,0.0017719864845275879,-0.10633059733380779,-1.0424608879864214,-9.69538158212304,-0.057709514854218644,0.001022891141474247,0.0011435598134994507,1.0407834562934934,-0.0008452311158180237
1745971752663549700,10.2245498046875,-0.10659974082139541,0.02678326517343521,0.04845587693461686,0.014450902119278908,-0.9933749438519309,0.08690856824197173,-2.9727458961332944,right,-0.0005879402160644531,-0.10646343816565029,-1.037500562165305,-9.695774965354799,-0.057489880426586544,0.006535666529089212,0.0017302930355072021,1.042078756801039,-0.001194693148136139
1745971752703549700,10.2645498046875,-0.10605982643545943,0.02609981968998909,0.04835237011747509,0.005026031285524368,-0.9933410798443512,0.08751290716557601,-2.971493885414962,right,-0.0019881129264831543,-0.10628002987582073,-1.0322857501264662,-9.6965231533736,-0.057244537087648935,0.006868474651128054,0.0012972280383110046,1.0402903390143066,0.0005090460181236267
1745971752743549700,10.3045498046875,-0.1059683813503789,0.022684287279844284,0.048209598832319144,0.0008312622085213661,-0.9933016306797078,0.08805611143091319,-2.970384491114261,right,-0.0003364682197570801,-0.10604851518472,-1.0314245301872491,-9.69685691537261,-0.05721638820085212,0.006531641352921724,0.0022450610995292664,1.0380327693458646,0.000780835747718811
1745971752783549400,10.344549560546875,-0.10604001308767715,0.018096579238772392,0.048036567771104946,-0.0011195747647434473,-0.9932682584436197,0.08849681098668197,-2.9694865379953344,right,0.0007616877555847168,-0.10575836725615086,-1.0321509447656572,-9.697081956300138,-0.05726157292021722,0.005907504819333553,0.002585373818874359,1.0352033180736004,0.0012921690940856934
1745971752823549400,10.384549560546875,-0.10645730966672337,0.005172606557607651,0.047905787417033205,-0.007988780736923218,-0.9932531013279033,0.08860594264492355,-2.9692765490355364,right,0.0013640522956848145,-0.10554446637541871,-1.0362208976183087,-9.696870359376073,-0.057464978518449616,0.007388824597001076,0.0027810558676719666,1.0331173055797815,0.0001370757818222046
1745971752863549700,10.4245498046875,-0.10687464382328665,-0.007751367054879665,0.047775003956835004,-0.014857987873256207,-0.9932379442121866,0.08871507430316507,-2.9690664982143073,right,0.001966238021850586,-0.10533066017732871,-1.0402912157971411,-9.696656424364447,-0.057668377280711954,0.008870145305991173,0.0029767677187919617,1.0310322429340333,-0.0010181143879890442
1745971752903549700,10.4645498046875,-0.10687464382328665,-0.002896256744861603,0.047775003956835004,-0.01326726470142603,-0.9932379442121866,0.08871507430316507,-2.9690664982143073,right,-0.0016492009162902832,-0.10533066017732871,-1.0402912157971411,-9.696656424364447,-0.057668377280711954,-0.007038360461592674,0.001485772430896759,1.0310322429340333,-0.00023226439952850342
1745971752943549700,10.5045498046875,-0.10761202764226417,0.0005555350799113512,0.047892485292444435,-0.01517835445702076,-0.9932118076455245,0.08869769225893702,-2.9691515668139186,right,-0.00009447336196899414,-0.10562796997706848,-1.0474080620650201,-9.695581488609314,-0.05804489131775528,-0.011503739282488823,0.0020555779337882996,1.0339316907025873,-0.00046221911907196045
1745971752983549700,10.5445498046875,-0.10814154114541054,-0.00007650250336155295,0.04813517101694512,-0.0059495968744158745,-0.9931854316905833,0.08867695967984852,-2.9692451540032967,right,-0.0003089308738708496,-0.10615821068750317,-1.0524825888503342,-9.694479664847254,-0.0583276028785374,-0.013501634821295738,0.0024521276354789734,1.0391024444039911,0.00033214688301086426
1745971753023549400,10.584549560546876,-0.10814154114541054,-0.0007102095987647772,0.04813517101694512,-0.0058683366514742374,-0.9931854316905833,0.08867695967984852,-2.9692451540032967,right,-0.0022054314613342285,-0.10615821068750317,-1.0524825888503342,-9.694479664847254,-0.0583276028785374,-0.010723209008574486,0.002194344997406006,1.0391024444039911,-0.0010250285267829895
1745971753063549400,10.624549560546875,-0.10863967969626938,0.0007736339466646314,0.04843681071563152,-0.009137380868196487,-0.993158820951967,0.08863272763807382,-2.9693903917968405,right,-0.0013249516487121582,-0.10680123651483724,-1.0572389895971863,-9.693287824714183,-0.05859812053553876,-0.009352277964353561,0.0009917691349983215,1.045372610714659,-0.0008308589458465576
1745971753103549700,10.6645498046875,-0.10863967969626938,0.006206156685948372,0.04843681071563152,-0.006555307190865278,-0.993158820951967,0.08863272763807382,-2.9693903917968405,right,-0.000972449779510498,-0.10680123651483724,-1.0572389895971863,-9.693287824714183,-0.05859812053553876,-0.004450167529284954,0.00093860924243927,1.045372610714659,-0.0009962841868400574
1745971753143549700,10.7045498046875,-0.10913508184868242,0.012917524203658104,0.048682931224291695,-0.009302875027060509,-0.9931043860798144,0.08891911074175599,-2.968866299739141,right,-0.0015941858291625977,-0.10737186370806485,-1.0619757357954978,-9.692168465295433,-0.05888052347009459,-0.008808452636003494,0.000339604914188385,1.0509365284521133,-0.0008575767278671265
1745971753183549700,10.7445498046875,-0.10964528234296544,0.018361380323767662,0.04885122056540292,-0.012279433198273182,-0.9930443139933494,0.08930507028405357,-2.968135487370987,right,0.000030159950256347656,-0.10779978987728361,-1.0668712527520954,-9.691177116170525,-0.059169490362634726,-0.005961459130048752,0.0010481327772140503,1.0551087726354598,-0.0009034276008605957
1745971753223549700,10.7845498046875,-0.11004855747378334,0.020288696512579918,0.04895175157085341,-0.012821795418858528,-0.9929857242257745,0.08974594076186311,-2.967281983258306,right,-0.0000776052474975586,-0.10808943401134767,-1.070745756097883,-9.690441787633299,-0.05940269752515812,-0.002640244085341692,0.0009706392884254456,1.0579326709497718,-0.00020140409469604492
1745971753263549400,10.824549560546876,-0.11054188114817981,0.02577783353626728,0.04901006023898914,-0.019603624939918518,-0.9929229578063552,0.09022351326942894,-2.966355370722658,right,-0.0004292726516723633,-0.10830703253608877,-1.0755007686052471,-9.689683662742375,-0.059679459638349,-0.0031123056542128325,0.0004725828766822815,1.0600541200831533,-0.0004847496747970581
1745971753303549400,10.864549560546875,-0.11119537185276993,0.03064132295548916,0.04909662896266144,-0.021919868886470795,-0.9928405842061173,0.09083736412833587,-2.965166631228062,right,-0.00045096874237060547,-0.10861250166971491,-1.0817966538790613,-9.688656657782197,-0.060045949838284186,-0.004263564012944698,0.001794569194316864,1.06303218604587,0.0003307610750198364
1745971753343549700,10.9045498046875,-0.11168343782142737,0.03098408132791519,0.04920079979454132,-0.014278319664299488,-0.9927587703218623,0.09148332877351761,-2.963906395211499,right,-0.00018799304962158203,-0.10894340313739821,-1.0864859807390719,-9.687776952338218,-0.06033327603006287,-0.0018302181269973516,0.000748947262763977,1.066258016224578,0.0001382008194923401
1745971753383549700,10.9445498046875,-0.1119594436464335,0.02501722425222397,0.049206589627074804,-0.008002122864127159,-0.9926915815511245,0.09209365805585783,-2.9626961172522934,right,0.001423954963684082,-0.1090541829729258,-1.0891465782504528,-9.687359603708982,-0.06050479994787834,0.0007675832603126764,0.0005798861384391785,1.067337920415774,0.001843869686126709
1745971753423549700,10.9845498046875,-0.11182838101606557,0.014706217683851719,0.049172494277863736,-0.005398171488195658,-0.9926702668177333,0.092375995235569,-2.9621184574951975,right,0.0005898475646972656,-0.10900853181648473,-1.087882403533533,-9.68755074236691,-0.06045198829457666,0.004265402443706989,0.0005840733647346497,1.06689295312725,0.0015052184462547302
1745971753463549700,11.0245498046875,-0.11169735526713126,0.004395212046802044,0.04913839892865202,-0.0027942198794335127,-0.9926489012962716,0.09265836361280069,-2.961540748734504,right,-0.0002442598342895508,-0.1089628225838245,-1.0866185210775583,-9.687741296502947,-0.06039917664127664,0.0077632213942706585,0.0005882903933525085,1.0664473282516003,0.0011666417121887207
1745971753503549700,11.0645498046875,-0.11169735526713126,0.007609313353896141,0.04913839892865202,-0.0026070137973874807,-0.9926489012962716,0.09265836361280069,-2.961540748734504,right,-0.0007711648941040039,-0.1089628225838245,-1.0866185210775583,-9.687741296502947,-0.06039917664127664,0.019340788945555687,0.00018835067749023438,1.0664473282516003,-0.003317601978778839
1745971753543549400,11.104549560546875,-0.11132373828044646,0.02130988799035549,0.048680453252846326,0.007336056791245937,-0.9926453991285322,0.09306763393540442,-2.9606517009377025,right,-0.00031876564025878906,-0.10805968270723332,-1.0831054714553057,-9.689099725374579,-0.06019627244306667,0.020511461421847343,0.0000777021050453186,1.0576426750272512,-0.0013730153441429138
1745971753583549700,11.1445498046875,-0.11088624717480805,0.03422803804278374,0.04834976458991231,0.006203328724950552,-0.9926107709778117,0.09374281368152101,-2.9592384244512484,right,0.0001767277717590332,-0.10743812551646327,-1.0789389994256198,-9.690224345490336,-0.05998624297209664,0.012965650297701359,0.0007581710815429688,1.0515825712706892,-0.0007527768611907959
1745971753623549700,11.1845498046875,-0.11071989739828618,0.03770914673805237,0.04816709776343971,-0.000849574338644743,-0.992547870782276,0.09453504128099843,-2.95761956843188,right,-0.0005109906196594238,-0.10715222538601338,-1.0773602058015763,-9.69070189987421,-0.05993013686658648,0.008049232885241508,0.0014540553092956543,1.048794986378774,-0.0003566816449165344
1745971753663549700,11.2245498046875,-0.11077361619076843,0.035378579050302505,0.048018123715497414,-0.010551083832979202,-0.9924774941160499,0.09531122568437501,-2.9560479918686897,right,-0.0006119012832641602,-0.10695221596718675,-1.0779039572894573,-9.69085270652175,-0.059985683016297614,0.011325133964419365,0.0006655529141426086,1.0468448021590708,-0.0005521625280380249
1745971753703549700,11.2645498046875,-0.11112098334177072,0.03255565091967583,0.047830722919172994,-0.018064012750983238,-0.9924009534253074,0.09607566717139435,-2.9545116023528912,right,-0.0004336833953857422,-0.10670122097980718,-1.0812992988161743,-9.690738140231371,-0.06018359406351913,0.009846328757703304,0.0010932385921478271,1.0443974090069532,0.0009043961763381958
1745971753743549700,11.3045498046875,-0.11129522701185406,0.026901813223958015,0.04765516099200292,-0.012615956366062164,-0.9923406474543455,0.0967166744719268,-2.9532150056035062,right,-0.0009818077087402344,-0.10644316236902265,-1.0830177201066165,-9.690817050686478,-0.060289328953135976,0.014231571927666664,0.0003250390291213989,1.0418811153370886,0.000331096351146698
1745971753783549400,11.344549560546875,-0.11114851093706372,0.014822207391262054,0.047383057204607705,0.002584320493042469,-0.992316753113999,0.09714182875804547,-2.9523253792785438,right,-0.0008040070533752441,-0.10593472506968336,-1.081654468929395,-9.691501525819302,-0.060214519490398966,0.016202259808778763,-0.00005777180194854736,1.036923127603531,0.0005022063851356506
1745971753823549400,11.384549560546875,-0.11091111455713006,0.0033461004495620728,0.047109468251042466,0.0031416669953614473,-0.9923207980057159,0.09731604216695793,-2.9519350979041215,right,-0.0003286600112915039,-0.10538401296484952,-1.0794167730052024,-9.69232394811809,-0.06008078735997513,0.012864470481872559,-0.000023677945137023926,1.0315526135463267,0.00020532310009002686
1745971753863549700,11.4245498046875,-0.11091111455713006,0.0004493424203246832,0.047109468251042466,0.006190004292875528,-0.9923207980057159,0.09731604216695793,-2.9519350979041215,right,0.001725316047668457,-0.10538401296484952,-1.0794167730052024,-9.69232394811809,-0.06008078735997513,0.009628877975046635,0.0016537532210350037,1.0315526135463267,-0.0019907206296920776
1745971753903549700,11.4645498046875,-0.11045098931734161,0.0034204968251287937,0.046890293987656796,0.0073408144526183605,-0.9923442972193294,0.09733539401147692,-2.9518500410301782,right,0.000298917293548584,-0.10490255706209699,-1.0750115968488156,-9.693311790111661,-0.0598324510088737,0.0028668385930359364,0.0007414594292640686,1.0268572222717105,-0.0012195780873298645
1745971753943549700,11.5045498046875,-0.11045098931734161,-0.001469749491661787,0.046890293987656796,0.005209361203014851,-0.9923442972193294,0.09733539401147692,-2.9518500410301782,right,-0.0005164146423339844,-0.10490255706209699,-1.0750115968488156,-9.693311790111661,-0.0598324510088737,-0.002536931075155735,0.0015582367777824402,1.0268572222717105,0.00014559179544448853
1745971753983549700,11.5445498046875,-0.11045098931734161,-0.0082505252212286,0.046890293987656796,0.004811608698219061,-0.9923442972193294,0.09733539401147692,-2.9518500410301782,right,-0.0004616379737854004,-0.10490255706209699,-1.0750115968488156,-9.693311790111661,-0.0598324510088737,-0.0007555708289146423,0.002279728651046753,1.0268572222717105,0.000373251736164093
1745971754023549400,11.584549560546876,-0.10996618462069017,-0.0074853417463600636,0.04687939787628941,0.0009671084117144346,-0.9923843224115286,0.09708864109196783,-2.952319503008057,right,-0.0011113882064819336,-0.10480490728334171,-1.0703231467716394,-9.693931967836617,-0.059576431684765674,-0.0017399152275174856,0.0018977746367454529,1.0259048169177025,-0.000423237681388855
1745971754063549400,11.624549560546875,-0.10948136825764197,-0.0067201582714915276,0.046868500971358425,-0.0028773914091289043,-0.9924243476037277,0.09684188817245863,-2.952789056173771,right,-0.001761317253112793,-0.10470750935033114,-1.0656341121725736,-9.694548638430238,-0.0593204128481189,-0.002724259626120329,0.0015157833695411682,1.0249548957817256,-0.0012200027704238892
1745971754103549700,11.6645498046875,-0.10948136825764197,0.0009040967561304569,0.046868500971358425,-0.004851932637393475,-0.9924243476037277,0.09684188817245863,-2.952789056173771,right,-0.0003128647804260254,-0.10470750935033114,-1.0656341121725736,-9.694548638430238,-0.0593204128481189,-0.001739499275572598,0.0016260743141174316,1.0249548957817256,-0.003204621374607086
1745971754143549700,11.7045498046875,-0.10948136825764197,0.006678250152617693,0.046868500971358425,-0.00908649992197752,-0.9924243476037277,0.09684188817245863,-2.952789056173771,right,-0.0002117753028869629,-0.10470750935033114,-1.0656341121725736,-9.694548638430238,-0.0593204128481189,0.0039984998293221,0.0014648288488388062,1.0249548957817256,-0.0028542131185531616
1745971754183549700,11.7445498046875,-0.10948136825764197,0.01246454007923603,0.046868500971358425,-0.003169056959450245,-0.9924243476037277,0.09684188817245863,-2.952789056173771,right,-0.0003165006637573242,-0.10470750935033114,-1.0656341121725736,-9.694548638430238,-0.0593204128481189,0.003110256278887391,-0.0005957335233688354,1.0249548957817256,-0.0021811947226524353
1745971754223549700,11.7845498046875,-0.10977435046703368,0.0019825883209705353,0.04691252788579715,0.00442955456674099,-0.9923896632611175,0.09707535727790949,-2.9523395473595464,right,0.0009872913360595703,-0.10485168072848475,-1.0684582296825944,-9.694089204224943,-0.059482911448337505,-0.0066539812833070755,0.0012634024024009705,1.0263610362526028,0.0013618022203445435
1745971754263549400,11.824549560546876,-0.11006727835127526,-0.00849936343729496,0.04695655090054581,0.012028167024254799,-0.9923549789185072,0.09730882638336023,-2.951890104614215,right,0.0022910237312316895,-0.10499599172103512,-1.071281543475017,-9.69362860097587,-0.059645403700047304,-0.0164182186126709,0.003122471272945404,1.0277684188324958,0.004904665052890778
1745971754303549400,11.864549560546875,-0.10983487426462922,-0.020006604492664337,0.047214404084047285,0.008359594270586967,-0.9923669199181728,0.0971255628077155,-2.9522721621265693,right,-0.001089632511138916,-0.10546970236908725,-1.068975166228786,-9.693391869610547,-0.05954275535451163,-0.014333459548652172,0.002668216824531555,1.0323882606528698,0.004185333847999573
1745971754343549700,11.9045498046875,-0.10984967819062268,-0.02191428281366825,0.04746245127605382,0.00028561800718307495,-0.9923943771625581,0.09671759656882607,-2.9531175290400804,right,-0.003398001194000244,-0.10592006828432095,-1.0690675937525926,-9.692913146182894,-0.059550620921278635,-0.007076004054397345,0.0020935162901878357,1.0367802120015024,-0.0010409876704216003
1745971754383549700,11.9445498046875,-0.11026197553867388,-0.010510332882404327,0.04744342185709117,-0.009906575083732605,-0.9924144116912519,0.09640561677619315,-2.953764144094926,right,-0.000540614128112793,-0.10588299807458061,-1.073068134630844,-9.69250982607901,-0.05973817749351022,0.006491855252534151,0.0022744983434677124,1.0364186852127313,-0.004312671720981598
1745971754423549700,11.9845498046875,-0.11026197553867388,0.00994856096804142,0.04744342185709117,-0.009135487489402294,-0.9924144116912519,0.09640561677619315,-2.953764144094926,right,-0.000024318695068359375,-0.10588299807458061,-1.073068134630844,-9.69250982607901,-0.05973817749351022,0.005466880276799202,0.00026385486125946045,1.0364186852127313,-0.004730194807052612
1745971754463549700,12.0245498046875,-0.11071508461980205,0.017400793731212616,0.04723691477109717,-0.007591636851429939,-0.992372092706131,0.09679906843644898,-2.952976459677099,right,0.0016360282897949219,-0.10555860196573737,-1.0774968377932905,-9.692356096822023,-0.059966930505709934,-0.0017589968629181385,-0.0001697242259979248,1.0332551796805114,-0.00021810084581375122
1745971754503549700,12.0645498046875,-0.1107645675629888,0.004376164637506008,0.047298244279131624,0.006419282406568527,-0.9923423788386536,0.09704746192839972,-2.952486219489996,right,0.003978073596954346,-0.10571659643440143,-1.0779583908904342,-9.692140408244729,-0.06001026181143528,-0.009309474378824234,0.002049177885055542,1.0347959793817252,0.0028112828731536865
1745971754543549400,12.104549560546875,-0.11032748806851414,-0.009081968106329441,0.047429870109366674,0.011807622388005257,-0.9923564247630419,0.09697000145647984,-2.952632247377983,right,-0.0005791783332824707,-0.10593022138549424,-1.0736977377712726,-9.692390583613514,-0.059799673961041834,-0.002318228594958782,0.0011794716119766235,1.036879215396568,0.0007988214492797852
1745971754583549700,12.1445498046875,-0.11032748806851414,-0.006891516037285328,0.047429870109366674,0.0013307509943842888,-0.9923564247630419,0.09697000145647984,-2.952632247377983,right,-0.0017700791358947754,-0.10593022138549424,-1.0736977377712726,-9.692390583613514,-0.059799673961041834,-0.0003650002181529999,0.002536274492740631,1.036879215396568,-0.0003573670983314514
1745971754623549700,12.1845498046875,-0.11032748806851414,0.0068190377205610275,0.047429870109366674,-0.005217089783400297,-0.9923564247630419,0.09697000145647984,-2.952632247377983,right,-0.0023705363273620605,-0.10593022138549424,-1.0736977377712726,-9.692390583613514,-0.059799673961041834,-0.001829803572036326,0.0018227249383926392,1.036879215396568,-0.0013090446591377258
1745971754663549700,12.2245498046875,-0.11032748806851414,0.02052959054708481,0.047429870109366674,-0.011764930561184883,-0.9923564247630419,0.09697000145647984,-2.952632247377983,right,-0.0029709935188293457,-0.10593022138549424,-1.0736977377712726,-9.692390583613514,-0.059799673961041834,-0.0032946066930890083,0.0011091753840446472,1.036879215396568,-0.0022607222199440002
1745971754703549700,12.2645498046875,-0.11073652538892872,0.027131004258990288,0.04762049570239573,-0.020613284781575203,-0.9922771672789483,0.09753073351849642,-2.9515463054902167,right,-0.0006592273712158203,-0.10641981602136359,-1.0776059241909532,-9.691444827196001,-0.060050804533323884,-0.004108245484530926,0.00007698684930801392,1.0416534440610556,-0.00145045667886734
1745971754743549700,12.3045498046875,-0.11125188001728384,0.027066227048635483,0.04774626523563237,-0.01349375769495964,-0.9921966435963624,0.09810238636590178,-2.950437578273497,right,0.0010789036750793457,-0.10679118837199829,-1.082557336053252,-9.690503162431716,-0.06034998473544676,-0.007151896134018898,-0.00020182132720947266,1.0452747032981364,-0.0010903701186180115
1745971754783549400,12.344549560546875,-0.11169367482226741,0.02199091576039791,0.047903260848351926,-0.011677170172333717,-0.9921211064094937,0.09862578734823199,-2.9494251347557006,right,0.0018926262855529785,-0.10721293043190581,-1.0867892014693468,-9.689584878543018,-0.06061285430581264,-0.013957392424345016,0.0012891590595245361,1.0493868878573178,0.00002775341272354126
1745971754823549400,12.384549560546875,-0.11182790357740176,0.013760526664555073,0.0482286889501352,0.0071203988045454025,-0.9920623166672775,0.0989857066150832,-2.948742089422255,right,0.00377732515335083,-0.10792369080098702,-1.0880062491089104,-9.688695820748805,-0.06072884728414525,-0.026266004890203476,0.0029522106051445007,1.0563167601857333,-0.00006370991468429565
1745971754863549700,12.4245498046875,-0.1110426178578838,0.026847777888178825,0.04887979996565424,0.014209181070327759,-0.9920122941542753,0.09935898751657461,-2.9480157095386685,right,-0.0011186003684997559,-0.10920147312829313,-1.0802470863495022,-9.688197808098792,-0.06041647849292778,-0.037125349044799805,0.0015926659107208252,1.068773798437789,-0.0007626190781593323
1745971754903549700,12.4645498046875,-0.11058562084181008,0.04144994169473648,0.04976580782451795,-0.004293713718652725,-0.9919061735380003,0.10004247745510682,-2.9467060702808783,right,-0.003217160701751709,-0.11102052768085714,-1.0756032060664147,-9.686741764071582,-0.060307278914499655,-0.05176101624965668,0.0016458705067634583,1.0865046123743056,0.0009382292628288269
1745971754943549700,12.5045498046875,-0.11060546250572698,0.04778309911489487,0.0508256845819827,-0.01028541661798954,-0.9917531647003553,0.1009272703341735,-2.945034560118894,right,-0.0018535852432250977,-0.11326014889338856,-1.0755240764155984,-9.684278004306554,-0.06046477563590398,-0.05648311227560043,0.0012941882014274597,1.1083297829523682,0.0019188746809959412
1745971754983549700,12.5445498046875,-0.110899583004677,0.03816775232553482,0.05189043605433123,-0.017264079302549362,-0.9915930097271483,0.10177867892816159,-2.943445841546411,right,-0.002250373363494873,-0.11553326946827738,-1.0780907850984482,-9.68143196722567,-0.06075944375220808,-0.05626790598034859,0.0007863640785217285,1.1304757829826324,0.004852592945098877
1745971755023549400,12.584549560546876,-0.1115368206964322,0.02884773537516594,0.05291378010463472,-0.019099121913313866,-0.9914398574675293,0.10246930395536291,-2.9421964068904862,right,-0.00012505054473876953,-0.11773852338746955,-1.0839797700718043,-9.67824223127365,-0.061213592154921205,-0.05359013378620148,0.00019042938947677612,1.1519549896672368,0.004515983164310455
1745971755063549400,12.624549560546875,-0.11249181685640071,0.018033325672149658,0.05388052039576866,-0.02310837432742119,-0.991307518451418,0.10288930198246482,-2.9415053212404008,right,0.0011116862297058105,-0.11982921707112516,-1.092949258469045,-9.674788291427493,-0.06180584666934258,-0.04371436685323715,0.0012309402227401733,1.1723132294978946,0.0007869824767112732
1745971755103549700,12.6645498046875,-0.11334509039291077,0.01232471875846386,0.05461394562391804,-0.020044958218932152,-0.9912086069859685,0.10314746400928068,-2.9411114872866975,right,0.0005249381065368652,-0.12142124624929279,-1.1009916220840066,-9.671985508966445,-0.06231605233236816,-0.031440168619155884,-0.00008750706911087036,1.1878122657943517,0.00011558085680007935
1745971755143549700,12.7045498046875,-0.11432306251884775,0.004699863027781248,0.05511930983741977,-0.021588034927845,-0.9911346986436703,0.10326036703129703,-2.9409952070795784,right,0.0017861723899841309,-0.12254936670499064,-1.1102964799154549,-9.669566757386923,-0.06285822959012766,-0.02415076456964016,0.0005180835723876953,1.19879316707924,0.0011223480105400085
1745971755183549700,12.7445498046875,-0.11502484555745351,0.0023071353789418936,0.0555025811174066,-0.010152487084269524,-0.9910878650517462,0.10326884945533549,-2.941060389513424,right,0.0019444823265075684,-0.12339116125070107,-1.1169658746767788,-9.66777928944826,-0.06324471265090811,-0.01755569688975811,0.0007963627576828003,1.2069859720155596,-0.00071755051612854
1745971755223549700,12.7845498046875,-0.11527374799240553,-0.0017937093507498503,0.05570542805723158,-0.01235072873532772,-0.9910766543883592,0.10318193055317539,-2.941271386158803,right,-0.00003838539123535156,-0.1238126367733041,-1.1193136068467051,-9.6669948610723,-0.06338245535148163,-0.015743445605039597,-0.00047410279512405396,1.2110877082459628,0.0006256699562072754
1745971755263549400,12.824549560546876,-0.11552277653280926,-0.0058945538476109505,0.05590827658418441,-0.014548970386385918,-0.9910654945130425,0.10309498045349481,-2.9414826179757867,right,-0.002021491527557373,-0.12423408167251923,-1.121661996603757,-9.666208094608782,-0.06352019707713095,-0.013931196182966232,-0.0017445161938667297,1.2151889330197125,0.0019689425826072693
1745971755303549400,12.864549560546875,-0.11621158913526894,-0.011362234130501747,0.05620066628434026,-0.013046130537986755,-0.9910491458246966,0.10287215364568154,-2.9420037253730005,right,0.00020933151245117188,-0.12486176087976797,-1.128231218926236,-9.664673724648356,-0.0638769898572218,-0.022424716502428055,0.0002796053886413574,1.2212966753102839,0.004216834902763367
1745971755343549700,12.9045498046875,-0.11655160732449799,-0.010709908790886402,0.0567442275549104,-0.0021757567301392555,-0.9910347256571487,0.10258721425745618,-2.942654814316128,right,0.0005411505699157715,-0.12595113560952384,-1.1313619912326336,-9.662962244555354,-0.06407909358891317,-0.02993100881576538,0.0019601136445999146,1.2318959568664432,0.004026204347610474
1745971755383549700,12.9445498046875,-0.11653881673256218,-0.011744579300284386,0.05733798425443041,0.0021120370365679264,-0.9910304059825918,0.10227977169920373,-2.9433344672777775,right,-0.0017745494842529297,-0.12710326197801936,-1.1310725798320025,-9.661560561063885,-0.0641081607181336,-0.01883101463317871,0.002186030149459839,1.2431041641011833,0.0020130127668380737
1745971755423549700,12.9845498046875,-0.11645469770555032,-0.002882302738726139,0.05761874098174878,0.0003823949955403805,-0.9910372967913885,0.10207393801438394,-2.943772535191955,right,-0.0024667978286743164,-0.12763246937389602,-1.1301833028420805,-9.661000589093565,-0.06407897054572649,-0.00025670789182186127,0.002221927046775818,1.2482517561227082,-0.002385541796684265
1745971755463549700,13.0245498046875,-0.11645469770555032,0.010982758365571499,0.05761874098174878,-0.005170291289687157,-0.9910372967913885,0.10207393801438394,-2.943772535191955,right,-0.002256631851196289,-0.12763246937389602,-1.1301833028420805,-9.661000589093565,-0.06407897054572649,0.019292112439870834,0.001372121274471283,1.2482517561227082,-0.003340981900691986
1745971755503549700,13.0645498046875,-0.11641506484776067,0.017492255195975304,0.056901092193580825,0.0004968373104929924,-0.9910232752575967,0.10264202491522903,-2.942552429401991,right,-0.0006029605865478516,-0.12625995517003497,-1.1299983016639947,-9.662738372671603,-0.06402906208867279,0.021290291100740433,0.0008807852864265442,1.234900399379432,-0.0017677545547485352
1745971755543549400,13.104549560546875,-0.11637713564292161,0.024001751095056534,0.05618339719831977,0.0061639659106731415,-0.9910084142773432,0.10320999789616464,-2.9413326405799403,right,0.0010486841201782227,-0.12488739378427145,-1.12982754820697,-9.664455697983502,-0.06397910331952154,0.02328847162425518,0.0003909170627593994,1.2215461200267075,-0.00019424408674240112
1745971755583549700,13.1445498046875,-0.11624251746200624,0.017522936686873436,0.05569542329184731,-0.0037989700213074684,-0.9909882061073589,0.10371710975900701,-2.9402533251170357,right,0.0008271932601928711,-0.12395883534337102,-1.1286576276447624,-9.66572995570302,-0.06389789327535085,0.012243551202118397,-0.0015607476234436035,1.21251043452546,0.005262285470962524
1745971755623549700,13.1845498046875,-0.11639586482042243,-0.005515929311513901,0.05581377474434496,-0.0012389621697366238,-0.9909575797628191,0.10388680844956912,-2.939933855733315,right,0.0041312575340271,-0.12423419066521263,-1.130100958320871,-9.66522492879033,-0.06399607701708834,-0.024894598871469498,0.002682335674762726,1.2151900289982556,0.011701181530952454
1745971755663549700,13.2245498046875,-0.1159787194457897,-0.016678158193826675,0.056595482179497496,0.002897935453802347,-0.9909898369633906,0.10326072224186394,-2.9412488578240215,right,0.0003796219825744629,-0.12568236977865577,-1.1258642705991864,-9.66393722706735,-0.06382220851835337,-0.021199245005846024,0.0021825283765792847,1.22928109819293,0.0056937336921691895
1745971755703549700,13.2645498046875,-0.11556340227499794,-0.02784038707613945,0.05737712384098005,0.007034832611680031,-0.9910210399582471,0.10263451413066961,-2.942563503640062,right,-0.0033745765686035156,-0.12713107038196123,-1.1216440225556492,-9.662624975425004,-0.06364826675079817,-0.01750389114022255,0.0016844049096107483,1.2433746516056359,-0.00031395256519317627
1745971755743549700,13.3045498046875,-0.11537352022217287,-0.0068227387964725494,0.05773058186255037,-0.003918744623661041,-0.9910524126660721,0.1021893067859569,-2.9434836314430712,right,-0.005579173564910889,-0.1277652520630713,-1.1197182421248406,-9.662052143973112,-0.06355784863721353,0.0067292433232069016,-0.00033283233642578125,1.2495434033684432,-0.0072802528738975525
1745971755783549400,13.344549560546875,-0.11568916825842546,0.028604093939065933,0.05746208908917521,-0.016897691413760185,-0.9910359199077017,0.102409572760521,-2.9430327774883382,right,-0.002312958240509033,-0.12728530409734184,-1.1228371047977357,-9.662292966991663,-0.06370444798071143,0.02212643250823021,-0.00010310113430023193,1.2448748270355163,-0.006815321743488312
1745971755823549700,13.3845498046875,-0.11611937687302583,0.0506952628493309,0.05701736447089164,-0.017883893102407455,-0.990957013442434,0.10327458906198907,-2.941273607824671,right,0.0029030442237854004,-0.126546234726658,-1.1271000960044562,-9.662720252493024,-0.06393266689801508,0.020222077146172523,0.0007164552807807922,1.2376853539228438,-0.0009100586175918579
1745971755863549700,13.4245498046875,-0.11622420738817336,0.04098097234964371,0.05663325431249198,0.0005761831998825073,-0.9908685070680087,0.10428169830520302,-2.939214321139756,right,0.005606710910797119,-0.12591537804149705,-1.1282033810712397,-9.663375501531362,-0.0640126738305792,0.015431012958288193,0.0006280913949012756,1.2315480202116071,0.004818901419639587
1745971755903549700,13.4645498046875,-0.11568264939841308,0.012024760246276855,0.056280695842388845,0.017932334914803505,-0.9908447305362865,0.10486032426732637,-2.937979951291721,right,0.0047914981842041016,-0.12522668948929436,-1.1230675525527447,-9.664825700339675,-0.06374569811356613,0.02029338851571083,0.0011834651231765747,1.2248474996596574,0.006224542856216431
1745971755943549700,13.5045498046875,-0.11439846720447877,-0.01271519623696804,0.05608691468419027,0.03487391024827957,-0.9908992048089069,0.10484833759467423,-2.9379046102044146,right,0.001141667366027832,-0.1247048710659544,-1.110728003200516,-9.666893154263496,-0.06308609035641954,0.012246138416230679,0.001386977732181549,1.219770123330131,0.0030731409788131714
1745971755983549700,13.5445498046875,-0.11325601948044048,-0.0197016391903162,0.056086437606763954,0.026951026171445847,-0.9909799354093577,0.10444066440290933,-2.938654154178716,right,-0.002266108989715576,-0.12453588451711496,-1.099706696840003,-9.668360888728499,-0.062490779408053164,-0.00012570898979902267,0.0015201270580291748,1.2181257901892066,-0.0012885108590126038
1745971756023549400,13.584549560546876,-0.11256714425225592,-0.006847729906439781,0.05615418110775645,0.004150327295064926,-0.9910292952185898,0.10414795527720498,-2.9392073766190023,right,-0.004287540912628174,-0.1245653021981801,-1.0930420513190329,-9.669080435174703,-0.06213534575138288,-0.0007015267037786543,0.0011345595121383667,1.2184119867194443,-0.003961116075515747
1745971756063549400,13.624549560546875,-0.11256714425225592,0.014409316703677177,0.05615418110775645,-0.008712489157915115,-0.9910292952185898,0.10414795527720498,-2.9392073766190023,right,-0.0033943653106689453,-0.1245653021981801,-1.0930420513190329,-9.669080435174703,-0.06213534575138288,-0.0032121818512678146,0.0013222694396972656,1.2184119867194443,-0.0029280856251716614
1745971756103549700,13.6645498046875,-0.11283208682086664,0.02885632961988449,0.05625584673725702,-0.013460603542625904,-0.9909541160684081,0.10470177518362164,-2.9381197911451755,right,-0.001968979835510254,-0.12486647631187626,-1.0955624366421253,-9.668425186136364,-0.062311859589192005,-0.006961760576814413,0.0020189285278320312,1.2213425602786243,-0.00009543448686599731
1745971756143549700,13.7045498046875,-0.11322124088725549,0.01974705047905445,0.05622980290515247,-0.016270995140075684,-0.9908835753979469,0.10524652010973798,-2.937045179494895,right,-0.0007331371307373047,-0.12492278118016456,-1.099317113000527,-9.6679300960958,-0.06253765147679383,-0.001211254857480526,0.0015010908246040344,1.2218904764849692,0.0005964264273643494
1745971756183549700,13.7445498046875,-0.11361037211726971,0.010637772269546986,0.05620374340616341,-0.01908138580620289,-0.990812839558783,0.10579117506668363,-2.935970780490316,right,0.0005025267601013184,-0.1249795213916809,-1.103071204837039,-9.667432667967677,-0.06276342675618077,0.0045392499305307865,0.0009831935167312622,1.2224425574097781,0.0012878552079200745
1745971756223549700,13.7845498046875,-0.11436111028501048,0.014534401707351208,0.056003777439015245,-0.02272309921681881,-0.9907663017774555,0.10610943187964954,-2.935356481790387,right,0.001285552978515625,-0.12469539227324501,-1.110368229977414,-9.666946345755457,-0.06313852300860683,0.01272507756948471,0.0021398812532424927,1.2196778419367968,-0.00033079832792282104
1745971756263549400,13.824549560546876,-0.11473342943599683,0.018822861835360527,0.056102821178374875,-0.020382830873131752,-0.9906968555245168,0.10657089155038849,-2.9344610980351242,right,0.0011333823204040527,-0.12499223915115455,-1.1139258493937552,-9.666172438773513,-0.06336278055826786,0.0018776590004563332,0.002627365291118622,1.2225662568546831,-0.00032880157232284546
1745971756303549400,13.864549560546875,-0.11510550124068003,0.02311132289469242,0.05620185083797657,-0.018042562529444695,-0.9906271633148045,0.10703229244947737,-2.9335658674733844,right,0.0009809136390686035,-0.12528941927682047,-1.1174804731354118,-9.665395609182118,-0.06358702052479315,-0.008969759568572044,0.003114566206932068,1.2254578135777263,-0.0003271326422691345
1745971756343549700,13.9045498046875,-0.11538089248004718,0.023275131359696388,0.05636285415791969,-0.009433912113308907,-0.9905485867644668,0.10756224718263549,-2.9325330374434837,right,0.00005370378494262695,-0.12571038655869768,-1.1200826915230602,-9.66457435592711,-0.06377355925936666,-0.006379873026162386,0.0031568631529808044,1.2295536315239965,-0.00037001073360443115
1745971756383549700,13.9445498046875,-0.1155528455794445,0.020302902907133102,0.05643012212036446,-0.014907527714967728,-0.99048219308108,0.10806352298426829,-2.931541846236632,right,-0.0021645426750183105,-0.12592863824016848,-1.1217135806605218,-9.664114921721815,-0.0638976482627358,-0.00042541464790701866,0.0009395405650138855,1.2316770534187556,-0.0006614029407501221
1745971756423549700,13.9845498046875,-0.1161016914845354,0.015263348817825317,0.05642404805336532,-0.01535799540579319,-0.9904182463040866,0.10847494669285969,-2.9307474354784517,right,0.0005362033843994141,-0.12602766712257837,-1.1270034306969492,-9.663376670575142,-0.06419686421992633,-0.0021406696178019047,0.00039821118116378784,1.2326404916234315,0.00024847686290740967
1745971756463549700,14.0245498046875,-0.1166859019260185,0.010902849957346916,0.05641850779751688,-0.014038586057722569,-0.9903639532986821,0.10878866372248763,-2.9301519125742566,right,0.001067519187927246,-0.12611918127998195,-1.1326355182997883,-9.662604517158865,-0.0645076003488319,0.001673063263297081,0.0002769380807876587,1.2335308645918965,0.000132635235786438
1745971756503549700,14.0645498046875,-0.11718044335480735,0.0013030599802732468,0.05649689937677731,-0.01297532394528389,-0.9903290236592581,0.10891036074056706,-2.9299460677405573,right,-0.0009323954582214355,-0.1263451093701841,-1.1373813245873898,-9.661766312769055,-0.06476976147524334,-0.009256413206458092,-0.0005246326327323914,1.2357288130275905,0.0012455582618713379
1745971756543549400,14.104549560546875,-0.11770675096531823,-0.008946379646658897,0.05676687475748909,-0.009964159689843655,-0.9903098145155721,0.10877694053677316,-2.9302758520103334,right,0.0018648505210876465,-0.12692610333452703,-1.1423816901579498,-9.66045172303915,-0.06505050464725709,-0.01654426008462906,-0.00027192384004592896,1.2413807013094424,0.0018182992935180664
