time,seconds_elapsed,roll,rotationRateZ,quaternionY,rotationRateY,quaternionZ,quaternionW,yaw,devicelocation,accelerationZ,pitch,gravityX,gravityZ,quaternionX,rotationRateX,accelerationX,gravityY,accelerationY
1745971987468287000,0.495286865234375,-0.4799979102945021,-0.037734098732471466,-0.23602454138297657,0.016615260392427444,-3.323849322480805e-17,0.9692342926068412,-0.03327944843588868,right,-0.11123764514923096,-0.13579584358987348,-4.486798793062567,-8.61837954210937,-0.0698380524744412,-0.011258942075073719,0.49127721786499023,1.3276131698682903,-0.003033682703971863
1745971987508287000,0.535286865234375,-0.33223160383844025,-0.03569944202899933,-0.1661140966667643,0.009035587310791016,0.028899971791613233,0.9831977386846241,0.03396537360918415,right,-0.054947495460510254,-0.14768853344955427,-3.1636531239971517,-9.169472624924778,-0.06995075008500294,-0.015188531950116158,0.35676491260528564,1.4430702716067432,-0.015303641557693481
1745971987548287000,0.575286865234375,-0.18384129871076593,-0.03366478532552719,-0.09522063851702352,0.0014559151604771614,0.05762893158523308,0.9913429376807261,0.10231553395755037,right,-0.0177152156829834,-0.14962567747716152,-1.7726986779443918,-9.533671847775578,-0.069649497744078,-0.01911812275648117,0.21533793210983276,1.4618576819241047,-0.01771603524684906
1745971987588287200,0.615287353515625,-0.035729807733951346,-0.031630124896764755,-0.023763692659698757,-0.0061237565241754055,0.08601683393711093,0.9936217021301894,0.17017406382145384,right,-0.00041866302490234375,-0.1415531757736526,-0.3468113040678203,-9.702368372270465,-0.06893607985009326,-0.023047713562846184,0.0703488290309906,1.3835311641842125,-0.010225579142570496
1745971987729889300,0.75688916015625,0.034527692745815804,0.03087974153459072,0.010292842037443637,-0.012407423928380013,0.0992739285648536,0.9925873332158484,0.2017200843237684,right,-0.0022724424488842487,-0.13604242958207066,0.3354058572279289,-9.710250649952888,-0.06934745169385292,-0.023974541574716568,-0.00010287074837833643,1.3300091250941157,-0.010222423821687698
1745971987769889300,0.79688916015625,0.034127172154114795,0.03546050190925598,0.01002418750794482,-0.020693039521574974,0.1003251190863696,0.9924868077770926,0.20380911310044966,right,-0.0009483695030212402,-0.13599292337416477,0.3315189327919856,-9.71044997191727,-0.06931351032864658,-0.030067019164562225,0.0002776607871055603,1.3295280635789035,-0.005531325936317444
1745971987809889300,0.83688916015625,0.03372654788206896,0.04004126042127609,0.009755522816740081,-0.028978655114769936,0.10137615313617071,0.9923850694042495,0.20589806514210288,right,0.00037544965744018555,-0.13594423783838575,0.32763083931226283,-9.710646371272206,-0.06927948454148125,-0.03615949675440788,0.0006583034992218018,1.3290550392396747,-0.0008410364389419556
1745971987849889300,0.87688916015625,0.033325814535694845,0.0446220226585865,0.009486842765103663,-0.037264272570610046,0.10242706547435543,0.9922820696778052,0.2079870030937687,right,0.0016990303993225098,-0.13589636500142036,0.3237415402561426,-9.710840432539582,-0.06924537347864361,-0.04225197806954384,0.001039065420627594,1.3285899059459567,0.003848433494567871
1745971987889889500,0.9168896484375,0.03243431007762039,0.035590045154094696,0.0088307171655503,-0.044155463576316833,0.10330747558605728,0.9920987104272777,0.2097670663658213,right,0.0004392266273498535,-0.1387810193264621,0.3149585874069482,-9.707254390746355,-0.07063839204178214,-0.06133931130170822,-0.00016948580741882324,1.3566123237289487,0.005867660045623779
1745971987929889500,0.9568896484375,0.03154764236141288,0.02655806578695774,0.008174568528555545,-0.05104665458202362,0.10418756775930299,0.9919121146131349,0.21154526260259363,right,-0.0008298754692077637,-0.14166724200065733,0.3062265610273927,-9.703575994494557,-0.07203119326504469,-0.0804266482591629,-0.0013832375407218933,1.3846386870346963,0.007886454463005066
1745971987969889300,0.99688916015625,0.030665782112623823,0.017526086419820786,0.0075183890178080704,-0.05793784186244011,0.1050673208934093,0.9917224138345025,0.21332160506167316,right,-0.002108454704284668,-0.14455501760236336,0.29754540631854903,-9.699805243784189,-0.0734237598448269,-0.09951397776603699,-0.002602171152830124,1.4126685574717819,0.009904906153678894
1745971988009889300,1.03688916015625,0.02838200743199257,0.0068226587027311325,0.006143874708096953,-0.045067623257637024,0.1051543949291521,0.991566270490306,0.21342628473367808,right,-0.0029132962226867676,-0.14899776950932087,0.275211646897532,-9.694089788746833,-0.07550639648371499,-0.08283136039972305,-0.0022570546716451645,1.4557685712687671,0.006458178162574768
1745971988154679800,1.1816796875,0.024234432687068822,-0.00008052983321249485,0.0036095245427148403,-0.01104158814996481,0.10512748278257211,0.9912468524161406,0.21324102227778285,right,0.002051376039162278,-0.1580616546837281,0.2346730445537716,-9.681558808475732,-0.079779946443672,-0.050556838512420654,-0.0012156039010733366,1.5436090595461427,0.004687292501330376
1745971988294849300,1.321849365234375,0.024100977628493038,-0.004126939922571182,0.003303515618817226,-0.0031045335344970226,0.10487071848492992,0.9910810129108778,0.2128115264155493,right,-0.002035299316048622,-0.16287360634139267,0.23319930047309026,-9.674052378368376,-0.08215641783552723,-0.026780515909194946,-0.0027177014853805304,1.5901919470228254,0.007103553507477045
1745971988334849000,1.36184912109375,0.023525400199998967,-0.005173839628696442,0.00295587918066375,-0.008055761456489563,0.1047918150666169,0.9910390433074185,0.21263142476017802,right,-0.00021719932556152344,-0.16418202086141184,0.2275819537816569,-9.672096568125486,-0.08277419113351166,-0.01835453324019909,-0.002438664436340332,1.6028518143706023,0.007194086909294128
1745971988374849000,1.40184912109375,0.023362033329528076,-0.010034441016614437,0.002860586265869698,-0.006810890045017004,0.10464050410772742,0.9910349753875713,0.21232283730381574,right,-0.0019418597221374512,-0.16469091608549058,0.22598277495671062,-9.671317400446533,-0.08301730391323038,-0.004768376238644123,-0.0028713084757328033,1.60777509611696,0.004582107067108154
1745971988414849300,1.441849365234375,0.02319849163286851,-0.014895042404532433,0.002765290713490365,-0.005566018633544445,0.10448921424952123,0.9910307758685979,0.21201419270464206,right,-0.0036667585372924805,-0.16519973704112811,0.22438209829442202,-9.670534725636243,-0.08326040024305849,0.008817779831588268,-0.0033038128167390823,1.6126972088195382,0.0019702166318893433
1745971988454849300,1.481849365234375,0.02310923267945081,-0.006385622546076775,0.0027330103896688975,-0.0033666526433080435,0.10418078322116932,0.9910528085424682,0.21138965668915857,right,-0.0005742907524108887,-0.16546462719308846,0.2235090417869389,-9.670127313879131,-0.08338611370535821,0.0024122237227857113,-0.0011440012603998184,1.6152594605229793,0.0008007138967514038
1745971988607314200,1.634314208984375,0.02326189407523319,-0.0019131976878270507,0.002735437013661855,-0.005787820089608431,0.10414672207350595,0.9909970257112433,0.21136245183589517,right,-0.00015384488506242633,-0.16686658885317143,0.22493238912094382,-9.66781962145865,-0.08408857471849085,-0.012993630021810532,0.0004774399858433753,1.628818614798039,0.0016153653850778937
1745971988647314200,1.674314208984375,0.023771003311720586,0.007092013489454985,0.0029521090551223703,0.0010538245551288128,0.10430888103178187,0.9909615553817241,0.211740643917412,right,-0.00033336877822875977,-0.16723703996885436,0.22983998010782525,-9.667100075012446,-0.08429915213475957,-0.008778402581810951,0.00035384856164455414,1.6324010033294558,0.0008312314748764038
1745971988687314200,1.714314208984375,0.024280274785670467,0.01609722524881363,0.0031687784589977913,0.007895469665527344,0.10447099901181207,0.990925835513368,0.21211896405837805,right,-0.0005132555961608887,-0.16760726639406134,0.23474844787754118,-9.666377021434903,-0.0845097131011377,-0.004563175141811371,0.0002301577478647232,1.6359809076428413,0.000047340989112854004
1745971988844883200,1.87188330078125,0.027082162181764187,0.002196699380874634,0.004371762539359463,0.008827141486108303,0.10553280959333035,0.9907302845000413,0.21453614310896021,right,-0.0015154746361076832,-0.1691456736442615,0.2617631133900955,-9.663153967735171,-0.08542335275392647,-0.017172973603010178,-0.0001689371420070529,1.6508542132563888,0.002857483457773924
1745971988884883200,1.91188330078125,0.02741521059735825,0.001707369927316904,0.004499755264403703,0.008962823078036308,0.10560167782249372,0.9906976195655285,0.2147163009412906,right,-0.0008737444877624512,-0.16968855932880184,0.2649567948648706,-9.662169048351048,-0.08571018529931672,-0.014030113816261292,-0.000001819804310798645,1.65610175852105,0.002683863043785095
1745971988924883500,1.951883544921875,0.027748401842441293,0.0012180404737591743,0.004627749696874867,0.009098504669964314,0.10567058081175569,0.9906649062115019,0.21489676493073648,right,-0.00023245811462402344,-0.17023139166681078,0.2681511521930806,-9.661180037313699,-0.08599700744725551,-0.01088725496083498,0.0001652240753173828,1.6613484270028769,0.002510353922843933
1745971988964883200,1.99188330078125,0.027748401842441293,0.0007287109037861228,0.004627749696874867,0.009234186261892319,0.10567058081175569,0.9906649062115019,0.21489676493073648,right,0.0005096793174743652,-0.17023139166681078,0.2681511521930806,-9.661180037313699,-0.08599700744725551,-0.007744395639747381,0.000658007338643074,1.6613484270028769,0.0028718411922454834
1745971989004883200,2.03188330078125,0.02812341073416809,-0.003195804078131914,0.004763509835685082,0.004418839234858751,0.10566436445177003,0.990624710581787,0.2149375667393478,right,-0.0012460947036743164,-0.17112427176149345,0.2717323351480998,-9.659592475861311,-0.08645906551812177,-0.005339738912880421,0.00007376261055469513,1.6699774313993752,0.0012397170066833496
1745971989157433000,2.18443310546875,0.02820340637603065,0.0030416669324040413,0.004736798262029472,0.0021455970127135515,0.10579297001205402,0.9905675004106924,0.21522744267152383,right,0.0020478032529354095,-0.1721187362977828,0.2724580921393819,-9.657905545687674,-0.08695641732294279,-0.0022843291517347097,-0.0003415360115468502,1.6795865328744053,0.0020671049132943153
1745971989197433300,2.224433349609375,0.02859555336086333,0.009610024280846119,0.00490730207899618,0.010731545276939869,0.10594596708437766,0.9905415216313801,0.21557454853671051,right,-0.000023603439331054688,-0.17227788537071678,0.27623775680856777,-9.657530867156385,-0.087056812504638,0.006176472175866365,0.000012345612049102783,1.6811241177052259,-0.000023499131202697754
1745971989237433000,2.26443310546875,0.02859555336086333,0.007974140346050262,0.00490730207899618,0.007744137197732925,0.10594596708437766,0.9905415216313801,0.21557454853671051,right,-0.0006363987922668457,-0.17227788537071678,0.27623775680856777,-9.657530867156385,-0.087056812504638,0.0011922577396035194,0.0003330875188112259,1.6811241177052259,-0.0006340593099594116
1745971989277433000,2.30443310546875,0.02859555336086333,0.006338257342576981,0.00490730207899618,0.004756729118525982,0.10594596708437766,0.9905415216313801,0.21557454853671051,right,-0.0012492537498474121,-0.17227788537071678,0.27623775680856777,-9.657530867156385,-0.087056812504638,-0.0037919566966593266,0.0006538275629281998,1.6811241177052259,-0.0012446194887161255
1745971989317433000,2.34443310546875,0.028832915830456836,0.00393103901296854,0.0050181267321173974,0.004237139131873846,0.10612750159729469,0.9905283254935289,0.21595760242819673,right,-0.0010758638381958008,-0.17209477654940242,0.2785389464230276,-9.657772274696827,-0.08697968260548908,0.00015271082520484924,0.00035583414137363434,1.6793550622060893,-0.0006758421659469604
1745971989357433000,2.38443310546875,0.029070193665988113,0.001523821149021387,0.005128951385238711,0.003717549378052354,0.10630898769069785,0.990515094595579,0.21634051547985578,right,-0.0009024739265441895,-0.17191159038214213,0.2808394601840526,-9.658013097715378,-0.08690255270634016,0.004097377881407738,0.00005791522562503815,1.6775851299241185,-0.00010697543621063232
1745971989397433000,2.42443310546875,0.029070193665988113,-0.000883396714925766,0.005128951385238711,0.0031979596242308617,0.10630898769069785,0.990515094595579,0.21634051547985578,right,-0.0007537603378295898,-0.17191159038214213,0.2808394601840526,-9.658013097715378,-0.08690255270634016,0.008042044937610626,-0.000005414709448814392,1.6775851299241185,0.000281408429145813
1745971989652372200,2.679372314453125,0.03104711174222663,0.036063048988580704,0.006368929633124789,0.006737957708537579,0.10886534947916973,0.9905879320745125,0.22146061897978644,right,0.0015791235491633415,-0.16322779995248102,0.30037288482943547,-9.671635964876414,-0.08272393066293783,0.07271735370159149,0.002838919637724757,1.5936192911230027,0.0016728247283026576
1745971989692372000,2.7193720703125,0.03126718621874725,0.043006256222724915,0.006656333688002374,-0.005828777328133583,0.10987961797527394,0.9906607701873156,0.22341307962988738,right,0.0005524158477783203,-0.15861405592248223,0.3027279965882189,-9.678815647247433,-0.08045771460630058,0.11486434191465378,0.0012680962681770325,1.548958457750082,-0.0002758800983428955
1745971989732372200,2.759372314453125,0.03148712391412406,0.053467944264411926,0.006946842607950619,-0.006362615618854761,0.11070309628755756,0.9907375183942765,0.22498699649880957,right,-0.0010216236114501953,-0.15428427933286828,0.30506500643473117,-9.685361123368143,-0.07833103654048931,0.14491891860961914,0.001963328570127487,1.5070165279470382,0.0013761669397354126
1745971989772372200,2.799372314453125,0.03170002367739039,0.06392963230609894,0.007237314143039242,-0.006896453909575939,0.1115260120150316,0.990809020067509,0.2265589516387477,right,-0.0026139020919799805,-0.14995414937051693,0.3073309420727193,-9.691727735790609,-0.0762039358998034,0.1749734878540039,0.0026658102869987488,1.4650428878314792,0.003031432628631592
1745971989812372200,2.839372314453125,0.032361905716579056,0.07082908600568771,0.007785897382865606,-0.0050623174756765366,0.11295265038004237,0.9908518973252468,0.22934987750535182,right,-0.0011364221572875977,-0.14427960181964394,0.31400961611904205,-9.699674895402788,-0.07344106112482927,0.1404639035463333,0.002188201993703842,1.4099956850007176,0.0036446303129196167
1745971989852372200,2.879372314453125,0.032983299417547865,0.07813020050525665,0.008223111988252475,-0.003239518031477928,0.11473252145993461,0.9908004207924799,0.23287910346406437,right,-0.0004737973213195801,-0.13985289301156445,0.32023956001717596,-9.70562123658657,-0.0712980935525259,0.11768858134746552,0.00197538360953331,1.3670219279319047,0.0015837401151657104
1745971989892372200,2.919372314453125,0.033588546134941666,0.08543132245540619,0.008660262444294792,-0.001416718470863998,0.11651151079344006,0.990740973899459,0.2364034319487922,right,0.00016993284225463867,-0.13542402600588085,0.32631391149479894,-9.711381115287542,-0.0691545575288395,0.09491325914859772,0.0017784200608730316,1.32400038619861,-0.0004723072052001953
1745971989932372000,2.9593720703125,0.034107785663573253,0.09160040318965912,0.008990579082631595,-0.00006371329072862864,0.11787121859372646,0.9906693989781322,0.23911495136815816,right,-0.0013598203659057617,-0.1326450578650166,0.331480610075593,-9.714850252702831,-0.06782075121574606,0.08723092824220657,0.0018071793019771576,1.296992406155169,-0.0006471574306488037
1745971989972372200,2.999372314453125,0.03461923066658121,0.09776949137449265,0.009320860037124868,0.0012892917729914188,0.11923049173896672,0.9905941368350294,0.24182403798645663,right,-0.0028969645500183105,-0.12986470763819796,0.33657267251759765,-9.718245740360022,-0.06648669078306237,0.07954859733581543,0.0018435344099998474,1.2699610452361405,-0.0008196532726287842
1745971990012372200,3.039372314453125,0.035300650377381185,0.10586134344339371,0.009738769501942017,-0.0026650037616491318,0.12185433160537243,0.9904008638535795,0.24706307863303,right,-0.0027917027473449707,-0.12575868969356133,0.3433759593242779,-9.723143449273705,-0.0645197791803572,0.08048909902572632,0.0015202909708023071,1.2300232948623597,-0.0036263689398765564
1745971990052372200,3.079372314453125,0.0354306758146961,0.11087722331285477,0.009847789662008855,-0.0046266112476587296,0.1245137180077771,0.9901751443926503,0.252355732452924,right,-0.001582026481628418,-0.12235732993420205,0.34478641064409166,-9.727223412063717,-0.06286999857152116,0.06917199492454529,0.0016419179737567902,1.1969236468803137,-0.0032154396176338196
1745971990092372200,3.119372314453125,0.0355425020479675,0.11589309573173523,0.009956711106952234,-0.006588218733668327,0.12717182531763183,0.989939555099797,0.25764562440583944,right,-0.00038307905197143555,-0.11895530975010349,0.3460168657545,-9.731198160913586,-0.06121959178059132,0.057854894548654556,0.001781899482011795,1.1638038328930735,-0.002802453935146332
1745971990132372200,3.159372314453125,0.03563616856518313,0.12090897560119629,0.010065533253820527,-0.008549826219677925,0.12982869451318235,0.989694345513857,0.2629330797333233,right,0.0008050799369812012,-0.11555277723040229,0.34706743425335734,-9.735066526779532,-0.05956858674116285,0.046537794172763824,0.001940220594406128,1.130665533401072,-0.002387590706348419
1745971990172372200,3.199372314453125,0.035772227816216494,0.128264382481575,0.010089682912608583,-0.013021256774663925,0.1325364291501907,0.9893851301213319,0.2683688592651003,right,0.0000629425048828125,-0.11378722341569399,0.3484628341345116,-9.736998956146836,-0.05873159799970477,0.04046936333179474,0.002095043659210205,1.1134650269489734,-0.00229576975107193
1745971990212372000,3.2393720703125,0.03589860529470726,0.13561978936195374,0.010113751542100374,-0.017492685467004776,0.13524310202217218,0.9890678885077708,0.27380334507769805,right,-0.0006819367408752441,-0.11202096964716833,0.34976339533906425,-9.738905082029104,-0.05789413547018051,0.03440093249082565,0.002259541302919388,1.0962542913638054,-0.0022028833627700806
1745971990252372200,3.279372314453125,0.03601529635722751,0.14297519624233246,0.010137736116076261,-0.021964116021990776,0.1379486783690282,0.9887426690926876,0.2792365568587834,right,-0.0014294981956481934,-0.11025406522914429,0.3509690448017791,-9.740784904426336,-0.05705620132509618,0.02833249792456627,0.002433713525533676,1.0790337650369852,-0.0021090134978294373
1745971990292372200,3.319372314453125,0.03577220915923145,0.14653438329696655,0.009948564357366196,-0.027361717075109482,0.1408133197173336,0.9883777037529146,0.2849839376344657,right,-0.00035697221755981445,-0.10892359041938099,0.348652182694152,-9.742295893511175,-0.056410678783657055,0.02383534237742424,0.0012596435844898224,1.0660645394790917,-0.0024932175874710083
1745971990332372200,3.359372314453125,0.03516519220383225,0.1529303938150406,0.009553052692783245,-0.032509248703718185,0.1439559409067167,0.9879610674012569,0.29128116164688683,right,-0.0012843012809753418,-0.1077990436791203,0.3427803315186873,-9.743697577002644,-0.05584269652478887,0.017591752111911774,0.002227596938610077,1.05510124691613,-0.002477109432220459
1745971990372372200,3.399372314453125,0.03455112935269207,0.15932640433311462,0.009157437850193363,-0.03765677660703659,0.1470970210284183,0.9875340062792191,0.29757825060312587,right,-0.002213418483734131,-0.10667831213132743,0.3368376435967162,-9.745082309359312,-0.055274123388654485,0.011348161846399307,0.003202766180038452,1.0441737563189117,-0.0024646446108818054
1745971990412372200,3.439372314453125,0.03344443120054925,0.17465132474899292,0.008488525676765307,-0.040708255022764206,0.1509234528390338,0.986997218458812,0.30523898904116586,right,-0.0012286901473999023,-0.10551224396576567,0.32609307181835173,-9.746659349417685,-0.05465000866377503,0.02288312464952469,0.0034996680915355682,1.03280283280313,-0.003481440246105194
1745971990452372000,3.4793720703125,0.03232891602566348,0.18997624516487122,0.007819478715739037,-0.04375973343849182,0.1547474966982222,0.9864448487320564,0.31290005972250307,right,-0.0002471804618835449,-0.10435463870200352,0.31525877592992035,-9.748205409815906,-0.05402503225960978,0.03441808372735977,0.0038057155907154083,1.0215130116995423,-0.004506506025791168
1745971990492372200,3.519372314453125,0.03120465163017965,0.2053011655807495,0.0071503086833589104,-0.04681120812892914,0.15856910418646963,0.9858768623388533,0.3205614915876953,right,0.0007312297821044922,-0.10320555969703246,0.30433543178485706,-9.749720490553974,-0.05339920410853102,0.04595304653048515,0.0041208453476428986,1.0103050236605107,-0.005539923906326294
1745971990532372200,3.559372314453125,0.030736350069941597,0.22049573063850403,0.006777846538232895,-0.04376998171210289,0.16314246352397893,0.9851670604547043,0.32978698311002,right,0.00010019540786743164,-0.10193528658843412,0.2998087846732698,-9.751136787092685,-0.05276788071959066,0.0281431432813406,0.003064120188355446,0.9979133787948637,-0.004674389958381653
1745971990572372200,3.599372314453125,0.03025634554120739,0.23569029569625854,0.0064052350287608865,-0.04072875529527664,0.16771222299400917,0.9844355971112334,0.33901183542299584,right,-0.0005327463150024414,-0.10066935332864445,0.2951661464991979,-9.752534378930926,-0.05213539427816465,0.010333240032196045,0.0020192228257656097,0.9855624312657862,-0.0038130059838294983
1745971990612372200,3.639372314453125,0.029764689107282135,0.25088486075401306,0.006032482650650394,-0.037687528878450394,0.1722783130763632,0.9836825691474687,0.34823617089499803,right,-0.001167595386505127,-0.09940789025050858,0.2904079921866767,-9.753913266068697,-0.05150176620032972,-0.007476663216948509,0.0009861011058092117,0.9732535693127662,-0.002955913543701172
1745971990652372200,3.679372314453125,0.029529649284720686,0.24421025812625885,0.005612223868340125,-0.03683988004922867,0.1770317073191732,0.9828242942630914,0.35790733027238725,right,-0.0009274482727050781,-0.10003143564235271,0.28809745022198185,-9.753372583320736,-0.051815863188181016,-0.008840274065732956,0.0005727410316467285,0.9793380768582224,-0.0036410093307495117
1745971990692372000,3.7193720703125,0.029300649032453677,0.23753565549850464,0.005191828333071122,-0.03599223122000694,0.18178088212833438,0.9819426657851932,0.3675788137816098,right,-0.0006881952285766602,-0.10065718303201546,0.2858459084355272,-9.75282430178821,-0.05212872845385956,-0.010203884914517403,0.00015336833894252777,0.9854437002569436,-0.004328250885009766
1745971990732372200,3.759372314453125,0.029077741504154948,0.23086106777191162,0.004771312300416823,-0.03514458239078522,0.18652583006257856,0.9810378984925127,0.3772509168548399,right,-0.00044977664947509766,-0.10128511856365009,0.2836538782839663,-9.75226725242734,-0.05244036867097818,-0.011567496694624424,-0.00027207471430301666,0.9915702933784574,-0.005017638206481934
1745971990772372200,3.799372314453125,0.029009631102684126,0.23903535306453705,0.004509311211103096,-0.034901656210422516,0.19127952419051927,0.9801294312338716,0.3869365020014903,right,-0.0021232962608337402,-0.10102162628192057,0.28299720447352156,-9.752547238412498,-0.052327254602199426,-0.00753325130790472,-0.0017597824335098267,0.9889994930423796,-0.0030551329255104065
1745971990812372200,3.839372314453125,0.02893896069736503,0.24720963835716248,0.004247205414898696,-0.03465873375535011,0.19602870714460727,0.9791979145582077,0.39662181058535356,right,-0.003796875476837158,-0.10075879731164225,0.2823155058196746,-9.752826639875769,-0.05221290873480221,-0.003499006386846304,-0.0032449327409267426,0.9864351955123245,-0.0010932832956314087
1745971990852372200,3.879372314453125,0.02830718161833056,0.2394915074110031,0.0036814250899898327,-0.04597930237650871,0.20086469749747385,0.9782220312230014,0.40647037648783535,right,-0.0008743405342102051,-0.10075492709521756,0.27615391445001586,-9.753006672617792,-0.05216785001148688,-0.013223286718130112,-0.0017586220055818558,0.9863974207852035,0.00276869535446167
1745971990892372200,3.919372314453125,0.028010840871531637,0.2090585082769394,0.0033157305170895563,-0.033338241279125214,0.2047578660085992,0.9774133178102848,0.41442073972382054,right,0.0003349184989929199,-0.10088557156026676,0.27326009270465,-9.752959326344728,-0.05221556056489981,-0.012975066900253296,-0.0013719089329242706,0.9876720438309013,0.004752412438392639
1745971990932372000,3.9593720703125,0.02771555163470878,0.17862549424171448,0.0029499826287774926,-0.020697180181741714,0.20864782221344155,0.9765889443066335,0.4223712544082319,right,0.001543879508972168,-0.10101853836953607,0.2703764818260446,-9.752908472940325,-0.05226243349589289,-0.012726846151053905,-0.0009862445294857025,0.9889693901650607,0.006733819842338562
1745971990972372200,3.999372314453125,0.027421331038798562,0.14819249510765076,0.002584187942572062,-0.008056116290390491,0.21253442707160677,0.9757491043901028,0.43032182780956,right,0.0027524828910827637,-0.10115385763373008,0.2675033010099083,-9.752853527882694,-0.05230847788312463,-0.01247862633317709,-0.0006016343832015991,0.9902896789833903,0.008712880313396454
1745971991012372200,4.039372314453125,0.028247388944564203,0.08654864132404327,0.002827613916123948,0.010430117137730122,0.21442948267055342,0.9753149828487456,0.4342645016024259,right,0.0007200837135314941,-0.10167546562489324,0.2755450070377439,-9.752111769604682,-0.052656331750098824,-0.00786817166954279,0.0004254169762134552,0.9953785996202379,0.013107262551784515
1745971991052372200,4.079372314453125,0.029075555836405875,0.024904798716306686,0.0030710292278762663,0.02891635149717331,0.21632369515765987,0.9748770276039505,0.4382078414282756,right,-0.0013130903244018555,-0.10219384211654015,0.28360623974995686,-9.751362997063994,-0.053003982322042065,-0.0032577174715697765,0.0014504790306091309,1.0004357368793337,0.017504878342151642
1745971991092372200,4.119372314453125,0.030068648033281502,-0.06906555593013763,0.003557277581875604,0.018571998924016953,0.21600615291183378,0.9749366902898216,0.4376137672367782,right,-0.00782710313796997,-0.10231888483888092,0.2932863423682749,-9.750951493653654,-0.05317126484332891,0.014897644519805908,0.0010203197598457336,1.0016555609978735,0.02223934978246689
1745971991132372200,4.159372314453125,0.02925718246606471,-0.1364932805299759,0.0036447595286436514,-0.01738966628909111,0.212874407432038,0.9757059167690837,0.4310731887054204,right,-0.0036941170692443848,-0.0994307056418061,0.28545712831364944,-9.75403718470931,-0.05166449262989859,0.12703263759613037,-0.0003355611115694046,0.9734761990875005,0.007413677871227264
1745971991172372200,4.199372314453125,0.028464937217231624,-0.20392100512981415,0.0037321955248187794,-0.05335133522748947,0.20973989918354163,0.9764627408217096,0.4245366758761496,right,0.0004298686981201172,-0.09653730666271977,0.27780844019139184,-9.757035197481512,-0.050157065526716074,0.23916763067245483,-0.0017098486423492432,0.9452378004662692,-0.007405981421470642
1745971991212372000,4.2393720703125,0.025621152968446956,-0.24996879696846008,0.003635623981421136,-0.07777860760688782,0.2053849778795386,0.9776472859238308,0.41524516715686394,right,0.007898688316345215,-0.08626726788603191,0.2502959629582241,-9.766974992215633,-0.04482890368207878,0.3439479172229767,0.002494126558303833,0.8449439271986484,0.008388422429561615
1745971991252372200,4.279372314453125,0.02344962704799169,-0.2682928442955017,0.003827373252567504,-0.04898007586598396,0.19995741143405243,0.9789915752587713,0.403849565771069,right,0.005326688289642334,-0.07631785041943287,0.22927191616259515,-9.775416657346486,-0.03972169566629655,0.30480366945266724,0.002296293154358864,0.7476961436286568,0.00400310754776001
1745971991292372200,4.319372314453125,0.021393411003746997,-0.28661689162254333,0.004018902511768727,-0.02018154039978981,0.194518338055491,0.9802798376207197,0.3924837399466654,right,0.002650618553161621,-0.06634446317471752,0.20932019303990526,-9.782836578214168,-0.034612210509793906,0.2656594514846802,0.0019891131669282913,0.6501397325009107,-0.00035075098276138306
1745971991332372200,4.359372314453125,0.019538420351182625,-0.3056949973106384,0.004060892905521016,-0.03194495290517807,0.1887134093271378,0.9815483944433745,0.38045789466579133,right,0.0036545991897583008,-0.05848085472969597,0.19126674128659069,-9.78801661120057,-0.030553876136370454,0.17560677230358124,0.003812851384282112,0.5731744201116263,0.015868067741394043
1745971991372372200,4.399372314453125,0.016938767487232522,-0.3139832019805908,0.0031216073814341115,-0.05239927023649216,0.18259106757407878,0.9827411123211431,0.3678878717366854,right,0.0011103153228759766,-0.056884412625761445,0.1658359656983055,-9.789383223378657,-0.02950608965147038,0.0653473362326622,0.0036829952150583267,0.5575447066402063,0.010659024119377136
1745971991412372200,4.439372314453125,0.014359652691161085,-0.3222714066505432,0.0021821942595146196,-0.07285359501838684,0.17646124810781502,0.9838937562801794,0.35532319572224585,right,-0.0014417171478271484,-0.05525548771942724,0.14060036562224848,-9.790673847711085,-0.028457096972960828,-0.04491209238767624,0.0035332385450601578,0.5415955154234543,0.005482565611600876
1745971991452372000,4.4793720703125,0.0116028387223873,-0.28679919242858887,0.0007146352282367935,-0.04304676130414009,0.17039644622336797,0.9849229226368639,0.3429584012069951,right,-0.003119826316833496,-0.05860302368788261,0.11358712488180026,-9.789156428885459,-0.02985666551542777,-0.09989534318447113,0.0038714883849024773,0.5743704614957794,-0.029310602694749832
1745971991492372200,4.519372314453125,0.009397624156754566,-0.23083630204200745,-0.0004557915213308347,-0.02794443815946579,0.16587778931097638,0.9856594482021779,0.333745713700103,right,0.005662739276885986,-0.06126442256761346,0.09198498593727127,-9.787819627323746,-0.030981742340209523,-0.08125448226928711,0.0008074864745140076,0.6004229674452916,-0.030659552663564682
1745971991532372200,4.559372314453125,0.007167568275860087,-0.17487341165542603,-0.0016262085453997233,-0.012842112220823765,0.16135525934280034,0.9863726487159229,0.324525701553853,right,0.014434874057769775,-0.06390541180409644,0.07014577770070173,-9.786380534431338,-0.03210608532598151,-0.06261362135410309,-0.0022323420271277428,0.6262715117879212,-0.03198770061135292
1745971991572372200,4.599372314453125,0.007119056639478196,-0.13944365084171295,-0.0017501279073959715,-0.004252697341144085,0.1592824307320412,0.986675112459801,0.32034037171783775,right,0.01076740026473999,-0.06600147194426899,0.06966152871455997,-9.78505016261041,-0.033139598381624995,-0.057655707001686096,0.001157543621957302,0.6467834808755666,-0.024174176156520844
1745971991612372200,4.639372314453125,0.007061748001814382,-0.10401389002799988,-0.0018740375249211615,0.0043367184698581696,0.15720876267880454,0.9869722042889719,0.3161544255387929,right,0.007095634937286377,-0.06809731313526228,0.06909103535022586,-9.783677120691538,-0.03417293017948987,-0.052697792649269104,0.004556222818791866,0.6672904815271496,-0.016360145062208176
1745971991652372200,4.679372314453125,0.0069956324796293864,-0.0685841366648674,-0.00199793763051472,0.012926134280860424,0.15513419310416127,0.9872638062637251,0.3119676387077336,right,0.00341951847076416,-0.0701928884900028,0.0684342473753495,-9.782261408674715,-0.035206074007740625,-0.04773988202214241,0.007963700219988823,0.6877919292207807,-0.008545562624931335
1745971991692372000,4.7193720703125,0.007373269761277808,-0.06419610232114792,-0.0017620582896082071,0.008473504334688187,0.15374417819152536,0.9874806221771585,0.30916553246760564,right,-0.004628479480743408,-0.07019163727275614,0.07212839831870514,-9.78223568971157,-0.03523724923553911,0.017872635275125504,0.007825233042240143,0.6877797273263335,-0.0031510740518569946
1745971991732372200,4.759372314453125,0.006975091397326746,-0.05661502107977867,-0.0018159664792469343,-0.033510394394397736,0.152592683575494,0.987683255404837,0.30680762847832627,right,-0.011993646621704102,-0.06886754950669383,0.0682396107192384,-9.78316624855995,-0.03455506552203457,0.02294180728495121,0.0028140018694102764,0.6748262107942253,0.004996590316295624
1745971991772372200,4.799372314453125,0.005073322414514107,-0.03626323491334915,-0.0027013795905895762,-0.06756775081157684,0.1516924479587573,0.9878296362231983,0.30491624905643,right,-0.009073197841644287,-0.06858813457227929,0.04963512835388537,-9.78346610828936,-0.03427453989840046,-0.017548942938447,-0.00039999326691031456,0.6720925480466335,0.003018900752067566
1745971991812372200,4.839372314453125,0.0022320348429382846,-0.004700362682342529,-0.004233849351470573,-0.06672386080026627,0.15128827943546125,0.987860642121183,0.3040120082617194,right,0.0033971667289733887,-0.07049762531934203,0.02183442246359773,-9.782266669371724,-0.035004017153701696,-0.06866535544395447,-0.0027799447998404503,0.6907729908581822,-0.006116501986980438
1745971991852372200,4.879372314453125,0.0005433020075334594,0.04048491641879082,-0.005308941967336941,-0.02797389030456543,0.15169617185431905,0.9877441145293219,0.3047954987435252,right,0.008586347103118896,-0.07349414193568286,0.0053136167877935805,-9.780175834572315,-0.036354205840746126,-0.08189397305250168,-0.0051514520309865475,0.7200826719727367,-0.010921195149421692
1745971991892372200,4.919372314453125,0.00035441479009310097,0.0684124305844307,-0.005667907667340597,0.003543909639120102,0.1528582602426294,0.9875097582661688,0.30715921352785525,right,0.00803530216217041,-0.07640808234425336,0.0034655081280099693,-9.778036484456061,-0.03777227660844218,-0.06919816136360168,-0.003561914898455143,0.7485784063559026,-0.008858293294906616
1745971991932372000,4.9593720703125,0.000897797308487062,0.06555607914924622,-0.0056391853136568216,0.0140531649813056,0.15425470810866734,0.9872452451636186,0.3100241794700604,right,-0.0007265806198120117,-0.07881146166505681,0.00877708080165612,-9.776206346419453,-0.03899241823207433,-0.06449839472770691,-0.0010050436249002814,0.7720765516474842,0.0004931017756462097
1745971991972372200,4.999372314453125,0.001471222151425775,0.05435726046562195,-0.005572363095686551,0.005520039238035679,0.15542548346830187,0.9870174920962356,0.31243418219938107,right,-0.003007233142852783,-0.08098783451030131,0.01438049201174872,-9.77449603537023,-0.040104231242565895,-0.056807007640600204,-0.00005736830644309521,0.7933513948664068,0.0007319599390029907
1745971992012372200,5.039372314453125,0.0018260533480855023,0.0366196408867836,-0.005589351642548066,-0.0017935633659362793,0.1563302851876476,0.9868333734191131,0.3142967991694708,right,-0.0033307671546936035,-0.08296635126947839,0.01784588597532711,-9.772901459655165,-0.0411030039914658,-0.04766008257865906,-0.0002562740119174123,0.8126888402819633,-0.000522315502166748
1745971992052372200,5.079372314453125,0.0019492495569939732,0.0358588770031929,-0.005732249895748025,0.009422028437256813,0.15716055776900167,0.9866557702903861,0.3160011929096144,right,0.0017829537391662598,-0.08511141256245841,0.019046428863017353,-9.771133280938864,-0.042166137332709,-0.07488326728343964,0.004564870148897171,0.8336504528332501,0.004959076642990112
1745971992092372200,5.119372314453125,0.0026641887405276575,-0.021046198904514313,-0.005622764241261228,0.01750408113002777,0.15734068524300876,0.9865614400849624,0.3164214482866932,right,-0.002403855323791504,-0.08808793728686881,0.026025462678959593,-9.768592364284396,-0.0436894649012159,-0.0732395276427269,-0.001490115188062191,0.862730855236575,0.006637193262577057
1745971992132372200,5.159372314453125,0.0034182636721654756,-0.06264668703079224,-0.005356491349790641,0.01567043364048004,0.15647100721697804,0.9866579986543985,0.31470798295257457,right,-0.004742085933685303,-0.08991626672440182,0.033386257787526116,-9.766976745781301,-0.04465523181549543,-0.019602686166763306,-0.0027638073079288006,0.8805896064016967,0.003978632390499115
1745971992172372200,5.199372314453125,0.003040026312921043,-0.08933081477880478,-0.005482736579307838,-0.019701596349477768,0.15490776015952998,0.9869018952773726,0.3115237095668863,right,-0.0053133368492126465,-0.09005440529772271,0.029691650186444166,-9.766866855666041,-0.04470256755309759,0.005894560366868973,-0.0026192753575742245,0.8819388290535658,0.004781149327754974
1745971992212372000,5.2393720703125,0.0020087229268076798,-0.06378921866416931,-0.005919874556815526,-0.005025796592235565,0.15329212482860452,0.9871539677740232,0.3082035055917248,right,0.0007880330085754395,-0.09008472171736939,0.01961897947040852,-9.766865686622262,-0.04464753740544069,-0.0030640019103884697,-0.00044698722194880247,0.8822349624559283,-0.0008641555905342102
1745971992252372200,5.279372314453125,0.001721101936038681,-0.02018120512366295,-0.006068329541753681,0.005836424417793751,0.15238151458956029,0.9872808674408198,0.30635067327243054,right,0.0032933950424194336,-0.09071228343488348,0.01680886765285395,-9.766315067002177,-0.0449408711366312,-0.022908974438905716,-0.00028963317163288593,0.8883641128607094,-0.005564384162425995
1745971992292372200,5.319372314453125,0.002346780095241139,0.04396400228142738,-0.005879302849021642,0.03095739334821701,0.15251511102903922,0.987225699349142,0.30666199001275307,right,0.005234360694885254,-0.09219082210879616,0.022916326815634963,-9.764978265440464,-0.04571746968816951,-0.028181370347738266,0.0015899050049483776,0.9028029725797474,-0.018858566880226135
1745971992332372200,5.359372314453125,0.0037703380968775674,0.09039737284183502,-0.005277038612905825,0.03118130750954151,0.1538692676777546,0.9870035388485484,0.30947589252160324,right,-0.0012664794921875,-0.09265762717923315,0.03681571849626489,-9.764513570538163,-0.046049050493720316,0.00029276125133037567,0.0028026967775076628,0.907361293471232,-0.012140847742557526
1745971992372372200,5.399372314453125,0.005079228405263742,0.11781689524650574,-0.004644402600334202,0.005743667483329773,0.15608262651142088,0.9866816282731716,0.314011312892328,right,-0.007551014423370361,-0.09148894134721407,0.049601710141473444,-9.765510764881968,-0.04556259108152351,0.03260059654712677,0.004291953984647989,0.8959489419665188,-0.004524588584899902
1745971992412372200,5.439372314453125,0.005385183776836092,0.10702729225158691,-0.004471936595931478,-0.02310158684849739,0.1584244608448462,0.986345411081679,0.3187569017663657,right,-0.007277369499206543,-0.08985425624107883,0.052597334593767295,-9.766946350643039,-0.044769542732400296,0.03026796691119671,0.003637394867837429,0.8799839686587453,0.0054941847920417786
1745971992452372000,5.4793720703125,0.004452321681839836,0.08734551072120667,-0.00492088766246985,-0.032885972410440445,0.16041434684224107,0.9860531082140106,0.32273829758723804,right,-0.00027441978454589844,-0.08860804609635031,0.043490949343331156,-9.76808032310903,-0.04407134848780546,0.01979423314332962,0.003764952067285776,0.8678114464364945,0.00501076877117157
1745971992492372200,5.519372314453125,0.0031718170169674166,0.04967201128602028,-0.005608566103383534,-0.04308422654867172,0.16172182739381857,0.985840876370554,0.32533326954671493,right,-0.000607609748840332,-0.0885995389335929,0.030982868173916357,-9.768135268166661,-0.04395720214446439,-0.003919582813978195,0.0004106946289539337,0.8677283712629228,0.0014094337821006775
1745971992532372200,5.559372314453125,0.0021746577520527955,0.05458557978272438,-0.006177123950895295,-0.017048398032784462,0.1627948081021228,0.9856566461384245,0.32746896265234315,right,0.00880354642868042,-0.08897020862440091,0.021241767499805428,-9.76783950009048,-0.04405269883349929,-0.003499114653095603,-0.0007446515373885632,0.8713490459781139,-0.0030248835682868958
1745971992572372200,5.599372314453125,0.002983703194834284,0.0672016441822052,-0.005866851090325426,0.03923914581537247,0.16399310062935632,0.9854482072489447,0.329940572667411,right,0.004181265830993652,-0.0893837041763293,0.029143309288413726,-9.767457807296514,-0.0443151064729415,-0.006646614521741867,-0.0009659635834395885,0.8753879461053758,-0.004412375390529633
1745971992612372200,5.639372314453125,0.005154166243425173,0.059506237506866455,-0.004856444302048696,0.04744211956858635,0.16527132152875032,0.9852325797284319,0.3326327288821305,right,-0.002639949321746826,-0.08937340581008232,0.05034317615854088,-9.767380650407075,-0.044481482477740565,0.005453662946820259,-0.00032697664573788643,0.8752873352751135,-0.0020232126116752625
1745971992652372200,5.679372314453125,0.0065060800081462936,0.03345922380685806,-0.004222268718820371,0.005886923521757126,0.16622204951392602,0.9850740205264925,0.3346223216691141,right,-0.00966644287109375,-0.0892225499617946,0.06354863989141303,-9.767435595464706,-0.04451470065982817,-0.013276344165205956,0.0008317632600665092,0.873813901721686,0.007772341370582581
1745971992692372000,5.7193720703125,0.0061037233253844305,-0.005847737193107605,-0.004519208744869604,-0.025515813380479813,0.16643515231088052,0.985014295784773,0.3350482179038729,right,-0.007948458194732666,-0.09029379096742929,0.05961289417794905,-9.766518480619787,-0.045007893397984486,-0.03855162113904953,0.0019757580012083054,0.8842768435470759,0.005575463175773621
1745971992732372200,5.759372314453125,0.00484990848464202,-0.012970894575119019,-0.005228780788248614,-0.027948137372732162,0.16622081118497037,0.9850238244830304,0.33456830935136056,right,-0.00023639202117919922,-0.09152950128858912,0.04736210995456203,-9.765485630440711,-0.045513361131966336,-0.026697803288698196,0.0015984182246029377,0.8963450286120176,-0.002245180308818817
1745971992772372200,5.799372314453125,0.003741424799657565,-0.005583909805864096,-0.005832017526160208,-0.04330306872725487,0.16603350995919916,0.9850377967609907,0.3341445865161144,right,-0.0044432878494262695,-0.09233474990883558,0.0365344881188008,-9.764807000526785,-0.04581904485716626,-0.007824374362826347,0.00026859226636588573,0.9042084554634988,-0.005210377275943756
1745971992812372200,5.839372314453125,0.0030802557013269024,0.011590864509344101,-0.00619094889861278,-0.010271728038787842,0.16615273213133772,0.9850103169835589,0.334359129355251,right,0.0007711648941040039,-0.09267613887566956,0.030077338735514783,-9.76452000027895,-0.045931623401993006,-0.013801351189613342,-0.001698175212368369,0.9075419838003813,-0.0026725903153419495
1745971992852372200,5.879372314453125,0.003274870231335448,0.030923601239919662,-0.006149602033046855,0.008174613118171692,0.16665388144437934,0.9849167872104375,0.33538931279053513,right,0.004800260066986084,-0.0930458549843839,0.03197655538638355,-9.764177470451592,-0.046126711553413066,-0.01978369802236557,-0.00034814351238310337,0.9111520640563219,-0.00047475099563598633
1745971992892372200,5.919372314453125,0.0036240717820695645,0.026990069076418877,-0.006075617686621689,0.016989443451166153,0.16725278127411036,0.9847953314920016,0.3366299628820647,right,0.0042626261711120605,-0.09387433244065944,0.035383470903174015,-9.763407655122876,-0.046560024263385597,-0.029136959463357925,0.002328887116163969,0.9192411894224584,0.0049631670117378235
1745971992932372000,5.9593720703125,0.004450729523097953,0.006962252780795097,-0.005786476634273172,0.012014782056212425,0.1675930890406733,0.984707841144285,0.3373725151664416,right,-0.0019600391387939453,-0.09507323900365011,0.043449516787822356,-9.762266083872317,-0.04721731983242687,-0.031838495284318924,0.0004996340721845627,0.9309460210677236,0.0069410353899002075
1745971992972372200,5.999372314453125,0.004359088886735718,-0.012264864519238472,-0.0059640865591018485,-0.005278961732983589,0.1674199896074571,0.9846967161119831,0.3370339142819357,right,-0.0019754767417907715,-0.09674936433391296,0.04254803790345322,-9.76069605807662,-0.04803584834647743,-0.045205965638160706,0.0015045907348394394,0.9473076655428856,0.006482720375061035
1745971993012372200,6.039372314453125,0.004013344836173649,-0.016656018793582916,-0.006301354077779189,-0.016854580491781235,0.16707697736244712,0.9847008936166103,0.3363430439531841,right,-0.003172755241394043,-0.09894483502192207,0.03916488913802896,-9.75860639232099,-0.04908995511174909,-0.05167490616440773,-0.001111703459173441,0.9687348497793078,0.0036511197686195374
1745971993052372200,6.079372314453125,0.003987610025256449,-0.015014725737273693,-0.006458542318875144,0.006925128400325775,0.16675143426455566,0.9847074131946327,0.33570064930084603,right,-0.0005080699920654297,-0.10086494032162795,0.03890626560130622,-9.756729492533207,-0.05003519558613551,-0.03811568766832352,-0.00017824885435402393,0.9874708221703767,0.0005849823355674744
1745971993092372200,6.119372314453125,0.004822121159590693,0.0017093280330300331,-0.006131005831201437,0.024396279826760292,0.1666430055562501,0.9846978836481297,0.3355343948193902,right,0.0010617971420288086,-0.10191359867841362,0.047043330895551475,-9.755652803212403,-0.050621563491937804,-0.00962458923459053,0.0012506423518061638,0.9977017818707972,-0.0031559914350509644
1745971993132372200,6.159372314453125,0.005596950212565531,0.01098540797829628,-0.005762755974796494,0.016994941979646683,0.16672539047657184,0.9846804252900656,0.33574266565467736,right,0.00016415119171142578,-0.10200890034928195,0.0546017469184706,-9.755518363177776,-0.05073244071041396,0.0011897515505552292,0.0009333444759249687,0.9986315370015799,-0.002704530954360962
1745971993172372200,6.199372314453125,0.006295045184923135,0.016259782016277313,-0.005398003339818917,0.015391923487186432,0.16699268163946387,0.9846450741009867,0.33631654375824155,right,-0.0013892650604248047,-0.1015830307915601,0.06141468290290795,-9.7559023940593,-0.05057942280078121,0.008970296010375023,0.001881403848528862,0.9944768284749239,-0.0010697096586227417
1745971993212372000,6.2393720703125,0.007135006959362315,0.02258870378136635,-0.004961230530622984,0.019267810508608818,0.16735728306145364,0.9845949816490261,0.3370941040509186,right,-0.003357231616973877,-0.10107108807317002,0.06961286726724356,-9.756354814001917,-0.05039559514137193,0.01150872465223074,0.0008403230458498001,0.9894820889275521,0.001868508756160736
1745971993252372200,6.279372314453125,0.007135006959362315,0.012606223113834858,-0.004961230530622984,0.009051374159753323,0.16735728306145364,0.9845949816490261,0.3370941040509186,right,-0.001491546630859375,-0.10107108807317002,0.06961286726724356,-9.756354814001917,-0.05039559514137193,-0.005783346481621265,0.002635132521390915,0.9894820889275521,0.001499570906162262
1745971993292372200,6.319372314453125,0.007927348922652592,0.007877485826611519,-0.0046281265507918164,0.012350104749202728,0.1678250288281098,0.9845040328979111,0.33808959663112276,right,0.0007966756820678711,-0.10144970170785653,0.07734023751574567,-9.75592168328166,-0.05064597817617296,-0.012372780591249466,0.0017239274457097054,0.9931760480746626,-0.0005671456456184387
1745971993332372200,6.359372314453125,0.008547536972052633,0.008948612958192825,-0.00438322657669062,0.014007789082825184,0.16800998613370066,0.9844560201786453,0.33850497231997095,right,-0.000016987323760986328,-0.10204174310495193,0.08338569169244729,-9.755282216334342,-0.05098851361068587,-0.00990607775747776,0.0017789416015148163,0.9989519280623644,-0.002055048942565918
1745971993372372200,6.399372314453125,0.008547536972052633,0.004194886423647404,-0.00438322657669062,0.016778023913502693,0.16800998613370066,0.9844560201786453,0.33850497231997095,right,-0.000667572021484375,-0.10204174310495193,0.08338569169244729,-9.755282216334342,-0.05098851361068587,-0.009438406676054,0.0025910232216119766,0.9989519280623644,-0.00241166353225708
1745971993412372200,6.439372314453125,0.009767573261256922,0.005542295053601265,-0.00384896069581407,0.006631966680288315,0.16821469910646988,0.9844016453363146,0.3389928187461174,right,-0.0013963580131530762,-0.10267961976542969,0.09528117793845012,-9.754534028315543,-0.05140401014821597,-0.003715628758072853,0.0013532675802707672,1.0051746019694954,-0.0012679025530815125
1745971993452372000,6.4793720703125,0.010087841715317777,-0.00027262838557362556,-0.0037072188220256992,-0.0014386512339115143,0.1682943825238563,0.9843838618033368,0.3391733227637787,right,-0.0031223297119140625,-0.1028129704713649,0.09840389480255543,-9.754368608620762,-0.05149623588902519,0.007221490144729614,0.0006822673603892326,1.0064754554349928,-0.003131292760372162
1745971993492372200,6.519372314453125,0.010087841715317777,0.0014497976517304778,-0.0037072188220256992,0.01754141040146351,0.1682943825238563,0.9843838618033368,0.3391733227637787,right,-0.0007826089859008789,-0.1028129704713649,0.09840389480255543,-9.754368608620762,-0.05149623588902519,0.016817759722471237,0.0019164634868502617,1.0064754554349928,-0.0006325095891952515
1745971993532372200,6.559372314453125,0.010877978018510766,0.007343055680394173,-0.0032334782209622773,0.01285815704613924,0.1683940760478883,0.9843924766827652,0.33940194292632164,right,-0.0005097389221191406,-0.10173875941341286,0.10612283514942973,-9.755363464877009,-0.051033679628058125,0.007287805899977684,0.002251352183520794,0.9959960739314555,0.0018225014209747314
1745971993572372200,6.599372314453125,0.01129159943563977,0.012394134886562824,-0.00302556781215584,0.006381235085427761,0.16858308999512986,0.9843634450203317,0.33980494569623365,right,0.00011450052261352539,-0.10156592533700966,0.11015979904793202,-9.75549089064896,-0.05098283424038069,-0.003962957300245762,0.002576780505478382,0.9943099474754183,0.0016351863741874695
1745971993612372200,6.639372314453125,0.011576932786861824,0.005743853747844696,-0.002918508933857318,0.007364177610725164,0.16867443823058434,0.9843384070196431,0.34001016252030314,right,0.0008443593978881836,-0.1018984815322567,0.11293952942695468,-9.755127318033576,-0.051170246027623385,-0.006156438961625099,0.0023340675979852676,0.9975543362241238,0.0017686337232589722
1745971993652372200,6.679372314453125,0.011862340964331034,-0.0009064278565347195,-0.002811450055558706,0.008347120136022568,0.16876573804652503,0.984313334258856,0.3402154065662341,right,0.0015740394592285156,-0.10223098698151001,0.11571977126263082,-9.75476257637441,-0.05135765781486606,-0.008349920623004436,0.002091306261718273,1.0007981404509394,0.001902155578136444
1745971993692372000,6.7193720703125,0.011862340964331034,-0.007556708995252848,-0.002811450055558706,0.009330063126981258,0.16876573804652503,0.984313334258856,0.3402154065662341,right,0.0023409128189086914,-0.10223098698151001,0.11571977126263082,-9.75476257637441,-0.05135765781486606,-0.010543402284383774,0.0021320469677448273,1.0007981404509394,0.0023664385080337524
1745971993732372200,6.759372314453125,0.012219015323997716,-0.0033546830527484417,-0.0026412421386498115,0.007409955840557814,0.16873033818930058,0.9843162431067055,0.34016325757367377,right,0.0007904767990112305,-0.10230977294999992,0.11919807836506514,-9.754642164865135,-0.051426595543724585,-0.0024555064737796783,0.0022471947595477104,1.0015667136706412,0.000621408224105835
1745971993772372200,6.799372314453125,0.012219015323997716,0.0008473433554172516,-0.0026412421386498115,0.005489848554134369,0.16873033818930058,0.9843162431067055,0.34016325757367377,right,-0.0007477402687072754,-0.10230977294999992,0.11919807836506514,-9.754642164865135,-0.051426595543724585,0.005632390268146992,0.0027170302346348763,1.0015667136706412,-0.0010452419519424438
1745971993812372200,6.839372314453125,0.012926054400104206,0.007056002970784903,-0.0022712702681237985,0.0026445614639669657,0.16881459312408695,0.9843078314486141,0.3403665025087207,right,-0.001284778118133545,-0.10198841033991358,0.12609911732464096,-9.7548765581429,-0.05132786928713907,0.010341880843043327,0.0005519362166523933,0.9984316305153071,-0.0013347268104553223
1745971993852372200,6.879372314453125,0.013286541855356902,0.01139780506491661,-0.002085318178344395,0.005455781705677509,0.1690667156271183,0.9842701021003233,0.3408935994773773,right,-0.0007592439651489258,-0.10172833430106812,0.12961906247856095,-9.755089908632636,-0.051229764322308316,0.005470499396324158,0.000924515537917614,0.9958943671226501,-0.001181080937385559
1745971993892372200,6.919372314453125,0.013646873421179206,0.01573960855603218,-0.0018993665536440496,0.008267001248896122,0.1693187760512206,0.9842322548123212,0.3414204930102235,right,-0.0002338886260986328,-0.10146805278602265,0.13313765592561103,-9.755301505556702,-0.05113164593380644,0.0005991170182824135,0.0012972354888916016,0.9933550579033792,-0.001027226448059082
1745971993932372000,6.9593720703125,0.014085027826366286,0.02225547283887863,-0.001700459402307739,0.010067812167108059,0.16976314253896677,0.9841562929733229,0.34234499316123645,right,-0.0006262660026550293,-0.10138667249446659,0.13741310475510543,-9.75532313286662,-0.05112791290590394,0.0005120874266140163,0.0002623526379466057,0.9925610579814761,-0.0007315129041671753
1745971993972372200,6.999372314453125,0.014341165413907267,0.01582190953195095,-0.001608743477211028,0.005267080385237932,0.17021924214179507,0.984073492564582,0.34328713083666734,right,-0.00047898292541503906,-0.10150635034431996,0.13991010006945578,-9.755168234565854,-0.05120778592855906,0.000004937988705933094,0.0009946804493665695,0.9937287135213613,-0.00010433048009872437
1745971994012372200,7.039372314453125,0.014597413373396918,0.009388348087668419,-0.001517028870906716,0.0004663490690290928,0.17067526600627908,0.9839904910365176,0.34422924213906375,right,-0.00033169984817504883,-0.10162579808177183,0.14240810916395857,-9.755013336265087,-0.05128765072626893,-0.0005022113909944892,0.001726912334561348,0.9948940309736877,0.0005230903625488281
1745971994052372200,7.079372314453125,0.014722358115345783,0.01302226074039936,-0.0015007538793707293,0.001902701216749847,0.170933900775907,0.9839357182245542,0.3447673988765525,right,-0.0007770657539367676,-0.10199154576061918,0.1436215766069479,-9.754631058949231,-0.05147783151685154,-0.0059894719161093235,0.0011126641184091568,0.9984622448492795,-0.0002743080258369446
1745971994092372200,7.119372314453125,0.014722358115345783,0.018103767186403275,-0.0015007538793707293,0.010835175402462482,0.170933900775907,0.9839357182245542,0.3447673988765525,right,0.0005267858505249023,-0.10199154576061918,0.1436215766069479,-9.754631058949231,-0.05147783151685154,0.00039960024878382683,0.000919802114367485,0.9984622448492795,-0.0015441551804542542
1745971994132372200,7.159372314453125,0.014971502653291573,0.0073801735416054726,-0.0014278170682130288,-0.005248299799859524,0.17137103399878112,0.9838508216120562,0.34567402187143803,right,-0.0012770891189575195,-0.1022970114089924,0.14604731504968366,-9.754289698165655,-0.05164874184987247,-0.007926095277071,0.00034467875957489014,1.001442210508138,0.001184120774269104
1745971994172372200,7.199372314453125,0.014971502653291573,0.006868115626275539,-0.0014278170682130288,-0.010732224211096764,0.17137103399878112,0.9838508216120562,0.34567402187143803,right,-0.0019356608390808105,-0.1022970114089924,0.14604731504968366,-9.754289698165655,-0.05164874184987247,0.003484508953988552,0.0005715452134609222,1.001442210508138,-0.002588339149951935
1745971994212372000,7.2393720703125,0.014971502653291573,0.013989404775202274,-0.0014278170682130288,0.01577998697757721,0.17137103399878112,0.9838508216120562,0.34567402187143803,right,-0.0004748106002807617,-0.1022970114089924,0.14604731504968366,-9.754289698165655,-0.05164874184987247,-0.010421529412269592,0.0017792973667383194,1.001442210508138,0.00044592469930648804
1745971994252372200,7.279372314453125,0.015403302683437113,0.010225163772702217,-0.0012860703690347078,0.00640525110065937,0.17185726653474379,0.9837509855838541,0.34669373473574844,right,0.0002760887145996094,-0.1028103945359128,0.15025126041239126,-9.753710436972975,-0.05193760077417923,-0.010500822216272354,0.0017223600298166275,1.0064503209937363,0.0012034103274345398
1745971994292372200,7.319372314453125,0.015403302683437113,0.00010034814476966858,-0.0012860703690347078,0.00253479927778244,0.17185726653474379,0.9837509855838541,0.34669373473574844,right,0.000884711742401123,-0.1028103945359128,0.15025126041239126,-9.753710436972975,-0.05193760077417923,-0.011221597902476788,0.0026295557618141174,1.0064503209937363,0.002678707242012024
1745971994332372200,7.359372314453125,0.01592384538930384,0.002439700998365879,-0.0011140326137821816,0.00039819697849452496,0.1721734375364081,0.9836736093112595,0.3473770779959141,right,-0.0020027756690979004,-0.10357628519795262,0.1553161425865255,-9.752857035014033,-0.05235861503277366,-0.0008538458496332169,0.0018314346671104431,1.0139211683310567,0.00016232579946517944
1745971994372372200,7.399372314453125,0.01592384538930384,0.0019291761564090848,-0.0011140326137821816,-0.003225950291380286,0.1721734375364081,0.9836736093112595,0.3473770779959141,right,-0.001811981201171875,-0.10357628519795262,0.1553161425865255,-9.752857035014033,-0.05235861503277366,-0.009884060360491276,0.0024522114545106888,1.0139211683310567,0.0011288300156593323
1745971994412372200,7.439372314453125,0.01592384538930384,0.00031982059590518475,-0.0011140326137821816,-0.0016824211925268173,0.1721734375364081,0.9836736093112595,0.3473770779959141,right,-0.0007311105728149414,-0.10357628519795262,0.1553161425865255,-9.752857035014033,-0.05235861503277366,-0.009281616657972336,0.0021078307181596756,1.0139211683310567,0.0016839727759361267
1745971994452372000,7.4793720703125,0.01592384538930384,-0.001289535197429359,-0.0011140326137821816,-0.0001388919772580266,0.1721734375364081,0.9836736093112595,0.3473770779959141,right,0.0003497004508972168,-0.10357628519795262,0.1553161425865255,-9.752857035014033,-0.05235861503277366,-0.00867917388677597,0.0017634518444538116,1.0139211683310567,0.002239115536212921
1745971994492372200,7.519372314453125,0.016185056410166272,-0.003517049364745617,-0.0010926843206424965,0.0027796397916972637,0.17214187524888191,0.9836450076613401,0.3473482842333912,right,-0.0013259649276733398,-0.1048235838016046,0.15784310378087685,-9.751544198849796,-0.052994489034947426,-0.004275336395949125,0.0008144378662109375,1.0260866762906313,0.00044404715299606323
1745971994532372200,7.559372314453125,0.016185056410166272,-0.0016918086912482977,-0.0010926843206424965,-0.004387618973851204,0.17214187524888191,0.9836450076613401,0.3473482842333912,right,-0.00023883581161499023,-0.1048235838016046,0.15784310378087685,-9.751544198849796,-0.052994489034947426,-0.006597723811864853,0.0009216833859682083,1.0260866762906313,0.0006557852029800415
1745971994572372200,7.599372314453125,0.01605454792386267,0.002746955258771777,-0.0012265404301486573,0.002221217844635248,0.17209411821980675,0.9836317080055743,0.3472585552375967,right,0.0012016892433166504,-0.10565683994230576,0.15655666243322192,-9.750706578981875,-0.05339305705990253,-0.012314600870013237,0.0006738994270563126,1.0342129187967628,-0.0010524168610572815
1745971994612372200,7.639372314453125,0.01605454792386267,0.003022362943738699,-0.0012265404301486573,0.009240953251719475,0.17209411821980675,0.9836317080055743,0.3472585552375967,right,0.001248180866241455,-0.10565683994230576,0.15655666243322192,-9.750706578981875,-0.05339305705990253,-0.005634696688503027,0.0017150510102510452,1.0342129187967628,-0.0005839094519615173
1745971994652372200,7.679372314453125,0.01662024104587437,0.008535346016287804,-0.001007000736131456,0.006707737222313881,0.17215529549518477,0.9836018863682235,0.34742473446879013,right,-0.0007772445678710938,-0.10628377948838846,0.16206172612290828,-9.749965989747643,-0.053749932626520225,-0.006735272705554962,0.0019207876175642014,1.040326579371467,-0.000127352774143219
1745971994692372000,7.7193720703125,0.016823309960557368,0.010253704153001308,-0.000952485192630102,0.00136914337053895,0.17238866720959983,0.983550108945245,0.3479169480461979,right,-0.0011298656463623047,-0.1066545358723003,0.1640351450877264,-9.749546887552738,-0.053949489696962095,-0.005799261853098869,0.0013427846133708954,1.043941920324415,0.00004597753286361694
1745971994732372200,7.759372314453125,0.016823309960557368,0.011972063221037388,-0.000952485192630102,-0.003969450481235981,0.17238866720959983,0.983550108945245,0.3479169480461979,right,-0.0014397501945495605,-0.1066545358723003,0.1640351450877264,-9.749546887552738,-0.053949489696962095,-0.0048632510006427765,0.0009660124778747559,1.043941920324415,0.0005879774689674377
1745971994772372200,7.799372314453125,0.017112049111903643,0.01528765819966793,-0.0008830241675293866,0.0003966214135289192,0.17291684459396156,0.9834427442354343,0.3490157304126454,right,-0.0015117526054382324,-0.1071479249417809,0.16684137988118453,-9.74898282392919,-0.05421649705474487,-0.0020733862183988094,0.000729043036699295,1.0487527546722442,0.0002693980932235718
1745971994812372200,7.839372314453125,0.0170945734818173,0.010229204781353474,-0.000928624600968442,-0.00714087625965476,0.17329850211291067,0.9833706307919313,0.3497942390190092,right,0.001639246940612793,-0.10733050887799112,0.1666677403473295,-9.74879402335882,-0.05430439653701541,-0.005774995312094688,0.004210243001580238,1.0505329891525208,0.002729468047618866
1745971994852372200,7.879372314453125,0.0170945734818173,0.007109804078936577,-0.000928624600968442,-0.006292619742453098,0.17329850211291067,0.9833706307919313,0.3497942390190092,right,-0.0052255988121032715,-0.10733050887799112,0.1666677403473295,-9.74879402335882,-0.05430439653701541,0.0024376939982175827,0.002715557813644409,1.0505329891525208,-0.00012210756540298462
1745971994892372200,7.919372314453125,0.017025477431057,-0.0053467415273189545,-0.0009863624760000557,-0.01457748468965292,0.17357565637620626,0.9833193943326809,0.3503558817174815,right,-0.0005390644073486328,-0.10742813166766395,0.16599238010272382,-9.74870283794403,-0.05434612597208519,0.0019754497334361076,0.004307851195335388,1.0514848830498755,0.0020133256912231445
1745971994932372000,7.9593720703125,0.015912337115667807,-0.009232419542968273,-0.001503676407519548,-0.034046050161123276,0.17341230324050888,0.9833587766524338,0.3499583075689345,right,-0.0007610917091369629,-0.10720788308142726,0.15514429315095765,-9.74911317231059,-0.05414154296709024,0.009626233950257301,0.005349969491362572,1.049337349627167,-0.0008305683732032776
1745971994972372200,7.999372314453125,0.015049132903494349,-0.007554482202976942,-0.0019206075267145808,-0.03240973502397537,0.1732532528131642,0.9833895080876753,0.34958786548563575,right,-0.0019392967224121094,-0.10723693295098566,0.14672830131747758,-9.749213125553727,-0.05408132487616397,-0.0038686981424689293,0.00035653170198202133,1.0496206235479564,-0.0007631406188011169
1745971995012372200,8.039372314453125,0.013598536976471592,-0.002063251566141844,-0.002688562257809952,-0.04738675802946091,0.17324838201118442,0.9833777935236223,0.3495089309615795,right,0.00032335519790649414,-0.10789031338067091,0.13257663364252076,-9.748727387863397,-0.054276975133124905,-0.018197152763605118,0.0015675555914640427,1.0559910353627056,-0.0015557855367660522
1745971995052372200,8.079372314453124,0.01198839536586629,0.016666531562805176,-0.003569740800146344,-0.023632274940609932,0.17343918777912695,0.9833237804527079,0.34982273539964354,right,0.003640890121459961,-0.10882086949419835,0.11686779965343884,-9.747941790443658,-0.05459440577030824,-0.020749833434820175,0.0031535793095827103,1.0650631804168225,-0.004478573799133301
1745971995092372200,8.119372314453125,0.011412597086856184,0.02591170370578766,-0.0039018797396259933,-0.02398221381008625,0.17394778227879212,0.9832287717928245,0.3508290599205576,right,-0.0016051530838012695,-0.10906830414458318,0.11125192339988425,-9.747743637523055,-0.05466415598093482,-0.003497537225484848,0.0005603451281785965,1.0674752830598502,-0.0022547096014022827
1745971995132372200,8.159372314453124,0.010461830309123805,0.03677898645401001,-0.0044340026362132915,-0.02870960161089897,0.17467408004515236,0.983094510462966,0.3522581008607808,right,-0.002927422523498535,-0.10936178752417083,0.10198076690863818,-9.747531456077098,-0.05472256814222648,-0.01620064303278923,0.0009418325498700142,1.0703362254489213,0.0014774873852729797
1745971995172372200,8.199372314453125,0.009454130067322503,0.051239728927612305,-0.00504789750510243,-0.05606710538268089,0.1755514661320946,0.9829182253528583,0.3539988605399044,right,-0.009109437465667725,-0.11016843375444466,0.09214993070801719,-9.74676222527027,-0.05502664445044252,-0.021282322704792023,-0.004162618424743414,1.078199140843749,-0.0033115744590759277
1745971995212372000,8.2393720703125,0.007080384369757123,0.06986232101917267,-0.006384210367422059,-0.07195983082056046,0.1767503272479735,0.9826747552034375,0.3563220961923534,right,-0.002072632312774658,-0.11136575616812826,0.06900416991752573,-9.745655725333094,-0.05539924404426106,-0.04693429172039032,0.0011627767235040665,1.089868901175633,-0.0024500638246536255
1745971995252372200,8.279372314453125,0.004937971055052815,0.08594323694705963,-0.007720607116542284,-0.052106793969869614,0.1784359453550372,0.982312014659081,0.3596599197329895,right,0.003651261329650879,-0.11351017755662779,0.048113152084150346,-9.743421682670713,-0.05625061611987525,-0.0668724924325943,0.0014783781953155994,1.110765704862401,-0.0024183988571166992
1745971995292372200,8.319372314453124,0.003965446855411921,0.08197002112865448,-0.00851393238878644,-0.02131858840584755,0.18013734098032305,0.9819316915113788,0.3630992910628385,right,0.004203438758850098,-0.11593956113877109,0.03862660384313203,-9.740736973631382,-0.057342399391573276,-0.06148891896009445,0.0002426188439130783,1.1344332153715193,-0.0014808997511863708
1745971995332372200,8.359372314453125,0.004145244195564727,0.06933118402957916,-0.008697082221148079,0.0030869264155626297,0.18159296980384715,0.981602832133685,0.36610136194214365,right,0.002826392650604248,-0.11797806281226306,0.040368291844730265,-9.738397132506966,-0.058346362460471785,-0.04731174185872078,0.00040706293657422066,1.1542874512027947,0.000027105212211608887
1745971995372372200,8.399372314453124,0.004999435062378354,0.05582263320684433,-0.00847449391943427,0.008242448791861534,0.1826662438709199,0.9813595266394001,0.36835853894435666,right,0.0003998875617980957,-0.11940696353803061,0.04867843041724991,-9.736699680939315,-0.059115646944943916,-0.042409494519233704,-0.00023742765188217163,1.168201629460603,0.0023284032940864563
1745971995412372200,8.439372314453125,0.005857024760778643,0.0423140823841095,-0.008251888543449147,0.013397970236837864,0.1837391963301738,0.9811145227927687,0.37061741071357246,right,-0.0020291805267333984,-0.1208339703823223,0.05701868100024294,-9.7349776794523,-0.05988482745490195,-0.03750724717974663,-0.0008849888108670712,1.1820949110608547,0.00463181734085083
1745971995452372000,8.4793720703125,0.006403962037323637,0.029636994004249573,-0.008174339754249554,0.00512292142957449,0.18446738428094617,0.9809285693085722,0.3721582279672772,right,-0.0010528564453125,-0.12239822759899117,0.062331176693318405,-9.733083828529715,-0.060696082974816074,-0.03437621518969536,0.00053787836804986,1.1973217793524265,0.0039000585675239563
1745971995492372200,8.519372314453125,0.006878698721731492,0.020412323996424675,-0.008089873374882928,0.009531265124678612,0.18499109615668644,0.9807906304850297,0.37327410439735,right,-0.002127408981323242,-0.12363322160979019,0.06694159766479861,-9.731566994225979,-0.06134101927514127,-0.023561201989650726,-0.00001849466934800148,1.2093413760352878,0.002275139093399048
1745971995532372200,8.559372314453125,0.006987793861777192,0.01627146080136299,-0.008139479956092615,-0.004510167986154556,0.18528464688837043,0.9807063336934108,0.373893313388159,right,-0.0009137392044067383,-0.1245390100517424,0.06799558196344878,-9.7304604942888,-0.061792751560621514,-0.02068362571299076,0.0005547842010855675,1.2181558200012892,0.0010071024298667908
1745971995572372200,8.599372314453126,0.006781033396304758,0.03341169282793999,-0.00833475453908818,-0.005774081218987703,0.18571076492405145,0.9806032570365103,0.374760343190145,right,0.0009361505508422852,-0.12526014367462357,0.06597773476843721,-9.729593063804506,-0.06212356269198328,-0.013481957837939262,0.0023637241683900356,1.2251726399607956,-0.0005363300442695618
1745971995612372200,8.639372314453125,0.0069233663207824625,0.038377247750759125,-0.008333465669757782,-0.0019108804408460855,0.18653466050804454,0.9804411802601309,0.3764525045988311,right,-0.0004374384880065918,-0.12543052358948661,0.06736112911796663,-9.729375037139654,-0.06221328132476408,-0.0036744335666298866,0.00072433240711689,1.2268303440399466,-0.0007920712232589722
1745971995652372200,8.679372314453126,0.007066002815065723,0.043342798948287964,-0.008332169117005418,0.0019523205701261759,0.18735848157681426,0.9802783896273386,0.37814484539529725,right,-0.0018110871315002441,-0.1256006579858982,0.06874741411090363,-9.72915642595291,-0.06230295316901356,0.006133090704679489,-0.0009153559803962708,1.2284857100315392,-0.0010475516319274902
1745971995692372000,8.7193720703125,0.0074553966734383185,0.03706840053200722,-0.008176942503238338,0.016837315633893013,0.18813377702818598,0.9801340319542049,0.37974909587568156,right,0.002195894718170166,-0.12544825531703704,0.07253728051369544,-9.729316000428796,-0.06225819969025751,-0.007246028631925583,0.0012527820654213428,1.2270029241278766,0.00313374400138855
1745971995732372200,8.759372314453126,0.007654996477121293,0.03427676483988762,-0.008211744785515692,-0.0031388290226459503,0.1888293877283826,0.9799702564452331,0.38119609166190943,right,0.002055346965789795,-0.12637337211682131,0.0744705272983294,-9.728162154218554,-0.06272437030672054,-0.03707017004489899,-0.00026022735983133316,1.2360033921852707,0.002121478319168091
1745971995772372200,8.799372314453125,0.007718346718974617,0.04765314981341362,-0.008419741887957804,-0.008677413687109947,0.1897063720743138,0.9797387261065661,0.38302109779304916,right,0.00045424699783325195,-0.12828505433040355,0.07506843382597435,-9.725776720386744,-0.06365927841240221,-0.06453172117471695,0.0016180411912500858,1.25459878706187,0.0013400018215179443
1745971995812372200,8.839372314453126,0.00814662890716612,0.05094051733613014,-0.008547086633084115,0.013643726706504822,0.19067601472868134,0.9794558032846947,0.38507607157792334,right,-0.0007767677307128906,-0.1311270261478921,0.07920443308558314,-9.722138656145333,-0.06508314462669189,-0.0729798972606659,0.0010563898831605911,1.2822349820062517,-0.0003021359443664551
1745971995852372200,8.879372314453125,0.009190761551129956,0.04562760144472122,-0.008329039642297665,0.016544437035918236,0.19168462560752836,0.9791786967077896,0.3872459633556373,right,-0.0014867782592773438,-0.13344207412312817,0.08932806908716447,-9.719056472221016,-0.06630725332252625,-0.04705645143985748,0.0011383667588233948,1.3047393670201302,-0.0010377317667007446
1745971995892372200,8.919372314453126,0.010066304330218495,0.03387919440865517,-0.008093193240136652,0.02214530110359192,0.19245042531821188,0.9789775546791667,0.38889570575069804,right,-0.00021380186080932617,-0.13487177278190773,0.09781860572788864,-9.717099492934345,-0.0670843635739242,-0.03370075672864914,0.0009243208914995193,1.31863403685987,0.00024646520614624023
1745971995932372000,8.9593720703125,0.010484229944306341,0.015692781656980515,-0.007982486115774162,0.011791534721851349,0.19295973519781442,0.9788556912364564,0.389975956457,right,0.0017123818397521973,-0.13546671114907022,0.10187137911687605,-9.71627122541666,-0.06741145063494251,-0.010603278875350952,0.004859310574829578,1.3244151044793426,0.004405781626701355
1745971995972372200,8.999372314453124,0.010903484579037672,0.007778827100992203,-0.007824593462507664,0.0059145414270460606,0.19322714949254743,0.9787919594889191,0.39055664129937273,right,-0.002993762493133545,-0.13575254749767424,0.10594082964602858,-9.715849200612306,-0.06758950361156553,-0.005028993356972933,0.001587236300110817,1.3271924602381884,0.003440365195274353
1745971996012372200,9.039372314453125,0.010903484579037672,-0.004172198474407196,-0.007824593462507664,-0.010511325672268867,0.19322714949254743,0.9787919594889191,0.39055664129937273,right,-0.0013210773468017578,-0.13575254749767424,0.10594082964602858,-9.715849200612306,-0.06758950361156553,-0.011410554870963097,0.001886066049337387,1.3271924602381884,0.005997955799102783
1745971996052372200,9.079372314453124,0.010652686385668948,-0.005812440998852253,-0.00802426583762512,0.003837290219962597,0.19313045288115943,0.9787818273966056,0.3903579833068306,right,0.0029373764991760254,-0.13661555269067716,0.10349187472448684,-9.714726334062219,-0.06798835249386258,-0.008816651068627834,0.0021247779950499535,1.3355772806152701,0.0016015022993087769
1745971996092372200,9.119372314453125,0.010652686385668948,-0.005749320611357689,-0.00802426583762512,0.013108073733747005,0.19313045288115943,0.9787818273966056,0.3903579833068306,right,0.0005055069923400879,-0.13661555269067716,0.10349187472448684,-9.714726334062219,-0.06798835249386258,-0.0035665002651512623,0.0024695806205272675,1.3355772806152701,0.00036375224590301514
1745971996132372200,9.159372314453124,0.011420656381547678,-0.00575750507414341,-0.007670586202841446,0.005824934225529432,0.19294510607341192,0.9788043199792635,0.3900391729117349,right,-0.0010918974876403809,-0.13695633079125782,0.11094725963119417,-9.714187989401816,-0.06823048087277866,-0.0008483408018946648,0.0019990773871541023,1.3388880125984548,0.002765849232673645
1745971996172372200,9.199372314453125,0.011665199395937714,-0.00038751401007175446,-0.0075605172034095315,0.0033899482805281878,0.19288317314286826,0.978811073443445,0.3899323421358075,right,-0.001379847526550293,-0.13709324616451832,0.11332064683218486,-9.71397756152153,-0.06832146957111629,0.0008832061430439353,0.0020274361595511436,1.3402180921584368,0.0010250955820083618
1745971996212372000,9.2393720703125,0.011665199395937714,0.004982477519661188,-0.0075605172034095315,0.0009549625683575869,0.19288317314286826,0.978811073443445,0.3899323421358075,right,-0.001646280288696289,-0.13709324616451832,0.11332064683218486,-9.71397756152153,-0.06832146957111629,0.002614753320813179,0.0022978102788329124,1.3402180921584368,-0.0005800575017929077
1745971996252372200,9.279372314453125,0.01175686419533696,0.019910890609025955,-0.007551369150653546,-0.006523082032799721,0.19310461164076412,0.9787599743036848,0.3903952115317077,right,-0.001162886619567871,-0.13729850625570378,0.11420784146287478,-9.713691730317473,-0.06842900276054993,-0.0024948623031377792,0.002842129208147526,1.34221204245463,0.00020495057106018066
1745971996292372200,9.319372314453124,0.011597035604105013,0.03462982177734375,-0.007677089932013507,-0.006678680889308453,0.19359579519833914,0.9786585564340895,0.3913904613070567,right,-0.000489652156829834,-0.13743700223191058,0.11265315936678089,-9.713523972535134,-0.06847752577590796,0.0018203728832304478,0.004023978486657143,1.3435574657142162,-0.0029333382844924927
1745971996332372200,9.359372314453125,0.011335701302376643,0.044076256453990936,-0.007867507159840985,-0.02263772487640381,0.19440380215060266,0.9784967396990065,0.39302486922064733,right,-0.002163529396057129,-0.1375046487486948,0.11011364921811036,-9.713462013214826,-0.06847891974692358,-0.007497615646570921,0.0013204319402575493,1.3442146144486964,-0.0017891079187393188
1745971996372372200,9.399372314453124,0.0108018135621252,0.04900696501135826,-0.008221750227057446,-0.034369777888059616,0.19540079644117242,0.9782909039858765,0.39503031616842643,right,-0.0047223567962646484,-0.13775377563230162,0.10492410861784592,-9.713184365317225,-0.06854067821205179,0.0009612436406314373,0.0008081207051873207,1.3466346812024712,-0.004758372902870178
1745971996412372200,9.439372314453125,0.009919315991468985,0.06383756548166275,-0.008705056317977538,-0.019757159054279327,0.19656956947799703,0.9780689040716892,0.39735288862387075,right,-0.00024622678756713867,-0.13747133681899443,0.09635597669626586,-9.713653151872753,-0.0683062561090662,-0.0013135047629475594,0.0013409340754151344,1.3438910815827547,-0.0010778307914733887
1745971996452372000,9.4793720703125,0.009468896031781868,0.10016646236181259,-0.009036647587406072,-0.0278579443693161,0.19817861984212837,0.9777452609190912,0.4006122755520645,right,0.0001380443572998047,-0.13747222042377674,0.09198073902041651,-9.713694068405031,-0.06824777800631417,-0.0006216581095941365,0.0017013037577271461,1.3438995571501553,-0.00804150104522705
1745971996492372200,9.519372314453125,0.008898567248661334,0.1730363667011261,-0.009485519787005401,-0.03706667572259903,0.2009614223967489,0.9771862430589207,0.40626224060920396,right,0.0001430511474609375,-0.1372484866623627,0.08644339876263402,-9.714045366060732,-0.06805537387630645,-0.0017154908273369074,0.002137826755642891,1.341726158633828,-0.00945352017879486
1745971996532372200,9.559372314453125,0.008778665432813451,0.2298160344362259,-0.009839277366889096,-0.03297332674264908,0.20496961179602075,0.9763481343942668,0.4144638914549776,right,-0.0010481476783752441,-0.1374063249453355,0.0852768026686739,-9.71384429053068,-0.06808065649154096,-0.0060212267562747,0.0010362332686781883,1.3432595056809484,-0.009843751788139343
1745971996572372200,9.599372314453126,0.008553288301457067,0.2635454833507538,-0.010271415521332103,-0.049299441277980804,0.20993345113955977,0.9753010703819696,0.4246175843058234,right,-0.0028699636459350586,-0.13718519268452667,0.08309006061358377,-9.714159932351112,-0.06789835205273981,-0.0074213724583387375,0.0009336145594716072,1.3411113877363503,-0.0012084245681762695
1745971996612372200,9.639372314453125,0.007951710285302274,0.2605592608451843,-0.010958215727623151,-0.048735957592725754,0.21520566247118808,0.9741434427566732,0.43539847199960074,right,0.0017085671424865723,-0.13744414679992478,0.07724346261038445,-9.713860657143591,-0.06790338514099553,-0.022732995450496674,0.0019188234582543373,1.3436268776886164,0.001352936029434204
1745971996652372200,9.679372314453126,0.006753376211627607,0.2645168900489807,-0.011918754200749712,-0.06249997019767761,0.22029340690279328,0.9729996209475389,0.4457710458706348,right,0.0005294084548950195,-0.1376754086778884,0.06560085514690726,-9.713635031694173,-0.06782615501587437,0.001156490296125412,0.0012401025742292404,1.3458733414411543,-0.0003097653388977051
1745971996692372000,9.7193720703125,0.005193096915770808,0.23717832565307617,-0.012920657168998416,-0.09491316229104996,0.22535568400383357,0.971874716695263,0.45605683780274164,right,-0.0041735172271728516,-0.1367455041777168,0.05045127617551479,-9.714973002299665,-0.06713634905747146,0.02613493613898754,0.002517514396458864,1.3368398478969932,0.005932614207267761
1745971996732344800,9.7593447265625,0.0031496932775326504,0.20355311036109924,-0.01404898171138911,-0.06696809828281403,0.22977328191009244,0.9708915992671406,0.4649865066322084,right,0.003542089369148016,-0.13532607805346092,0.03060552047821693,-9.716943425589799,-0.06615427193412245,0.0444830097258091,0.0043337042443454266,1.3230486384317277,0.013815886341035366
1745971996772344800,9.7993447265625,0.002526180240758335,0.13727888464927673,-0.014383869188524164,-0.04578797146677971,0.23265909332980025,0.9702526664673012,0.4708665290253508,right,0.001918494701385498,-0.13393429750721414,0.024551501685858238,-9.718792852848768,-0.0653650112056768,0.0355394184589386,0.0024047226179391146,1.3095233864262699,0.0171898752450943
1745971996812344800,9.8393447265625,0.002039405681509412,0.07114844024181366,-0.014647660403242516,-0.02794155292212963,0.23446939553243232,0.9698442084022191,0.4745526185284007,right,0.0018668174743652344,-0.1331440441211838,0.019822742431180086,-9.719835055378079,-0.06489813201811927,0.019886663183569908,0.0015286682173609734,1.3018426226653157,0.01744091510772705
1745971996852345000,9.879344970703125,0.0016544130057704702,0.012829229235649109,-0.014859399490103734,-0.01569540426135063,0.23511954561968387,0.9696920412493921,0.4758651625366128,right,0.0023352503776550293,-0.13299515360573852,0.01608099747794331,-9.720036130908131,-0.06477106186008184,0.006651462987065315,0.0012146478984504938,1.3003954925969243,0.014315798878669739
1745971996892344800,9.9193447265625,0.0012770578114655407,-0.021561499685049057,-0.015067418890098785,-0.00885511003434658,0.23490680835913635,0.9697321441645032,0.4754069171461697,right,0.0015055537223815918,-0.13333467638947266,0.012412525540182831,-9.719598908534646,-0.064894762925903,-0.00214550644159317,0.00032710423693060875,1.3036955570556223,0.008124485611915588
1745971996932344800,9.9593447265625,0.00043986418882837903,-0.0358317606151104,-0.015497697004732885,-0.018463600426912308,0.23412179282358453,0.969899240149497,0.473743027706414,right,0.0007669925689697266,-0.13400319085506865,0.0042749516433948885,-9.71873264709413,-0.06513347075188569,-0.009970050305128098,0.0016178142977878451,1.3101929562509058,0.010502472519874573
1745971996972344800,9.9993447265625,-0.00039852612463157997,-0.05010202154517174,-0.015927964874804357,-0.028072090819478035,0.23333662703446498,0.9700654211587545,0.4720785240463403,right,0.000027418136596679688,-0.1346703106196428,-0.0038727908793138336,-9.71785644878149,-0.06537211619315986,-0.017794594168663025,0.0029095616191625595,1.3166761807903646,0.012881875038146973
1745971997012344800,10.0393447265625,-0.001981041305938217,-0.11015649884939194,-0.01674088800370651,-0.04091164842247963,0.23184838975673133,0.9703772546143224,0.46892370361482466,right,0.00041484832763671875,-0.1359494658806151,-0.01924808206509333,-9.716146137732267,-0.06583438592792142,-0.04167645424604416,0.005907601676881313,1.3291057465136051,0.019986853003501892
1745971997052344800,10.0793447265625,-0.004194635199894092,-0.2081422507762909,-0.017851705348455045,-0.040043070912361145,0.22886192396599453,0.9710095241962875,0.4626506204749229,right,0.00047343969345092773,-0.1380719583759029,-0.04074369189522695,-9.713236387765408,-0.0666638814112643,-0.0717603862285614,0.0033919312991201878,1.349725340694189,0.024379193782806396
1745971997092345000,10.119344970703125,-0.006909740493873838,-0.3129550516605377,-0.019194212516368468,-0.003249768167734146,0.2236548996438436,0.9720946437489891,0.4517899362776639,right,0.008959472179412842,-0.14152121443314195,-0.06708340358855203,-9.708377257296442,-0.06813303878094132,-0.06832854449748993,0.005305444821715355,1.3832209291912614,0.01030460000038147
1745971997132345000,10.159344970703126,-0.007955349413587774,-0.3694390654563904,-0.01943900764406328,0.04714030399918556,0.21678197700761848,0.9735744169857965,0.4376117212310701,right,0.009972453117370605,-0.1435490576873901,-0.07721205369196832,-9.705476859679818,-0.06914135517871324,-0.001119077205657959,-0.0022103535011410713,1.4029055806092916,-0.006106093525886536
1745971997172344800,10.1993447265625,-0.007587139259272606,-0.3638668656349182,-0.018663312062683502,0.06707073748111725,0.2094166350601925,0.9752118056063387,0.42251181211622363,right,0.003700077533721924,-0.14284442888299034,-0.07364587650983594,-9.706490420636534,-0.06898108109673942,0.04160625860095024,-0.011018231511116028,1.3960662361085414,-0.011852815747261047
1745971997212344800,10.2393447265625,-0.006968320355374859,-0.3111814856529236,-0.017669360518910698,0.06347233057022095,0.20273458508024722,0.9767024760452534,0.4088373639784199,right,0.001041710376739502,-0.14067177412140297,-0.06766028102790005,-9.709544547510147,-0.06810871626964406,0.05137978121638298,-0.010249366983771324,1.3749736175887286,-0.010772019624710083
1745971997252344800,10.2793447265625,-0.005770548909634824,-0.22091823816299438,-0.0164714515683919,0.0842989981174469,0.19737272152334145,0.9778887071812792,0.3979203235747416,right,0.0022045373916625977,-0.13823197593861822,-0.05604961220580153,-9.712944126820563,-0.06712938821076693,0.051125992089509964,-0.0035731280222535133,1.3512795843988656,-0.015158481895923615
1745971997292344800,10.3193447265625,-0.0032062688193844804,-0.1167558953166008,-0.014787124372788507,0.1011338010430336,0.19396933792132698,0.978644966059547,0.3911135495820915,right,-0.0010772943496704102,-0.136156022465142,-0.031151673985738305,-9.715840432783962,-0.06641797182799071,0.03988755866885185,0.0010595503263175488,1.3311127024218439,-0.015384823083877563
1745971997332344800,10.3593447265625,-0.00021557274582396574,-0.03928689658641815,-0.0130738300366134,0.0780564546585083,0.19238375584062758,0.9790121649497485,0.3880567924187125,right,-0.005968630313873291,-0.13461837783340072,-0.002094891632485087,-9.717925422364473,-0.06597556745291512,0.027000833302736282,0.0027871497441083193,1.3161715922690926,-0.012346632778644562
1745971997372345000,10.399344970703124,0.001922064081893305,-0.0046242401003837585,-0.011881348314135422,0.054992545396089554,0.19192018547701728,0.9791449258311798,0.38723660418292516,right,-0.004683315753936768,-0.13337961569341877,0.018681610713683766,-9.719530519473553,-0.06557964480948292,0.014427178539335728,0.005955721251666546,1.3041323410376906,-0.006379976868629456
1745971997412344800,10.4393447265625,0.0029811025980892723,-0.004054975230246782,-0.01128090105540159,0.03255161643028259,0.19182134557695216,0.979190926728174,0.3870940093713978,right,-0.0040038228034973145,-0.13257461548997315,0.028978076823300215,-9.720552263736725,-0.06528796480413004,0.014195936731994152,0.005885608494281769,1.2963076387614012,-0.006280750036239624
1745971997452344800,10.4793447265625,0.004040144620813798,-0.003485710360109806,-0.010680447820672935,0.010110683739185333,0.1917224237203956,0.9792364285474937,0.386950563482228,right,-0.0033261775970458984,-0.1317697456095267,0.039276733748358675,-9.721555887821316,-0.06499624840769717,0.013964695855975151,0.0058152698911726475,1.2884835210070014,-0.00618155300617218
1745971997492344800,10.5193447265625,0.00446018921128894,0.0044955117627978325,-0.010430184848668797,-0.0013779494911432266,0.1917750893645437,0.9792426862733999,0.38707834149603665,right,-0.0014932751655578613,-0.13126203642948503,0.04336313084573485,-9.722191847637296,-0.06478727326674562,0.005735374055802822,0.007784344255924225,1.283547525909543,-0.006582215428352356
1745971997532344800,10.5593447265625,0.00446018921128894,-0.011590917594730854,-0.010430184848668797,-0.0030206942465156317,0.1917750893645437,0.9792426862733999,0.38707834149603665,right,-0.00040274858474731445,-0.13126203642948503,0.04336313084573485,-9.722191847637296,-0.06478727326674562,0.00017289817333221436,0.00992019847035408,1.283547525909543,-0.0007056444883346558
1745971997572344800,10.5993447265625,0.004100647591592473,-0.07437215000391006,-0.010552308970276751,-0.003944514784961939,0.19111091841121883,0.9793760564665333,0.38569670178340526,right,0.007363796234130859,-0.13116607775482123,0.0398680963707855,-9.722329794803262,-0.06471312461438908,-0.007588970474898815,0.0190034881234169,1.2826146289736031,0.012169212102890015
1745971997612345000,10.639344970703124,0.004566139445539458,-0.22517552971839905,-0.010144194854687028,0.04759655520319939,0.1883399514138838,0.979911433372591,0.3800706913898722,right,0.020738422870635986,-0.1311876508689599,0.04439363380409777,-9.722282448530196,-0.0647969610339877,-0.005471569951623678,0.03183254227042198,1.2828243262015282,0.030189499258995056
1745971997652344800,10.6793447265625,0.009051465489250947,-0.4968580901622772,-0.007496053806925382,0.2863158881664276,0.18114198330437517,0.9812530238317254,0.36569073902607924,right,0.054026126861572266,-0.1313925902163159,0.08799826352181844,-9.721722476559878,-0.06537516453052239,-0.0016058820765465498,0.04442250728607178,1.2848168151929973,0.043341562151908875
1745971997692344800,10.7193447265625,0.02125048021072441,-0.8018022179603577,-0.0006610802775427438,0.5267292857170105,0.16806210926694834,0.9835278426119478,0.33988360754335584,right,0.07444030046463013,-0.1314894245440488,0.2065815618562512,-9.719801153108477,-0.06654038866179814,0.01728244125843048,0.05307376757264137,1.2857581876963375,0.054071858525276184
1745971997732344800,10.7593447265625,0.0455956227700372,-1.0704524517059326,0.012617081782276642,0.8376888036727905,0.14810786484742045,0.9865154483498753,0.30104827099089443,right,0.02064979076385498,-0.1317955672553221,0.4431089473061263,-9.71149860418737,-0.06849954913002934,0.03347286954522133,0.007430404424667358,1.2887345731586217,0.02254176139831543
1745971997772344800,10.7993447265625,0.06958857751703397,-1.0750776529312134,0.025961338691042325,0.6089279651641846,0.12541682857543723,0.9892912216718154,0.2568177399251642,right,-0.05482935905456543,-0.13236836227701396,0.6759151750747114,-9.697335054278373,-0.06999664463574837,0.06146055832505226,-0.02471805363893509,1.2943027286797761,-0.018797650933265686
1745971997812344800,10.8393447265625,0.08199909250261961,-0.9433141946792603,0.03351801909235784,0.28683507442474365,0.10453431078611845,0.9914593678185414,0.21555741878151463,right,-0.06796395778656006,-0.13299999273451243,0.7961418293025344,-9.68738298458457,-0.07040923908003748,0.04286383464932442,-0.01731855422258377,1.300442546609044,-0.027058526873588562
1745971997852345000,10.879344970703125,0.08411450381297723,-0.7144049406051636,0.035580138986679465,0.07103583216667175,0.08772477709626912,0.9929249232236823,0.18199656865025315,right,-0.04729723930358887,-0.1365322087231063,0.816241783523187,-9.681039753037691,-0.07168262991702196,-0.05036509409546852,-0.011625237762928009,1.3347675716675818,-0.04147037863731384
1745971997892344800,10.9193447265625,0.08127620750824036,-0.4396601617336273,0.0347724861278309,-0.04911617189645767,0.07628032060204112,0.9937421817847969,0.15899933179748754,right,-0.03156214952468872,-0.14187654984365836,0.7881704850971698,-9.676068978887796,-0.07381490541476941,-0.10468113422393799,-0.015082649886608124,1.3866706312537191,-0.049503788352012634
1745971997932344800,10.9593447265625,0.07663794964286127,-0.20327644050121307,0.03269647154630795,-0.09727224707603455,0.07022878367621214,0.9940671660297191,0.1467357455165914,right,-0.0191841721534729,-0.14773844992795107,0.7426469704803079,-9.671350133672355,-0.07635000378257527,-0.1427534520626068,-0.01634639874100685,1.4435545479923486,-0.04090145230293274
1745971997972344800,10.9993447265625,0.07128443743199032,-0.05012334883213043,0.029972337581966796,-0.13234493136405945,0.06814896362951517,0.99407632581046,0.14239607222810827,right,-0.011004209518432617,-0.153945768057595,0.690209365626052,-9.66606313318014,-0.07918083540449539,-0.19165538251399994,-0.01153654232621193,1.5037361911021172,-0.024400562047958374
1745971998012344800,11.0393447265625,0.06532800607007624,0.04275744408369064,0.026738003359179034,-0.14824317395687103,0.06852832001701033,0.9938825212015197,0.14294723028794154,right,-0.0030188560485839844,-0.1607793518815272,0.6319366248775273,-9.659522917756437,-0.08238004643482837,-0.20071180164813995,-0.004619047045707703,1.569922627584636,-0.016749918460845947
1745971998052344800,11.0793447265625,0.05995977482969314,0.11278311163187027,0.023682403408992955,-0.1427217274904251,0.07050415048409153,0.9935743314388817,0.14670160541690633,right,0.001611173152923584,-0.16696785320209073,0.5794799134640023,-9.652893270483613,-0.08531447941585105,-0.16536585986614227,0.00205925852060318,1.629797981224209,-0.009673699736595154
1745971998092345000,11.119344970703125,0.055750552549371446,0.15598011016845703,0.021152032424567115,-0.12465286254882812,0.07354858385213975,0.9932120884608513,0.15263282914509266,right,0.004772841930389404,-0.17173397453769723,0.5384047930907457,-9.647381229063868,-0.08759583116541185,-0.12916390597820282,0.006764180958271027,1.6758689736559986,-0.0004857182502746582
1745971998132345000,11.159344970703126,0.05283140390584623,0.16507600247859955,0.019256282582804447,-0.09415915608406067,0.07706086249324451,0.9928333689901496,0.15956538239783621,right,0.003248929977416992,-0.17522892990676872,0.5099279826037585,-9.643004329153895,-0.08929060173148302,-0.0939396470785141,0.004520617425441742,1.7096281815253198,0.006219983100891113
1745971998172344800,11.1993447265625,0.0504287674917302,0.15301218628883362,0.017648633128376813,-0.10777758061885834,0.08054795321041898,0.9924755286274234,0.16645709439178613,right,-0.004150271415710449,-0.1777574316581532,0.48653844878580416,-9.639853171646594,-0.09051402565863877,-0.06919801235198975,-0.0011534541845321655,1.7340391308128833,0.011707261204719543
1745971998212344800,11.2393447265625,0.04672547392345751,0.13020803034305573,0.015423019700009755,-0.14068986475467682,0.08369620392079835,0.9921446718641914,0.17254431425890798,right,-0.0038277506828308105,-0.18032378290906215,0.45062662945985793,-9.637111763983965,-0.09168512283132635,-0.0751744732260704,-0.002045225352048874,1.7588041542351245,0.010810703039169312
1745971998252344800,11.2793447265625,0.04218159447591915,0.11678614467382431,0.012794434801708391,-0.1498880684375763,0.08649022190641037,0.9918219707535764,0.17784292087587908,right,-0.0026404857635498047,-0.18324681779303276,0.40661373860165473,-9.633882280543446,-0.09297846681218322,-0.0785219669342041,-0.003357771784067154,1.7869969601489601,0.0070587098598480225
1745971998292344800,11.3193447265625,0.03739192488948719,0.10908211767673492,0.010065550360917115,-0.12915049493312836,0.08900846848128491,0.9915110699937566,0.18255218247738703,right,0.0061904191970825195,-0.1861697431880987,0.36026933605596423,-9.630458735835552,-0.09424404552925815,-0.06597200781106949,-0.00012139230966567993,1.8151735455803573,0.002747461199760437
1745971998332344800,11.3593447265625,0.03396946961846564,0.10630764067173004,0.008042713430664632,-0.09068411588668823,0.09138547321888177,0.9912129418205964,0.18708382622116496,right,0.006175339221954346,-0.18855765235296576,0.32715931281037625,-9.627276014146208,-0.09529349037782174,-0.05627091974020004,-0.0005860738456249237,1.8381810578107833,0.004551395773887634
1745971998372345000,11.399344970703124,0.03163774195961029,0.08470191806554794,0.006585915600269206,-0.07319898158311844,0.09351683897447627,0.9909301226228894,0.191214689028242,right,0.006312549114227295,-0.19072437222974975,0.304583561327029,-9.62400912130475,-0.09627417999742367,-0.05691014230251312,0.001267753541469574,1.8590483431421219,0.01065872609615326
1745971998412344800,11.4393447265625,0.03006565142142951,0.055952493101358414,0.005557154973006879,-0.0506165511906147,0.09507087684459659,0.9906923084090683,0.19425044986101106,right,0.0033339858055114746,-0.1928441489079649,0.28933426200794055,-9.620515433970093,-0.0972591283811149,-0.046594470739364624,0.001963874325156212,1.87945517135486,0.009349390864372253
1745971998452344800,11.4793447265625,0.028561696962570014,0.025275031104683876,0.004645892003206418,-0.04424373432993889,0.09597694583479639,0.9905346335087056,0.19597196880868084,right,0.004426419734954834,-0.19451786099522997,0.2747749177143909,-9.617781625092029,-0.09802045359831034,-0.029981384053826332,0.005098642781376839,1.8955618181556462,0.008132949471473694
1745971998492344800,11.5193447265625,0.027669375447309713,0.007464807480573654,0.004118468356841803,-0.02206731215119362,0.09633026468795619,0.9904535488030022,0.19662250728937966,right,0.0014312267303466797,-0.19560081030558812,0.2661357024511322,-9.615965515580772,-0.09851516511528813,-0.012601938098669052,0.004634009674191475,1.9059804824478923,0.003476455807685852
1745971998532344800,11.5593447265625,0.027097556330087817,0.006827165838330984,0.0038006859661770657,-0.021561874076724052,0.09644798819878217,0.9904211043446982,0.1968151459035206,right,-0.0023328661918640137,-0.19610776175211522,0.26061085634874176,-9.61514893850088,-0.09873897027687698,-0.009406380355358124,0.0027286745607852936,1.910857002443075,0.0018350481986999512
1745971998572344800,11.5993447265625,0.026304924349445518,0.014219890348613262,0.0033484202575224248,-0.03468110039830208,0.09666777033983809,0.9903643403266577,0.19719878520587308,right,-0.003691434860229492,-0.19693025109718842,0.25294806663589553,-9.613778234669565,-0.09910858145847597,-0.025046737864613533,0.0015096217393875122,1.9187674833066761,0.0005664974451065063
1745971998612345000,11.639344970703124,0.02495074316280179,0.024526607245206833,0.002576463615658011,-0.05588220804929733,0.09714198780406104,0.9902675451471598,0.1980475990564297,right,-0.00595855712890625,-0.19812216768438712,0.2398718187732622,-9.611818917295336,-0.09963425917948035,-0.03838784992694855,-0.0011061299592256546,1.930228934650123,0.001956269145011902
1745971998652344800,11.6793447265625,0.02256719358470498,0.03322590887546539,0.0012558983261221138,-0.07443103194236755,0.0978517823661398,0.9901326624198907,0.1992751838825592,right,0.00039130449295043945,-0.1997068345455973,0.21689161467486992,-9.60929319821,-0.10030362188640433,-0.037993691861629486,0.00008446723222732544,1.9454627441391348,0.00074748694896698
1745971998692344800,11.7193447265625,0.020985878845768437,0.024583816528320312,0.0003322112036109505,-0.048284776508808136,0.09855217997612348,0.9899954360890202,0.2005611355765984,right,-0.000728309154510498,-0.20122475074940463,0.201633839788381,-9.606660511618852,-0.10097773775288416,-0.033931877464056015,-0.0006752479821443558,1.960050364679098,0.0032585561275482178
1745971998732344800,11.7593447265625,0.019406063977447766,0.01594172604382038,-0.0005914763775682179,-0.022138521075248718,0.09925239501868265,0.9898563177277476,0.20184500889854662,right,-0.0018531084060668945,-0.20274461979842537,0.18639882472297176,-9.60397755614519,-0.10165166134295714,-0.029870063066482544,-0.001437278464436531,1.974652159874886,0.005768224596977234
1745971998772344800,11.7993447265625,0.01817411260060563,0.0011199256405234337,-0.0012920054485669142,-0.02135690487921238,0.09957320378985174,0.9897663488138924,0.20239091405815585,right,-0.00015664100646972656,-0.20398845853870126,0.1745222897726111,-9.601737083742021,-0.10220563527285773,-0.02149306610226631,-0.0010301992297172546,1.986598764386773,0.004147067666053772
1745971998812344800,11.8393447265625,0.017041065483748192,-0.0013153301551938057,-0.0019004233185426613,-0.023970425128936768,0.09966895850035887,0.989718206450267,0.20248348375467443,right,0.00008988380432128906,-0.204835856954313,0.16361421626191586,-9.600241876748203,-0.10256839945062819,-0.008050654083490372,-0.0012206919491291046,1.9947358936130999,0.0009497851133346558
1745971998968020200,11.995020263671876,0.011345655418433262,0.003603457473218441,-0.004691665255421748,-0.043618686497211456,0.10002549885059324,0.9897360674603182,0.20260395150958851,right,-0.0034076469019055367,-0.20417695449269654,0.1089494277443271,-9.602330373460054,-0.10195784190482861,0.008916928432881832,-0.0007418750319629908,1.9884088825486599,0.0004851074190810323
1745971999008020200,12.035020263671875,0.007477918862599027,0.015175065957009792,-0.006501883375552124,-0.09459595382213593,0.10075788182525987,0.9898276895454174,0.2036422992512632,right,-0.002164602279663086,-0.20109077903945097,0.07185496993849519,-9.60877063564062,-0.1002336156976574,0.038352712988853455,0.004234838765114546,1.9587631013475357,0.0028769075870513916
1745971999048020200,12.075020263671876,0.003609324309300589,0.026746675372123718,-0.00831205895007367,-0.145573228597641,0.1014895742853536,0.9899125057848361,0.2046921373953529,right,-0.0009462833404541016,-0.19800854344422758,0.03470371304466389,-9.614968321236967,-0.09850870775659265,0.0677884966135025,0.009217334911227226,1.9291364632382988,0.005266755819320679
1745971999088020200,12.115020263671875,-0.0008034141918684454,0.0200041476637125,-0.010393894542880772,-0.11728392541408539,0.1022724940707112,0.9899849375265336,0.20580534053925253,right,0.001086890697479248,-0.19493656266461878,-0.007729550218323129,-9.620908817201853,-0.09675817945532487,0.05508294701576233,0.00814001727849245,1.8995901968888937,0.010019272565841675
1745971999128020200,12.155020263671876,-0.004352692016473469,-0.005433322861790657,-0.012070189983228598,-0.09028447419404984,0.10259350541983897,0.9900395132727384,0.20609272999468503,right,0.003638148307800293,-0.19308811645274684,-0.041891916648857296,-9.624315410774946,-0.0956597612151746,0.028110746294260025,0.00287553109228611,1.881803195785731,0.010075867176055908
1745971999168020200,12.195020263671875,-0.006910815590962076,-0.029619744047522545,-0.013269659360862981,-0.059739042073488235,0.10235919263306224,0.9900907618514282,0.2053682417507707,right,0.004606127738952637,-0.19245407620878954,-0.06652017564864363,-9.625368134698272,-0.09521939862250316,0.015401851385831833,-0.0012711435556411743,1.8757006411269306,0.006665423512458801
1745971999208020200,12.235020263671874,-0.008599638656028953,-0.04474411532282829,-0.014026871613519343,-0.024880889803171158,0.10164397547801948,0.990163493095745,0.20376093884452642,right,0.006038308143615723,-0.1924071060686578,-0.08277637328822166,-9.625330140775441,-0.0951209781179676,-0.00011058524250984192,-0.003045882098376751,1.8752485134452581,0.006162628531455994
1745971999248020200,12.275020263671875,-0.009201065863602672,-0.04278840497136116,-0.014253851769686526,0.001153901219367981,0.10074018034957362,0.9902364396693596,0.20187964325895655,right,0.004421532154083252,-0.19278118088890694,-0.0885588291471824,-9.624576107537745,-0.09528907122730663,-0.008064820431172848,-0.004428021609783173,1.8788491682857273,0.00464940071105957
1745971999288020200,12.315020263671874,-0.00916301070482043,-0.03497506305575371,-0.014213185504139192,0.012820079922676086,0.09993862559857625,0.990264065563958,0.20027018296271806,right,0.0016655921936035156,-0.19388889826821837,-0.08817343742563388,-9.622492287001013,-0.09585093813221182,-0.03778349980711937,-0.004325712099671364,1.8895096785098313,0.0052659958600997925
1745971999328020200,12.355020263671875,-0.008977462574970547,-0.021468274295330048,-0.014157882388011517,0.01379578746855259,0.09932847854611594,0.9902322406232016,0.19906598204603865,right,0.0018301010131835938,-0.19580409557845788,-0.08635535515299998,-9.618872342938184,-0.09681706908180843,-0.04928082227706909,-0.004104621708393097,1.9079360004298387,0.002686053514480591
1745971999368020200,12.395020263671874,-0.008778951063933435,-0.02854308672249317,-0.014108970454707815,0.011747411452233791,0.09880232547078102,0.9901852130609453,0.1980337368083934,right,0.0008293390274047852,-0.1978328012477756,-0.08441174680455588,-9.614999300897122,-0.09783870032878002,-0.04277186095714569,-0.0017897533252835274,1.9274466104552148,0.0021445900201797485
1745971999408020200,12.435020263671875,-0.008395916640603726,-0.051631517708301544,-0.013836444302727296,0.02029670961201191,0.09764062032739648,0.990270529191975,0.19572871461646205,right,-0.0008547306060791016,-0.19845051070402575,-0.08071885623652487,-9.613838440424203,-0.09817948050304784,-0.02480500005185604,-0.00019562989473342896,1.9333857912458479,0.0029814541339874268
1745971999448020200,12.475020263671874,-0.008014295892397633,-0.07471995055675507,-0.01356390293679293,0.028846006840467453,0.09647880091366377,0.990354369190665,0.19342373217569417,right,-0.002539515495300293,-0.19906908597084239,-0.07704040518580003,-9.61267056568861,-0.09852010300811692,-0.006838139146566391,0.0013999673537909985,1.9393325708210467,0.003817513585090637
1745971999488020200,12.515020263671875,-0.007557750982248806,-0.07402467727661133,-0.013201869157525067,0.02951803244650364,0.09493056826341299,0.9904881248895263,0.19034469612319685,right,-0.002638697624206543,-0.19940375264851007,-0.07264687836801167,-9.612055064138769,-0.098728296996542,-0.0063468534499406815,0.0015852549113333225,1.9425496331714092,-0.0015066713094711304
1745971999528020200,12.555020263671874,-0.006956992071506736,-0.05097508430480957,-0.012793369242573937,0.025116536766290665,0.09363228841491839,0.9905961677387733,0.18778522912779785,right,-0.002105236053466797,-0.199735472952077,-0.06686784744199831,-9.611452422070503,-0.09893755459330265,-0.009127081371843815,0.00044866185635328293,1.945738053949177,-0.004914239048957825
1745971999568020200,12.595020263671875,-0.0062143924727114256,-0.02059115841984749,-0.012369563414295874,0.026585666462779045,0.09287169402461656,0.9906513645072164,0.18632604129569572,right,-0.0015744566917419434,-0.2000870270268332,-0.05972611789461225,-9.610814708688855,-0.09915549745568343,-0.010594788007438183,0.00029509561136364937,1.9491170288629829,-0.006089508533477783
1745971999608020200,12.635020263671874,-0.005152723097963472,0.004243222996592522,-0.011843927806068801,0.031479425728321075,0.09268015522475616,0.9906553975367657,0.18604769405030422,right,-0.0006941556930541992,-0.20039172889985363,-0.049519516317313536,-9.610278117594122,-0.09935737608603032,-0.012090720236301422,-0.0003199717029929161,1.9520453373998403,-0.0031483620405197144
1745971999648020200,12.675020263671875,-0.00393042398732906,0.008484994992613792,-0.011281730299258243,0.02598416432738304,0.09279208327725198,0.9906183523102601,0.18640044002202416,right,-0.0019123554229736328,-0.2009482406683009,-0.03776857137484476,-9.609244098371267,-0.0996876694991897,-0.023223258554935455,-0.002355263801291585,1.9573934204295276,0.0010570734739303589
1745971999688020200,12.715020263671875,-0.003091361332332668,0.009931053966283798,-0.010920577691579917,0.019175080582499504,0.09291132195819955,0.9905665243519348,0.18673209718515502,right,0.00018721818923950195,-0.2017668849473774,-0.029700838139897677,-9.607666473791003,-0.10013027352041859,-0.023186832666397095,-0.0013479983899742365,1.96525933149904,0.00007924437522888184
1745971999728020200,12.755020263671875,-0.0022826447838641796,0.015377795323729515,-0.010571005809608385,0.019213827326893806,0.09309324259649339,0.9905192665699821,0.18718627597407583,right,-0.0007953047752380371,-0.20237482731612141,-0.02192821767729474,-9.606491000270843,-0.10046653586692658,-0.008569668047130108,-0.0014191376976668835,1.9710998742207884,-0.0013296157121658325
1745971999768020200,12.795020263671875,-0.001466982045783177,0.02136564627289772,-0.010205876246197848,0.015028183348476887,0.09342118831496275,0.9904873235918202,0.18793147814745542,right,-0.0009254813194274902,-0.20240464759917057,-0.014092468850605654,-9.606447161129116,-0.10051546040298327,0.0016221050173044205,-0.001959369517862797,1.9713864360772073,-0.0003267824649810791
1745971999808020200,12.835020263671876,-0.0007850864352844252,0.02836146205663681,-0.009916533256711069,0.010619494132697582,0.09393101135722012,0.9904466128725978,0.1890288067021577,right,-0.002194523811340332,-0.20225964697526286,-0.007542096788246999,-9.60674000659585,-0.10047007259302841,-0.00045707705430686474,-0.0017835854087024927,1.9699933742836118,0.0014302581548690796
1745971999848020200,12.875020263671875,-0.0004288186554670944,0.025589561089873314,-0.009806096511048135,0.00789581798017025,0.09449057040215358,0.9903854765523524,0.19019634647629535,right,0.001567244529724121,-0.20241493964711232,-0.004119393472213414,-9.606436055213212,-0.10055800909217508,-0.007681334391236305,0.0002734503650572151,1.9714852202765643,0.0018208175897598267
1745971999888020200,12.915020263671876,-0.000034338249714671835,0.020861363038420677,-0.009669630846288642,0.00964081846177578,0.09495275557841504,0.9903308913610783,0.19117180194718345,right,0.0014944672584533691,-0.2026219676100906,-0.00032982860622651056,-9.606028643456101,-0.10067444796855385,-0.0042447540909051895,0.0018349590245634317,1.973474056006223,0.002573549747467041
1745971999928020200,12.955020263671875,0.0005920865517472772,0.012254534289240837,-0.009404036091283612,0.010850012302398682,0.09527492805884517,0.9902908416335524,0.19188794933203135,right,0.0004907846450805664,-0.20280094938609947,0.0056874162529595195,-9.605673254147172,-0.10078944420021753,-0.003762157168239355,0.0014036714565008879,1.9751932810142636,0.0044136494398117065
1745971999968020200,12.995020263671876,0.0011323959975464218,0.009717660956084728,-0.009173128565759579,0.0035266047343611717,0.09549778622063125,0.9902574908422496,0.19239543590825356,right,-0.001291036605834961,-0.2030319473805648,0.010876934020337648,-9.605212650898098,-0.1009272327093185,-0.007039971649646759,0.0027801012620329857,1.9774121261075137,0.0047175586223602295
1745972000008020200,13.035020263671875,0.001346085969054029,0.011229629628360271,-0.009114953510323282,-0.0018612872809171677,0.09573008546951649,0.9902108867634868,0.19289134499204325,right,-0.0014565587043762207,-0.20350341466726019,0.012928215410781558,-9.60427683135271,-0.10116861786311443,-0.011851703748106956,0.0037822374142706394,1.9819404171869157,0.004225984215736389
1745972000048020200,13.075020263671876,0.0013756055935875845,0.008189303800463676,-0.009143017583062645,-0.00408096332103014,0.09591877862131913,0.9901681974364531,0.193280561557654,right,-0.001105964183807373,-0.20398212066997182,0.013210423035779966,-9.60332639876008,-0.10140525369481962,-0.00851487834006548,0.003964293282479048,1.9865378279797732,0.0035098642110824585
1745972000088020200,13.115020263671875,0.0014061803714260272,0.007637358270585537,-0.009160785576724726,-0.005494586192071438,0.09607946899087377,0.9901354882420317,0.1936118369186626,right,-0.0011274218559265137,-0.20431694727258473,0.013503106389020103,-9.602660043805837,-0.1015709656677206,-0.0033983872272074223,0.0031677684746682644,1.9897531367644667,0.002491980791091919
1745972000128020200,13.155020263671876,0.0014061803714260272,-0.003598635084927082,-0.009160785576724726,-0.02496327832341194,0.09607946899087377,0.9901354882420317,0.1936118369186626,right,-0.0059032440185546875,-0.20431694727258473,0.013503106389020103,-9.602660043805837,-0.1015709656677206,0.0013305838219821453,-0.00204713037237525,1.9897531367644667,0.003976166248321533
1745972000168020200,13.195020263671875,-0.00014905855069830245,-0.02707749232649803,-0.009922167970007776,-0.04894661158323288,0.0959392993096094,0.9901345025517656,0.1931720297726774,right,-0.0014330744743347168,-0.20460368904968831,-0.0014312492251367076,-9.602098902791738,-0.10164037266416966,-0.01076502725481987,-0.002579884836450219,1.9925065271258353,0.007409036159515381
1745972000208020200,13.235020263671874,-0.001738896962196274,-0.036604542285203934,-0.010685983556634667,-0.006038028746843338,0.09538265836853804,0.9901429236879983,0.1918924746252665,right,0.010051965713500977,-0.20548018725933584,-0.016693982843711274,-9.600334231206775,-0.10200484655191819,-0.022623561322689056,0.0003383234143257141,2.0009220349021253,0.0010730177164077759
1745972000248020200,13.275020263671875,-0.00134301597276178,-0.025674255564808846,-0.01047921810894105,0.040097132325172424,0.09471140376636718,0.9901465468335819,0.1905882833687731,right,0.007633686065673828,-0.2066592112123576,-0.012890214638086036,-9.59797393181622,-0.10261427747697115,-0.024465113878250122,0.00011851312592625618,2.0122396938607094,-0.00440409779548645
1745972000288020200,13.315020263671874,0.00014119188940830407,-0.005800003185868263,-0.009754797388605185,0.04308323934674263,0.0942833797106016,0.9901365805603859,0.18988740930549944,right,0.0004089474678039551,-0.2076424422939951,0.0013549029031622922,-9.595999416872859,-0.10317471943938433,-0.019680999219417572,0.0010622960980981588,2.0216757768563927,-0.005177557468414307
1745972000328020200,13.355020263671875,0.0017550259745416513,0.011487584561109543,-0.008997088331430009,0.03272338956594467,0.0942710007212595,0.990100472150602,0.19003830812694986,right,-0.004840075969696045,-0.208350995621117,0.016838727359933546,-9.594550387108326,-0.10360085497462432,-0.01645655743777752,0.000678449752740562,2.0284744970858095,-0.003938436508178711
1745972000368020200,13.395020263671874,0.002790741106415416,0.01661117933690548,-0.008549570442752917,0.012422645464539528,0.09455620699384468,0.9900402680921342,0.19072989380622088,right,-0.004415690898895264,-0.2089703639802017,0.026772424571763258,-9.593269115126132,-0.10395331906954625,-0.022261785343289375,0.0011601466685533524,2.0344167466163636,0.0010380595922470093
1745972000408020200,13.435020263671875,0.0033557250612042027,0.010080598294734955,-0.00834393043623585,0.0072821821086108685,0.09483294086918011,0.9899677449915617,0.1913584882968692,right,-0.0016501545906066895,-0.20983937775687728,0.032186519759078505,-9.591481062665581,-0.10440756568121187,-0.02486913464963436,0.001865714555606246,2.0427526132851836,0.0016913115978240967
1745972000448020200,13.475020263671874,0.0036099491890643144,0.004381933715194464,-0.008269942379669316,0.0015097912400960922,0.09495615229371619,0.9899148802429669,0.19164349468855524,right,-0.0009524226188659668,-0.2106149522363513,0.03461917428307933,-9.589885317906736,-0.1048023133176454,-0.017848975956439972,0.0018466582987457514,2.0501909465923904,0.0011282116174697876
1745972000488020200,13.515020263671875,0.00347047681400205,0.004638280253857374,-0.00837537246119774,-0.013732515275478363,0.09504284939910612,0.9898760841716546,0.19181079836476478,right,-0.003300487995147705,-0.2111941822495198,0.03327752301631262,-9.588701076558232,-0.10508166773932,-0.010896886698901653,0.0006749581079930067,2.055745365849137,-0.0002851039171218872
1745972000528020200,13.555020263671874,0.002727368762466535,0.012240665033459663,-0.008785826409284716,-0.0256242323666811,0.09524978865071992,0.9898295443172739,0.19215599456914667,right,-0.0025620460510253906,-0.2117077300405663,0.026149191806616727,-9.587665888291596,-0.10529899456801466,-0.016738533973693848,-0.0006608266849070787,2.060669378247857,0.0006770938634872437
1745972000568020200,13.595020263671875,0.0017001996299985736,0.017798785120248795,-0.009365216105316484,-0.02672305330634117,0.09561045483380677,0.9897531472296319,0.1927843292486749,right,0.001629650592803955,-0.2125003430164567,0.016298242116440088,-9.586051438832282,-0.10563938790819227,-0.02400946617126465,-0.00033432873897254467,2.0682681628137827,0.0018348991870880127
1745972000608020200,13.635020263671874,0.0009418758345520049,0.013508763164281845,-0.009815172633685938,-0.022978689521551132,0.095960041817787,0.9896737858513799,0.19341911204748455,right,0.0007777214050292969,-0.2133573450282294,0.009027234479199979,-9.584285013681649,-0.1060241163802861,-0.016997354105114937,-0.00015909993089735508,2.0764825950600208,0.0008750557899475098
1745972000648020200,13.675020263671875,0.0004867676593193362,0.013674531131982803,-0.010101905225017083,-0.01290832832455635,0.09627904887993943,0.9896100385982581,0.19402161837795742,right,-0.0003415346145629883,-0.21397183561444352,0.004664725566649576,-9.583010755962134,-0.10630329701420929,-0.011668926104903221,-0.0006429968634620309,2.0823716530986127,0.0017535090446472168
1745972000688020200,13.715020263671875,0.00010797235068751537,0.012158776633441448,-0.010337483139105872,-0.009231992065906525,0.09654345056646498,0.9895602129331921,0.19452002506556848,right,0.001903533935546875,-0.214420529346228,0.0010346249365178663,-9.582076105460525,-0.10650449968748746,-0.00793075654655695,-0.00018441250722389668,2.086671396119147,0.0031618475914001465
1745972000728020200,13.755020263671875,-0.00014689434193793004,0.010888148099184036,-0.010508829698048455,-0.00439445348456502,0.09677956741293929,0.9895137080368543,0.1949743645013393,right,0.0021744370460510254,-0.21485563220518203,-0.0014073935682194132,-9.581167173922061,-0.10670509182986454,-0.008367884904146194,0.0006342481356114149,2.0908403523668646,0.003269493579864502
1745972000768020200,13.795020263671875,-0.00014689434193793004,0.006370312534272671,-0.010508829698048455,-0.0023215708788484335,0.09677956741293929,0.9895137080368543,0.1949743645013393,right,-0.0003197193145751953,-0.21485563220518203,-0.0014073935682194132,-9.581167173922061,-0.10670509182986454,-0.006972241215407848,-0.000384590239264071,2.0908403523668646,0.0032317936420440674
1745972000808020200,13.835020263671876,-0.0002562303809450693,0.001289435662329197,-0.010612115838405668,-0.004872521385550499,0.09693180128590659,0.9894620142184052,0.19527739205095013,right,-0.0013085603713989258,-0.21553721074406876,-0.0024545946444617583,-9.579739771467446,-0.10703540593503251,-0.01002312172204256,-0.00021098554134368896,2.0973701925270256,0.0026718080043792725
1745972000848020200,13.875020263671875,-0.00040849897818310925,-0.007914772257208824,-0.010720244821708603,-0.005069672130048275,0.09693179995236123,0.989424812849241,0.19526807421282105,right,-0.00006288290023803711,-0.21622450650649067,-0.003912698483427812,-9.578295417878032,-0.10736809608610345,-0.01076436135917902,0.0007444033399224281,2.1039538087010383,0.0023115724325180054
1745972000888020200,13.915020263671876,-0.0006890018907984273,-0.020520959049463272,-0.010840392801613962,-0.006779249757528305,0.09656813816650628,0.9894353711311551,0.1945072808490634,right,-0.0012183785438537598,-0.2166850211655232,-0.006598769789838115,-9.577324527019261,-0.10758644963486544,-0.009940422140061855,0.0000791893107816577,2.108364464750141,0.0021328330039978027
1745972000928020200,13.955020263671875,-0.0009698929234541883,-0.03312714397907257,-0.010960537366665187,-0.008488827385008335,0.09620443540240556,0.9894456798742318,0.19374622142164924,right,-0.002374112606048584,-0.21714531415303936,-0.009288011727924457,-9.576350713551044,-0.10780478238872455,-0.009116481989622116,-0.0005857029464095831,2.1127726365812123,0.001954317092895508
1745972001083466500,14.110466552734374,-0.007031123586658707,-0.032307613641023636,-0.013662446579802685,0.013088706880807877,0.0921866972233106,0.9896131226159987,0.18499248413596847,right,0.007487176917493343,-0.22095237023617872,-0.06727491213923785,-9.568005494531988,-0.10945688928998766,-0.030724944546818733,0.003992108162492514,2.1492149460546672,-0.008141743950545788
1745972001123380700,14.150380615234376,-0.007241385547787582,-0.010199557058513165,-0.013755960446471432,0.00046483654296025634,0.09174747623303806,0.9896059774174597,0.1840872783243568,right,0.002937180921435356,-0.22181022999476976,-0.06927331941484008,-9.566144376835226,-0.1098779307336634,-0.024834061041474342,0.0043593645095825195,2.157422364038229,-0.00218948139809072
1745972001322957600,14.34995751953125,-0.007704521237047985,0.014320495538413525,-0.014114110051352822,-0.014032727107405663,0.09207648674663454,0.9894587951984068,0.18471429218470284,right,0.000993863446637988,-0.22388303500967352,-0.07366912495468277,-9.561618423843383,-0.11087791529240555,-0.01582147553563118,-0.0019427931401878595,2.177247008448839,0.00007849227404221892
1745972001362871800,14.389871826171875,-0.008101670099137872,0.006472697481513023,-0.014363114600254486,0.000670004403218627,0.09230256321969399,0.9894008267057366,0.1851308974053871,right,0.0037843440659344196,-0.22452708021343878,-0.0774551325996872,-9.560184591647982,-0.11117528268310334,-0.024150891229510307,0.0011458757799118757,2.183404800426215,0.004744752310216427
1745972001402872000,14.4298720703125,-0.007912883127733727,0.0020599528215825558,-0.014327338893178158,-0.0002354133757762611,0.09231012643338345,0.9893324424597089,0.18517528961755347,right,0.0024958252906799316,-0.22573349438354365,-0.07562939217698295,-9.55755775027573,-0.11178052069830285,-0.02250942401587963,0.000696853268891573,2.1949371250487864,0.003867045044898987
1745972001442872000,14.4698720703125,-0.007755491648583258,-0.0032842098735272884,-0.0142870115913211,0.004639642778784037,0.09222304878215112,0.989283870884086,0.18502376676989749,right,0.0021935105323791504,-0.22674060588229947,-0.07410793193047865,-9.555354687273502,-0.11228706878935667,-0.016678763553500175,0.0006346083246171474,2.2045618624843657,0.0031171590089797974
1745972001482872000,14.5098720703125,-0.007336519154507423,0.001112538855522871,-0.014106179357118208,0.009025076404213905,0.092173255072394,0.989252966915855,0.18497506275453002,right,0.00006669759750366211,-0.22737868985500784,-0.07009415711131878,-9.55397638465762,-0.11262237472534198,-0.010077517479658127,-0.00017097778618335724,2.2106587180547415,0.0024874210357666016
