time,seconds_elapsed,roll,rotationRateZ,quaternionY,rotationRateY,quaternionZ,quaternionW,yaw,devicelocation,accelerationZ,pitch,gravityX,gravityZ,quaternionX,rotationRateX,accelerationX,gravityY,accelerationY
1745973856246257000,0.2342568359375,-0.30639030573882464,-0.5165452361106873,-0.14265772781179661,0.09909264743328094,-4.799332802067187e-17,0.9676576596660911,-0.06489658363509004,left,0.0022994279861450195,-0.41441410779033316,-2.7074954561561344,-8.558489429292083,-0.20805586442145785,0.03532090783119202,-0.011369109153747559,3.9486841420248147,0.0326291024684906
1745973856286257000,0.2742568359375,-0.30842623317889284,-0.3451031446456909,-0.14257217569668085,0.08022686839103699,-0.005963263115087924,0.9679933441545893,-0.07683324984670688,left,0.004425466060638428,-0.40934279770173654,-2.730958164808154,-8.571929925623536,-0.20646159461708755,0.05237823724746704,-0.013259828090667725,3.9031107238516207,0.025705963373184204
1745973856326256600,0.314256591796875,-0.31435517657839246,-0.13666358590126038,-0.1432151530795327,0.03592539578676224,-0.009355771662096635,0.9650394701759086,-0.08926492425718062,left,-0.004070401191711426,-0.43413101836309176,-2.7509648877874016,-8.460958444866538,-0.21931847274949345,0.03260380029678345,-0.014386087656021118,4.124894695411622,-0.014272630214691162
1745973856366256600,0.354256591796875,-0.3187276098595243,-0.05475005507469177,-0.1448765246011134,0.02050066366791725,-0.010669004635492288,0.9646343279656922,-0.09309941148430918,left,-0.012860298156738281,-0.4348214877778365,-2.787040409775078,-8.446142568528652,-0.21994857097121723,0.01119597814977169,-0.009574055671691895,4.131036851428449,-0.024186700582504272
1745973856406256600,0.394256591796875,-0.32195478865659527,0.03880421072244644,-0.1463553530314112,0.01775287464261055,-0.01142783558205755,0.9646955625478052,-0.09489306402146123,left,-0.015780925750732422,-0.43183088873970193,-2.8181796444043514,-8.448786361035705,-0.2186593284703165,-0.02533056028187275,-0.005787700414657593,4.104419770398736,-0.02727779746055603
1745973856446257000,0.4342568359375,-0.32316658565500966,0.06552580744028091,-0.14726044604670752,-0.01938018575310707,-0.011074049113424805,0.965081468427059,-0.09363586381502069,left,-0.011628150939941406,-0.4272154681005795,-2.8344015881478786,-8.463237495714425,-0.21635462804592834,-0.021909279748797417,-0.006305396556854248,4.063269429364801,-0.0347883403301239
1745973856486257000,0.4742568359375,-0.3230428039570554,0.06835006922483444,-0.14781598671858376,-0.0358828604221344,-0.009983001062125877,0.9657510799111875,-0.09024026933755226,left,-0.009516239166259766,-0.42079697185867554,-2.841574840778112,-8.48814514247775,-0.2130152026429457,0.012555303052067757,-0.004262685775756836,4.005899190413952,-0.03567379713058472
1745973856526257000,0.5142568359375,-0.32370756405943174,0.062281686812639236,-0.14848106292129307,-0.03195899724960327,-0.009311631660319552,0.9660824199680264,-0.08834946480923288,left,-0.01026928424835205,-0.4170450539567525,-2.8519775768488644,-8.500444067558647,-0.2110719239463476,0.022514384239912033,-0.002323716878890991,3.972287135930359,-0.030696183443069458
1745973856566256600,0.554256591796875,-0.32389585596063947,0.05241929739713669,-0.14907541974432892,-0.02730492502450943,-0.008364754014593882,0.9666136209656475,-0.08549443763602267,left,-0.011430323123931885,-0.41160891927820725,-2.860408136063814,-8.520251760834455,-0.20824160476100914,0.02731965482234955,-0.0017020106315612793,3.923487741447985,-0.022600948810577393
1745973856606256600,0.594256591796875,-0.3237678463699718,0.04822096973657608,-0.14951772718979944,-0.027133846655488014,-0.007276416500858227,0.9671131425956397,-0.08236814196698086,left,-0.0073187947273254395,-0.4066754925612789,-2.8654405772730707,-8.538864691367746,-0.20562954054550542,0.028566040098667145,-0.0039362311363220215,3.87910061044991,-0.01674780249595642
1745973856646256600,0.634256591796875,-0.3232724784719281,0.05433554947376251,-0.14958849044231234,-0.005311483517289162,-0.006515684650291183,0.9674065096024006,-0.08024613650471801,left,-0.01167285442352295,-0.4040831866280379,-2.864395452134311,-8.549789405485987,-0.2042188513646575,0.04052899777889252,-0.0009889602661132812,3.8557390240848064,-0.017813056707382202
1745973856686257000,0.6742568359375,-0.321866629616249,0.04668165743350983,-0.14934538399074737,0.0025062495842576027,-0.005383092802731947,0.9678291698137268,-0.07705950657599911,left,-0.008383333683013916,-0.4008560201460639,-2.8562942710041996,-8.565567404854297,-0.20241925881435616,0.05330310016870499,-0.0011628568172454834,3.8266201893672345,-0.01954832673072815
1745973856726257000,0.7142568359375,-0.32025992683581683,0.035934191197156906,-0.14903561561244003,0.011533253826200962,-0.004278085107362409,0.968336160926634,-0.07376486370604123,left,-0.008471250534057617,-0.3968544680735912,-2.8473259516507388,-8.584610543498396,-0.20023747100618625,0.05531716346740723,0.0016633272171020508,3.790458450400829,-0.017588049173355103
1745973856766257000,0.7542568359375,-0.31843839397539786,0.1251595914363861,-0.14853287053481887,0.029435142874717712,-0.0031503028352228217,0.9686840647680444,-0.07069160879678407,left,-0.003630220890045166,-0.39465942193045483,-2.8342820534214375,-8.597664086338877,-0.19894497864340197,0.08441755920648575,0.0003184378147125244,3.770596396589279,-0.004272401332855225
1745973856806257000,0.7942568359375,-0.31125755142823397,0.27787864208221436,-0.1463001407164316,0.08823271095752716,0.0014380525852348439,0.9695478159667458,-0.059178306528328645,left,-0.010022282600402832,-0.3911478363391699,-2.776509078888595,-8.630346458756923,-0.19639517917639887,0.16067227721214294,-0.0029905736446380615,3.7387835004821417,-0.006933063268661499
1745973856846256600,0.834256591796875,-0.30585606551105055,0.23818770051002502,-0.14472753153721207,0.0558895505964756,0.005511077139648151,0.9701804830148066,-0.04924990698804968,left,-0.0029796957969665527,-0.3884031541049496,-2.7329318029686807,-8.65497061240375,-0.19435341733429715,0.1665254384279251,-0.0029144585132598877,3.7138863751128315,-0.01168164610862732
1745973856886256600,0.874256591796875,-0.30152156869057045,0.15006503462791443,-0.14369540033945047,0.00925946980714798,0.009829981854893139,0.9707488570748711,-0.03898899935900447,left,0.0006358027458190918,-0.38524104506204343,-2.698865282715857,-8.677905497789382,-0.19209782063943104,0.0952368825674057,0.004200935363769531,3.6851676456287503,-0.015490442514419556
1745973856926256600,0.914256591796875,-0.30171329438513195,0.005610480904579163,-0.14438881893014388,-0.07978585362434387,0.012285073069160008,0.9709996821447656,-0.033475443432333815,left,0.0008440613746643066,-0.3820632184610644,-2.703995339080691,-8.688526260524988,-0.19015869366527646,0.09485393762588501,0.007049381732940674,3.656269467924535,-0.03426232933998108
1745973856966257000,0.9542568359375,-0.305083187738048,-0.016982799395918846,-0.14620153537253355,-0.12309351563453674,0.012653936613533945,0.9711644641530143,-0.03266946592382591,left,-0.00019186735153198242,-0.37756107420415147,-2.738176133362949,-8.694977628621459,-0.1878952473487559,0.1503068208694458,0.014028817415237427,3.6152649651020763,-0.022726982831954956
1745973857006257000,0.9942568359375,-0.3101692691729709,0.014180878177285194,-0.1490301332288073,-0.13833704590797424,0.013456238050734145,0.9715070102141543,-0.030715699695802873,left,-0.003827214241027832,-0.3694896282389715,-2.7911797015368935,-8.70844325939417,-0.18380144336893273,0.15772104263305664,0.011354178190231323,3.5415693220332263,-0.0032279491424560547
1745973857046257000,1.0342568359375,-0.31188772284052985,0.08562929183244705,-0.15027018600685516,-0.0939580500125885,0.015043377155378856,0.9716931105953472,-0.02716416255058836,left,-0.008750557899475098,-0.3656774685337925,-2.810263172191381,-8.71642081414461,-0.1816730539475868,0.10763951390981674,0.006924480199813843,3.5066821330472826,-0.0029867589473724365
1745973857086256600,1.074256591796875,-0.3112293644489757,0.11503742635250092,-0.15055320850538328,-0.022857479751110077,0.018019114514180378,0.971785077526136,-0.020745401565440413,left,-0.02284109592437744,-0.36460042979628066,-2.8056787670105696,-8.721859205806254,-0.18067284376064624,0.01530497521162033,0.0013083219528198242,3.4968162803322076,-0.012864917516708374
1745973857126256600,1.114256591796875,-0.30963410937694413,0.038437917828559875,-0.15011232002479352,0.0034689921885728836,0.019868384158690123,0.9717685759856497,-0.01681897790163726,left,-0.009433567523956299,-0.36571527145204275,-2.7905720910325646,-8.722605055737494,-0.1809342189985404,-0.016208939254283905,-0.006051510572433472,3.507028170005977,-0.02653557062149048
1745973857166256600,1.154256591796875,-0.3089748973917813,-0.03746245801448822,-0.14977786871879048,0.03875339776277542,0.019787112479440774,0.9717911281844213,-0.01691262962877775,left,-0.014120638370513916,-0.36602778183361667,-2.784488094943762,-8.723398836463689,-0.18109953257030253,-0.03951156511902809,-0.002693355083465576,3.5098899891778825,-0.01263013482093811
1745973857206257000,1.1942568359375,-0.30898738098287803,-0.07260005921125412,-0.14955873670165962,0.03662225976586342,0.018513994164589393,0.9718481149129055,-0.01947599301613524,left,-0.006639659404754639,-0.36565258469792394,-2.7849972135096785,-8.724617564603685,-0.18110903789434027,-0.05290047079324722,-0.0021248459815979004,3.5064541695103046,-0.008957058191299438
1745973857246257000,1.2342568359375,-0.3092569774580116,-0.0769256204366684,-0.1492952330279966,0.036666158586740494,0.01646928937141271,0.9718432935190077,-0.023773784616943967,left,-0.002810537815093994,-0.3659037741791725,-2.787081034046411,-8.723027665063738,-0.18154974936917787,-0.06596039235591888,-0.0013898909091949463,3.508754555407166,-0.0030594468116760254
1745973857286257000,1.2742568359375,-0.3091855283260495,-0.015045765787363052,-0.1488699702268147,0.03403925895690918,0.014627141765539836,0.9717596147888115,-0.02776467904194359,left,0.0004851818084716797,-0.367250732797528,-2.785017087253928,-8.71871623160541,-0.1825018048988693,-0.05421953275799751,0.000440061092376709,3.5210862137138843,0.0017107129096984863
1745973857326256600,1.314256591796875,-0.3087825159090423,0.0030424408614635468,-0.14860116428695466,0.003379242494702339,0.01438034871043209,0.9717091713067078,-0.02834689548524239,left,0.002685546875,-0.3681988543651309,-2.780487334869802,-8.716653453856706,-0.1830083148132712,-0.018317237496376038,-0.000312119722366333,3.529762272122502,-0.0024257898330688477
1745973857366256600,1.354256591796875,-0.3087182441502711,0.010385342873632908,-0.14860694226704227,-0.006165262311697006,0.014551881774323676,0.9717204219717186,-0.02796557631102804,left,0.003025650978088379,-0.3680967540286514,-2.7800366684928535,-8.717176016426086,-0.18293086183840981,0.015852980315685272,-0.0003020763397216797,3.528828206142783,-0.006674468517303467
1745973857406256600,1.394256591796875,-0.3090336958170431,0.001018298789858818,-0.1488598179498425,-0.01809142343699932,0.014876905271899048,0.9718023534883009,-0.027158418317700554,left,-0.0015738606452941895,-0.3668481108944268,-2.7841242300674316,-8.72048908649683,-0.18226231914289442,0.0390959233045578,-0.00036326050758361816,3.5174008031994104,-0.008304983377456665
1745973857446257000,1.4342568359375,-0.3090336958170431,0.015787528827786446,-0.1488598179498425,0.009827405214309692,0.014876905271899048,0.9718023534883009,-0.027158418317700554,left,-0.0014320611953735352,-0.3668481108944268,-2.7841242300674316,-8.72048908649683,-0.18226231914289442,-0.016964484006166458,0.001592397689819336,3.5174008031994104,-0.0031373202800750732
1745973857486257000,1.4742568359375,-0.30799932088990617,0.033820707350969315,-0.14835695666125448,0.02580767683684826,0.015211945904312744,0.971668219600337,-0.026640068881855196,left,-0.010203838348388672,-0.36916426386110834,-2.7726252231925725,-8.715577349057794,-0.18335606893764692,-0.08996516466140747,0.0013506412506103516,3.538593521092832,-0.005385249853134155
1745973857526257000,1.5142568359375,-0.3062492254815598,0.025058522820472717,-0.14745090080108206,0.032959118485450745,0.015541196720850832,0.9714114179345232,-0.02629876234499383,left,-0.0020353198051452637,-0.373417479228852,-2.7528055472180246,-8.705987098413706,-0.1854087721523497,-0.08154250681400299,0.0035817623138427734,3.5774613041475414,-0.012601375579833984
1745973857566256600,1.554256591796875,-0.30572774219486776,-0.0018251296132802963,-0.14714023612778881,0.007598275318741798,0.015467034804223411,0.9713163359911035,-0.026585589601488428,left,0.002207636833190918,-0.37491052777255407,-2.746654623372853,-8.702318639034033,-0.1861585218552557,-0.04606207087635994,0.002609550952911377,3.5910900165274735,-0.010986179113388062
1745973857606256600,1.594256591796875,-0.30602543199749926,-0.023220134899020195,-0.14719129974304462,-0.0035637952387332916,0.015023999190615842,0.9712934951076349,-0.02756936948592819,left,-0.0004646182060241699,-0.37500280491971627,-2.749145271144807,-8.70118408204615,-0.18627342660586446,-0.004885613918304443,0.00048744678497314453,3.5919320203095673,-0.0037998855113983154
1745973857646256600,1.634256591796875,-0.3062897463298809,-0.010508514009416103,-0.14727528169647047,0.0005273604765534401,0.014656566558103028,0.9713575634858839,-0.028241079653941622,left,-0.00022798776626586914,-0.37413908190071227,-2.7523794307604432,-8.703412279489635,-0.18590178129755536,0.008156334049999714,-0.0005858242511749268,3.584049158105254,-0.0006569325923919678
1745973857686257000,1.6742568359375,-0.30625074804035207,-0.00025517307221889496,-0.14724388723717816,0.0124786626547575,0.014434389666869194,0.9714374987878036,-0.028561845391873023,left,-0.0007737874984741211,-0.37331589968220086,-2.7529285890758035,-8.706329628241061,-0.185526187426411,0.010459378361701965,-0.0009815692901611328,3.576533667908609,-0.0004126429557800293
1745973857726257000,1.7142568359375,-0.30625074804035207,0.0009775767102837563,-0.14724388723717816,0.0019092652946710587,0.014434389666869194,0.9714374987878036,-0.028561845391873023,left,0.0025573372840881348,-0.37331589968220086,-2.7529285890758035,-8.706329628241061,-0.185526187426411,0.009564741514623165,-0.0010649561882019043,3.576533667908609,-0.003114759922027588
1745973857766257000,1.7542568359375,-0.30602946002820686,-0.003512703813612461,-0.1471537834291306,0.01668587140738964,0.014343029420526022,0.9715324794813984,-0.028571503929899787,left,-0.0058373212814331055,-0.37244782458716047,-2.751936070907116,-8.70989579629004,-0.18510717120661963,0.019691217690706253,0.000515669584274292,3.5686057975187895,-0.006697863340377808
1745973857806257000,1.7942568359375,-0.30554754521176103,-0.008911950513720512,-0.14692352017038596,0.0116684939712286,0.014219233021648804,0.9716166725444662,-0.028651060867133978,left,0.00048065185546875,-0.371914923743352,-2.748309989364445,-8.713033509793878,-0.18485779127014065,0.010586286894977093,0.00012940168380737305,3.563737606960535,-0.005240321159362793
1745973857846256600,1.834256591796875,-0.30554754521176103,-0.005834085866808891,-0.14692352017038596,0.00023287534713745117,0.014219233021648804,0.9716166725444662,-0.028651060867133978,left,0.0021966099739074707,-0.371914923743352,-2.748309989364445,-8.713033509793878,-0.18485779127014065,-0.006396240554749966,0.0009767115116119385,3.563737606960535,-0.002160489559173584
1745973857886256600,1.874256591796875,-0.3060539889929421,-0.00046326592564582825,-0.1470830232850253,-0.014143932610750198,0.013792628318583466,0.9715950674385646,-0.029609999314575034,left,0.004433095455169678,-0.3718155803726488,-2.7528289280936122,-8.711977863261103,-0.18487651870509583,-0.02030414715409279,0.002801746129989624,3.5628301367267965,-0.0011442899703979492
1745973857926256600,1.914256591796875,-0.3068129186527262,0.005411164835095406,-0.1474141258236752,-0.021144095808267593,0.013796548483958114,0.9714780185086522,-0.029855763742476015,left,0.001972794532775879,-0.3725108431075306,-2.758691098125279,-8.707522637417911,-0.18522683900130113,-0.029786184430122375,0.0010383427143096924,3.569181551580131,0.00005841255187988281
1745973857966257000,1.9542568359375,-0.30806735217702236,0.013592866249382496,-0.147976119078313,-0.02325206808745861,0.013940707659347245,0.9712547397525587,-0.030028226331809488,left,-0.0007002353668212891,-0.37396686588476447,-2.7680332192271946,-8.699093831768632,-0.18593742516700773,-0.03279273957014084,0.00037413835525512695,3.582477086482942,-0.000042945146560668945
1745973858006257000,1.9942568359375,-0.3088395556769161,0.00402423832565546,-0.14832796206297352,-0.015875376760959625,0.014060103314681568,0.9711173238531317,-0.03007079730917151,left,-0.005774796009063721,-0.3748544404101595,-2.773782284273207,-8.693920813044905,-0.18636577634111864,-0.025118092074990273,0.0008110702037811279,3.5905782676130533,-0.004555076360702515
1745973858046257000,2.0342568359375,-0.3093711989217404,-0.009871936403214931,-0.14854299577711969,-0.008052431978285313,0.014022214346166111,0.9710143838218167,-0.030365251820398613,left,-0.0007025003433227539,-0.37557508327827255,-2.7776155788257717,-8.68997821289897,-0.18673347710005772,-0.015433480963110924,-0.0011581182479858398,3.5971535543501374,-0.004994243383407593
1745973858086256600,2.074256591796875,-0.3101186804608033,-0.024124160408973694,-0.1488046503276278,-0.000878539402037859,0.013588145657222174,0.9709553998206342,-0.031421780102671534,left,-0.00357210636138916,-0.3756923485500888,-2.783981606726348,-8.687498086521028,-0.1868637418322799,-0.010760854929685593,-0.0007563233375549316,3.5982235216692087,-0.004266977310180664
1745973858126256600,2.114256591796875,-0.3099437448542776,-0.023756537586450577,-0.14864451459801464,0.015161413699388504,0.013171628853533355,0.9709783598772147,-0.032238235635269036,left,-0.001239001750946045,-0.37564327440317774,-2.7825156258270143,-8.688152751037478,-0.18690181946426793,-0.009403910487890244,0.000016242265701293945,3.5977757779017088,-0.002606600522994995
1745973858166256600,2.154256591796875,-0.3097027463378492,-0.011979653500020504,-0.1484453421161142,0.010522020049393177,0.012735032967890369,0.9709957902209507,-0.03310162082020348,left,-0.0004385709762573242,-0.3757092016647313,-2.780349387703836,-8.68859698767364,-0.1869994934476221,-0.013127071782946587,0.0000057220458984375,3.5983772509261964,-0.0009227991104125977
1745973858206257000,2.1942568359375,-0.3093811346797715,0.00026567839086055756,-0.14824119724737206,0.00294837960973382,0.012507975278496548,0.9709981040519107,-0.033550078944087,left,0.0013131499290466309,-0.3759779234480826,-2.777260481777787,-8.688569515144824,-0.1871651051871381,-0.011375224217772484,0.0022933781147003174,3.600828443470597,0.000145643949508667
1745973858246257000,2.2342568359375,-0.3093811346797715,0.006070769391953945,-0.14824119724737206,-0.0044792285189032555,0.012507975278496548,0.9709981040519107,-0.033550078944087,left,0.001440584659576416,-0.3759779234480826,-2.777260481777787,-8.688569515144824,-0.1871651051871381,-0.006114128045737743,0.0005368888378143311,3.600828443470597,-0.00043958425521850586
1745973858286257000,2.2742568359375,-0.3093811346797715,0.002780810697004199,-0.14824119724737206,-0.011056778952479362,0.012507975278496548,0.9709981040519107,-0.033550078944087,left,0.0010764002799987793,-0.3759779234480826,-2.777260481777787,-8.688569515144824,-0.1871651051871381,0.0024309391155838966,-0.0006421804428100586,3.600828443470597,-0.0012500286102294922
1745973858326256600,2.314256591796875,-0.31005845371273677,-0.0014681925531476736,-0.14860601594048234,-0.004903587978333235,0.012801021137215388,0.9709248811447612,-0.03311230958276109,left,0.00013619661331176758,-0.3761994140025368,-2.7829014102742073,-8.685926891681552,-0.1872357577755803,0.003101553302258253,-0.0012235045433044434,3.602848843382299,-0.0035795867443084717
1745973858366256600,2.354256591796875,-0.31005845371273677,-0.007257578894495964,-0.14860601594048234,-0.009716913104057312,0.012801021137215388,0.9709248811447612,-0.03311230958276109,left,0.0031628012657165527,-0.3761994140025368,-2.7829014102742073,-8.685926891681552,-0.1872357577755803,0.0022721211425960064,-0.0018175840377807617,3.602848843382299,-0.0034016072750091553
1745973858406256600,2.394256591796875,-0.31071792607834725,0.0009994283318519592,-0.14891577546109458,0.0018899841234087944,0.012720843745828339,0.9709185266361354,-0.03333227087173075,left,-0.006178915500640869,-0.375746247956428,-2.789127737443149,-8.685643398565054,-0.18702812741831562,0.002982411067932844,-0.0011702179908752441,3.598715104578435,-0.0015630125999450684
1745973858446257000,2.4342568359375,-0.31071792607834725,0.006407811306416988,-0.14891577546109458,0.014527830295264721,0.012720843745828339,0.9709185266361354,-0.03333227087173075,left,-0.0020073652267456055,-0.375746247956428,-2.789127737443149,-8.685643398565054,-0.18702812741831562,-0.002342323772609234,-0.00044083595275878906,3.598715104578435,-0.0014160871505737305
1745973858486257000,2.4742568359375,-0.3098416008792568,0.0022095637395977974,-0.1484929045849365,0.009839581325650215,0.012682508687037367,0.9709689331372104,-0.03326737058703194,left,0.0002872943878173828,-0.3759027425519916,-2.781343367177248,-8.687547770881652,-0.1871047831946065,-0.010397695936262608,-0.00028321146965026855,3.6001427992939945,-0.00040587782859802246
1745973858526257000,2.5142568359375,-0.30917983906977403,0.004671767819672823,-0.14816271034573317,0.012028507888317108,0.012627546086249124,0.970993234427296,-0.03329667041867229,left,0.0010300278663635254,-0.37617717935280215,-2.775292981097102,-8.68844501198232,-0.1872442431177648,-0.007773335091769695,-0.0002563595771789551,3.6026460142865773,0.002326071262359619
1745973858566256600,2.554256591796875,-0.30917983906977403,0.00570856174454093,-0.14816271034573317,0.004461243748664856,0.012627546086249124,0.970993234427296,-0.03329667041867229,left,0.002106189727783203,-0.37617717935280215,-2.775292981097102,-8.68844501198232,-0.1872442431177648,-0.005149551201611757,-0.0007701516151428223,3.6026460142865773,0.0012376904487609863
1745973858606256600,2.594256591796875,-0.30917983906977403,0.006745355669409037,-0.14816271034573317,-0.003106019925326109,0.012627546086249124,0.970993234427296,-0.03329667041867229,left,0.003182351589202881,-0.37617717935280215,-2.775292981097102,-8.68844501198232,-0.1872442431177648,-0.0025257673114538193,-0.0012839138507843018,3.6026460142865773,0.0001493394374847412
1745973858646256600,2.634256591796875,-0.30898676523087154,0.005920827854424715,-0.14809255182686265,-0.009007210843265057,0.012819401730740605,0.9709638436922846,-0.03293633214831237,left,-0.0013086795806884766,-0.3766309741609057,-2.773117975145578,-8.68742209867537,-0.1874388844027997,0.004099559970200062,-0.002434462308883667,3.606784721526503,0.00023126602172851562
1745973858686257000,2.6742568359375,-0.3092841117885083,0.0040757916867733,-0.1482913279311209,0.005609265528619289,0.013116396381699327,0.9709443186147324,-0.032371342537471294,left,-0.0001857280731201172,-0.37656417742212933,-2.775774334873259,-8.686827055391669,-0.18736268228042557,0.0077674780040979385,-0.003704965114593506,3.60617564971745,0.0005341768264770508
1745973858726257000,2.7142568359375,-0.3092841117885083,-0.0028420714661478996,-0.1482913279311209,0.011296655982732773,0.013116396381699327,0.9709443186147324,-0.032371342537471294,left,-0.0021474361419677734,-0.37656417742212933,-2.775774334873259,-8.686827055391669,-0.18736268228042557,0.006060381885617971,-0.002433598041534424,3.60617564971745,-0.001688152551651001
1745973858766257000,2.7542568359375,-0.30876976412277035,-0.007307878695428371,-0.14803325671541517,0.02083631232380867,0.012906414975656507,0.9710399714955806,-0.032607030104142946,left,0.00025719404220581055,-0.37594912052196705,-2.7719796187654135,-8.690364581868051,-0.18708517735697985,0.012808017432689667,-0.0004315972328186035,3.600565700881183,-0.0026167333126068115
1745973858806257000,2.7942568359375,-0.30808951530497675,-0.005622311495244503,-0.14770937649592167,0.008223258890211582,0.012680011487542118,0.9711839262280193,-0.032781073004446847,left,0.002613067626953125,-0.3749309389787118,-2.7671774791806936,-8.695736922556161,-0.18660850094181117,0.020459957420825958,-0.0006634294986724854,3.5912764790102836,-0.001022934913635254
1745973858846256600,2.834256591796875,-0.30760590192701465,-0.0012630028650164604,-0.14750758148860782,0.00855734758079052,0.012638041808477225,0.9712984217688785,-0.03263571364282095,left,0.0002657771110534668,-0.37405233042968233,-2.763926076169312,-8.700078166630863,-0.18617457257201844,0.015097939409315586,0.0004310905933380127,3.5832574232056733,-0.0010015368461608887
1745973858886256600,2.874256591796875,-0.3070288014293714,-0.009869176894426346,-0.14724093755671458,0.012133205309510231,0.012531444112076011,0.9713994728332895,-0.03264273333292534,left,0.0015222430229187012,-0.37340666881715473,-2.7596035367950797,-8.703875220826268,-0.18586543688435167,0.007004577666521072,0.0007122457027435303,3.5773625199481844,-0.0029337704181671143
1745973858926256600,2.914256591796875,-0.306861759091083,-0.017031230032444,-0.14713445241472767,0.001649591140449047,0.012334268988738439,0.9714370483394958,-0.032976405487882984,left,0.0029889345169067383,-0.3731510358295634,-2.758425725187361,-8.705207930734753,-0.18576697147841284,0.009454775601625443,0.00008562207221984863,3.575028231781721,-0.004334092140197754
1745973858966257000,2.9542568359375,-0.3070701307320406,-0.01890454813838005,-0.14719933019441384,-0.005207795184105635,0.011981489125224103,0.9715105335521473,-0.03359385582467193,left,0.001194775104522705,-0.37220893542193756,-2.7612562724381684,-8.707839448282122,-0.18535396795541093,0.022271931171417236,-0.0002320706844329834,3.5664237773045895,-0.0014478862285614014
1745973859006257000,2.9942568359375,-0.30728142064200836,-0.013091024942696095,-0.14729270066402214,-0.013039972633123398,0.011790053451834172,0.9715720818287223,-0.03389601492320203,left,0.005086421966552734,-0.37137166469746435,-2.763998264622688,-8.71009920990765,-0.1849686507988846,0.01742030680179596,-0.0006645023822784424,3.5587738470733163,0.0000807344913482666
1745973859046257000,3.0342568359375,-0.3076529587253418,-0.0035123955458402634,-0.14748245911542468,-0.007063949014991522,0.011711019692835304,0.9716202116019717,-0.03399754734120698,left,-0.0003482699394226074,-0.37053775066809813,-2.7681320034265515,-8.711896614718437,-0.18456923552008384,0.015654226765036583,-0.0017565786838531494,3.551152266153693,-0.003244847059249878
1745973859086256600,3.074256591796875,-0.3076529587253418,0.008142191916704178,-0.14748245911542468,0.007838191464543343,0.011711019692835304,0.9716202116019717,-0.03399754734120698,left,0.00013148784637451172,-0.37053775066809813,-2.7681320034265515,-8.711896614718437,-0.18456923552008384,0.003115360625088215,-0.0010233521461486816,3.551152266153693,-0.001156628131866455
1745973859126256600,3.114256591796875,-0.30729344947980747,0.009115506894886494,-0.14734704152044015,0.004934876225888729,0.011832964631689797,0.971668446554854,-0.03363630773383975,left,0.001147150993347168,-0.3702722424892141,-2.765285089562833,-8.713789881119132,-0.18441585413589648,-0.002346574794501066,-0.0009947717189788818,3.5487250390067695,-0.0015321969985961914
1745973859166256600,3.154256591796875,-0.3068212468634105,0.009659226052463055,-0.14716126909768948,0.006619700696319342,0.012025723199880451,0.9716974247936271,-0.033155094643298896,left,0.0008540749549865723,-0.37030491656332165,-2.761134984146058,-8.714984059339761,-0.18439909722953082,-0.0042739445343613625,-0.0005726814270019531,3.5490237296923994,-0.0009596943855285645
1745973859205968600,3.19396875,-0.30657713381572527,0.0011598026612773538,-0.147064768533038,-0.004671899136155844,0.012197981236698494,0.9716767845729782,-0.03281827439575309,left,0.0023572794161736965,-0.37071153358023384,-2.7585715633988377,-8.714281464028359,-0.18457317376742946,-0.012185629457235336,0.0017334498697891831,3.552740704388916,0.00014646811177954078
1745973859245968600,3.23396875,-0.3070073473482315,-0.002826359588652849,-0.14723142303879896,-0.007086051627993584,0.012107804339303075,0.9716039817265498,-0.03316157800814462,left,0.0011036992073059082,-0.3711931134327867,-2.76180309266597,-8.711461730432509,-0.1848295472368278,-0.007109937723726034,0.00041237473487854004,3.557142154218256,0.00022551417350769043
1745973859285968600,3.27396875,-0.3070073473482315,-0.006812521256506443,-0.14723142303879896,-0.009500204585492611,0.012107804339303075,0.9716039817265498,-0.03316157800814462,left,0.00013756752014160156,-0.3711931134327867,-2.76180309266597,-8.711461730432509,-0.1848295472368278,-0.0020342464558780193,-0.0012382566928863525,3.557142154218256,0.0007534027099609375
1745973859325968400,3.313968505859375,-0.3070073473482315,0.0017034681513905525,-0.14723142303879896,0.0003140615299344063,0.012107804339303075,0.9716039817265498,-0.03316157800814462,left,0.0028628110885620117,-0.3711931134327867,-2.76180309266597,-8.711461730432509,-0.1848295472368278,0.020539075136184692,-0.0016400814056396484,3.557142154218256,-0.002351701259613037
1745973859365968400,3.353968505859375,-0.30743159138346215,-0.0026082475669682026,-0.14744005092237442,-0.0005192774115130305,0.012026380752598915,0.9716356863996435,-0.033300539188408564,left,0.0012165307998657227,-0.37050087830488515,-2.7662431209400293,-8.71263428134322,-0.18450126614452578,0.0190587118268013,-0.0024281740188598633,3.550814997023344,-0.0035467445850372314
1745973859405968600,3.39396875,-0.3071808931482929,0.0013372753746807575,-0.1473338354121426,0.011727778241038322,0.011976486897039597,0.9717044668307029,-0.03326678371990262,left,-0.0014935731887817383,-0.36993803697330313,-2.764662573750317,-8.715231312099098,-0.18422709278867952,0.0038863075897097588,-0.0015881359577178955,3.545669450828433,-0.00239524245262146
1745973859445968600,3.43396875,-0.3071808931482929,-0.003471577074378729,-0.1473338354121426,0.010768607258796692,0.011976486897039597,0.9717044668307029,-0.03326678371990262,left,0.0005567073822021484,-0.36993803697330313,-2.764662573750317,-8.715231312099098,-0.18422709278867952,-0.01022691372781992,-0.0007173717021942139,3.545669450828433,-0.003081381320953369
1745973859485968600,3.47396875,-0.3061021415559288,-0.005372419487684965,-0.14676527960945765,0.0143656637519598,0.011782035507583563,0.971721021166424,-0.03357570223818481,left,-0.0010318756103515625,-0.3706577665725063,-2.7544898470431565,-8.715772579368949,-0.18460556691141783,-0.021217171102762222,0.001136481761932373,3.55224912147969,-0.0032954812049865723
1745973859525968600,3.51396875,-0.3060082530141157,-0.009131508879363537,-0.146652134716313,0.002025796100497246,0.011552570170451646,0.9716688821375794,-0.03413928297854222,left,0.0029677748680114746,-0.37135145358629706,-2.7529282968148587,-8.713679406481981,-0.18498414786088352,-0.022830475121736526,0.0009759962558746338,3.5585891381561754,-0.0018101334571838379
1745973859565968600,3.55396875,-0.30629383856797576,-0.0011029038578271866,-0.14673424003156135,-0.008447159081697464,0.011392614175306464,0.9715992895353444,-0.03461280974373949,left,0.0020633935928344727,-0.3719222217114872,-2.754804027558863,-8.710954949954152,-0.18529425317956608,-0.009245100431144238,-0.00007522106170654297,3.563804242455959,0.000708460807800293
1745973859605968400,3.593968505859375,-0.3068498485694999,0.007241183891892433,-0.1470003363632143,-0.01514866016805172,0.011451562575747845,0.9715453772513872,-0.034620535015689125,left,0.0010750889778137207,-0.37206818532700847,-2.7594898472875355,-8.70892607447505,-0.18536247728309177,-0.0023440485820174217,-0.0015691816806793213,3.565137829147279,0.0019617080688476562
1745973859645968600,3.63396875,-0.3068498485694999,0.005073332693427801,-0.1470003363632143,-0.0032189134508371353,0.011451562575747845,0.9715453772513872,-0.034620535015689125,left,-0.001938462257385254,-0.37206818532700847,-2.7594898472875355,-8.70892607447505,-0.18536247728309177,0.004266016650944948,-0.0004775524139404297,3.565137829147279,-0.0019663572311401367
1745973859685968600,3.67396875,-0.3072317186954273,-0.0017555304802954197,-0.14724586643499246,-0.018496073782444,0.011765411094666197,0.9715305345457061,-0.034017858257006886,left,0.006745874881744385,-0.37188180241578644,-2.76301597558707,-8.708504634192586,-0.18522548566901817,0.008514096960425377,-0.0009930729866027832,3.563435116882622,-0.0025700628757476807
1745973859725968600,3.71396875,-0.30749222522835357,0.007873887196183205,-0.1474195184320824,-0.004200891591608524,0.011949696955891402,0.9715493942443892,-0.03361721035789347,left,-0.0009940266609191895,-0.371433031956672,-2.765768489165604,-8.709307767269015,-0.18497663632588987,0.024027429521083832,0.0006412863731384277,3.5593346958264704,-0.0017073750495910645
1745973859765968600,3.75396875,-0.3073812399377528,0.007035125512629747,-0.14742598290732442,-0.002822150709107518,0.012143880900026306,0.971606879284114,-0.03310419680861548,left,0.0019592642784118652,-0.370849595951858,-2.7654294664695858,-8.7115926633358,-0.18465634784682408,0.008765000849962234,0.0003502368927001953,3.5540026871487496,0.0019572079181671143
1745973859805968600,3.79396875,-0.3073812399377528,-0.001713812816888094,-0.14742598290732442,-0.005317207425832748,0.012143880900026306,0.971606879284114,-0.03310419680861548,left,0.003180205821990967,-0.370849595951858,-2.7654294664695858,-8.7115926633358,-0.18465634784682408,-0.005185561254620552,0.0013935863971710205,3.5540026871487496,-0.003181755542755127
1745973859845968400,3.833968505859375,-0.3077590176556033,-0.003497221041470766,-0.14758943086553275,-0.007509891875088215,0.012172997206055806,0.9715333032223493,-0.03319758362187793,left,0.00010532140731811523,-0.37136516435660366,-2.768165028913319,-8.708799817746877,-0.1849111409836169,-0.01615087501704693,0.00004616379737854004,3.558714518101513,-0.00010541081428527832
1745973859885968400,3.873968505859375,-0.30817240028174236,0.009298741817474365,-0.14774920527904017,-0.006337405648082495,0.012154800446305018,0.9714305060567129,-0.0334435557172339,left,0.00167924165725708,-0.37218495187459494,-2.770878964047134,-8.704872415170072,-0.18532459660769937,-0.020298004150390625,-0.0014335215091705322,3.566204581595957,0.0025798380374908447
1745973859925968600,3.91396875,-0.30825340334134615,0.02103666588664055,-0.14782137740208734,-0.008691845461726189,0.012466579668691727,0.9713595578423095,-0.03292543067476399,left,-0.00017952919006347656,-0.3728688438788351,-2.7708436004728076,-8.702321561643481,-0.18561766594694326,-0.009106100536882877,-0.005226761102676392,3.5724513670310376,0.0025228559970855713
1745973859965968600,3.95396875,-0.3082604243715506,0.024383872747421265,-0.14789699621632427,-0.014270595274865627,0.012990405649736426,0.9712845188004837,-0.031967958849646295,left,0.004480540752410889,-0.37362518030729,-2.77008401427716,-8.699725115409493,-0.18591381422955258,-0.009016240946948528,-0.006662458181381226,3.5793577854186296,-0.0019500255584716797
1745973860005968600,3.99396875,-0.3082604243715506,-0.002902105450630188,-0.14789699621632427,0.013037660159170628,0.012990405649736426,0.9712845188004837,-0.031967958849646295,left,-0.0025272369384765625,-0.37362518030729,-2.77008401427716,-8.699725115409493,-0.18591381422955258,0.004841940477490425,-0.0028510689735412598,3.5793577854186296,-0.006054878234863281
1745973860045968600,4.03396875,-0.3082604243715506,-0.022293636575341225,-0.14789699621632427,0.008231190033257008,0.012990405649736426,0.9712845188004837,-0.031967958849646295,left,0.001438736915588379,-0.37362518030729,-2.77008401427716,-8.699725115409493,-0.18591381422955258,0.006541646085679531,-0.0035354197025299072,3.5793577854186296,-0.004145026206970215
1745973860085968400,4.073968505859375,-0.30793824425632604,-0.014409174211323261,-0.14767663982413173,0.016673535108566284,0.012416261373384987,0.9714129604713162,-0.032915831420457974,left,-0.00008374452590942383,-0.3725339746822327,-2.768463135077059,-8.704334070509672,-0.18545643999996783,0.01399337500333786,-0.0010325908660888672,3.5693928562432524,0.00010466575622558594
1745973860125968400,4.113968505859375,-0.3076269137909477,0.005527430213987827,-0.14753078902602135,0.005435243248939514,0.012324433309823673,0.9714789468027776,-0.03297079666514741,left,0.0017976164817810059,-0.37206175677176617,-2.7662632869452235,-8.70680075288415,-0.18523326145168173,-0.000832974910736084,-0.0010110139846801758,3.5650790846973655,0.0010171830654144287
1745973860165968600,4.15396875,-0.3076269137909477,0.013744798488914967,-0.14753078902602135,-0.004861141555011272,0.012324433309823673,0.9714789468027776,-0.03297079666514741,left,0.0017114877700805664,-0.37206175677176617,-2.7662632869452235,-8.70680075288415,-0.18523326145168173,-0.017930757254362106,0.00023853778839111328,3.5650790846973655,-0.000955730676651001
1745973860205968600,4.19396875,-0.30789592851939207,0.0077817682176828384,-0.14766372293266733,-0.008278120309114456,0.012672410643014761,0.9713106369502075,-0.03256100107905898,left,0.0007315874099731445,-0.37367596310625806,-2.7668577457070347,-8.700560981711744,-0.18598461581747383,-0.026574090123176575,-0.0007093846797943115,3.579821311277151,-0.0018814802169799805
1745973860245968600,4.23396875,-0.30831690856505994,0.005087260156869888,-0.1478347747529239,-0.005331822670996189,0.012709574495463656,0.9711995493477275,-0.032706599087202685,left,0.0018258094787597656,-0.3745693935920952,-2.769548592226207,-8.696344240799545,-0.18642614624053175,-0.015686767175793648,-0.0018219947814941406,3.587976852943003,-0.0015750527381896973
1745973860285968600,4.27396875,-0.30831690856505994,0.0006731660105288029,-0.1478347747529239,-0.007164736278355122,0.012709574495463656,0.9711995493477275,-0.032706599087202685,left,-0.0004283785820007324,-0.3745693935920952,-2.769548592226207,-8.696344240799545,-0.18642614624053175,-0.009135435335338116,-0.0009891986846923828,3.587976852943003,0.001168757677078247
1745973860325968400,4.313968505859375,-0.30879538764593956,0.0033041154965758324,-0.14803868557475552,-0.002769630402326584,0.012749533705583465,0.9710974566275974,-0.03283402138066826,left,0.001263439655303955,-0.37531219269160404,-2.772898487176001,-8.69247645945549,-0.18679286924922986,-0.00579778291285038,0.00015866756439208984,3.5947552610367532,0.0013661682605743408
1745973860365968400,4.353968505859375,-0.3091234524142787,0.0010660563129931688,-0.14820047668389083,-0.006819713395088911,0.01280027711096928,0.9710696344724532,-0.0327984323381855,left,0.0020017623901367188,-0.37534883501063504,-2.7757100374653936,-8.691441271188854,-0.18680590619466256,0.0031794896349310875,0.00033086538314819336,3.595089607557654,0.0020259320735931396
1745973860405968600,4.39396875,-0.3091234524142787,-0.0003508336376398802,-0.14820047668389083,-0.010812953114509583,0.01280027711096928,0.9710696344724532,-0.0327984323381855,left,0.0021735429763793945,-0.37534883501063504,-2.7757100374653936,-8.691441271188854,-0.18680590619466256,0.002669792389497161,-0.00008666515350341797,3.595089607557654,0.0020451247692108154
1745973860445968600,4.43396875,-0.30986147431756694,-0.000021900428691878915,-0.14856263020238705,-0.0006749881431460381,0.01289529673553331,0.971011621339155,-0.03274981277273102,left,-0.0007944107055664062,-0.37538091623812603,-2.782088632586598,-8.689280293762684,-0.18681312437173592,0.00016665924340486526,-0.0014171302318572998,3.5953821607634424,0.0012823939323425293
1745973860485968600,4.47396875,-0.30986147431756694,-0.0028541674837470055,-0.14856263020238705,-0.006954426411539316,0.01289529673553331,0.971011621339155,-0.03274981277273102,left,0.0036164522171020508,-0.37538091623812603,-2.782088632586598,-8.689280293762684,-0.18681312437173592,-0.0037624416872859,-0.0033944249153137207,3.5953821607634424,-0.0014256834983825684
1745973860525968600,4.51396875,-0.30986147431756694,0.011423713527619839,-0.14856263020238705,0.03426336497068405,0.01289529673553331,0.971011621339155,-0.03274981277273102,left,-0.0069388747215271,-0.37538091623812603,-2.782088632586598,-8.689280293762684,-0.18681312437173592,0.0015753796324133873,0.0008819401264190674,3.5953821607634424,0.0018084049224853516
1745973860565968600,4.55396875,-0.3087178689469635,0.0027351025491952896,-0.148025908670633,0.0011541955173015594,0.012957676191691163,0.9710601143991697,-0.0324613667288817,left,0.008910179138183594,-0.37575940962217463,-2.7717358731374144,-8.691158947116136,-0.18698271655617907,-0.004506596364080906,-0.002866387367248535,3.598835223826766,-0.0009487569332122803
1745973860605968400,4.593968505859375,-0.3087178689469635,0.0096453120931983,-0.148025908670633,-0.0018309957813471556,0.012957676191691163,0.9710601143991697,-0.0324613667288817,left,0.003041207790374756,-0.37575940962217463,-2.7717358731374144,-8.691158947116136,-0.18698271655617907,0.0013177311047911644,-0.0008227825164794922,3.598835223826766,0.0017857551574707031
1745973860645968600,4.63396875,-0.30846653572899363,0.02382744289934635,-0.14801017922366805,-0.007221333682537079,0.013524169819442104,0.9710529882231456,-0.031277525867492474,left,0.004505753517150879,-0.37595708903878566,-2.7693355339974164,-8.691177651816606,-0.18699263307248648,0.013151203282177448,-0.0009794831275939941,3.6006384738564488,0.002456456422805786
1745973860685968600,4.67396875,-0.3084486263252146,0.020298391580581665,-0.14810610928864146,-0.003774014301598072,0.014063805108679859,0.9710474572411986,-0.030160943767964653,left,-0.00015658140182495117,-0.3759463040312326,-2.7691917416125533,-8.69126416105628,-0.18690489041071148,0.0025260495021939278,0.000669628381729126,3.6005399819180366,-0.0007403194904327393
1745973860725968600,4.71396875,-0.3084486263252146,-0.02200014516711235,-0.14810610928864146,-0.00551957730203867,0.014063805108679859,0.9710474572411986,-0.030160943767964653,left,0.0026773810386657715,-0.3759463040312326,-2.7691917416125533,-8.69126416105628,-0.18690489041071148,-0.028406724333763123,0.0019929707050323486,3.6005399819180366,-0.0036783814430236816
1745973860765968600,4.75396875,-0.3098033953361183,-0.059232886880636215,-0.14850157345912493,-0.010610871948301792,0.013127947670061028,0.9708221894353308,-0.03259592513342873,left,0.0017489790916442871,-0.37749496165642576,-2.7792604234233496,-8.682183613499998,-0.18782735382495547,-0.04391784220933914,0.0008417963981628418,3.6146623230338095,-0.0032027065753936768
1745973860805968600,4.79396875,-0.31089937607241364,-0.047273680567741394,-0.14877357102688663,-0.006688340567052364,0.011933035835398224,0.9707367131734648,-0.03530652196830263,left,0.0041086673736572266,-0.3777243579276732,-2.7885204191997643,-8.678342720162869,-0.18813317598967993,-0.005860708653926849,-0.0017260611057281494,3.6167534500941634,0.005031853914260864
1745973860845968400,4.833968505859375,-0.3117856554010317,0.0017085932195186615,-0.14914049609930893,-0.017324648797512054,0.011532138498710091,0.9707486185016886,-0.036176306165979874,left,0.0037292838096618652,-0.3769270430992732,-2.7970944785386322,-8.678609846666454,-0.18780616914072198,0.021736612543463707,-0.0036838948726654053,3.6094843358740207,0.011620551347732544
1745973860885968400,4.873968505859375,-0.311800683038442,0.03672400861978531,-0.1492997020295007,-0.012817432172596455,0.012154516281542698,0.9708153163038192,-0.034762734858202006,left,-0.0006015300750732422,-0.3760903781856687,-2.798150417332351,-8.681438932612538,-0.18729493598669342,0.03577578812837601,-0.0016859769821166992,3.601854279386997,0.0020908713340759277
1745973860925968600,4.91396875,-0.31187233920244817,0.022637829184532166,-0.14951432457052075,-0.011678307317197323,0.012967034080716111,0.9708582311243451,-0.0329982041578273,left,-0.000060677528381347656,-0.3754387649677302,-2.7994921873301264,-8.683470730701089,-0.1868466690850137,0.02671346813440323,-0.0025430917739868164,3.5959099840298294,-0.007019698619842529
1745973860965968600,4.95396875,-0.31187233920244817,-0.00014374405145645142,-0.14951432457052075,0.0018006842583417892,0.012967034080716111,0.9708582311243451,-0.0329982041578273,left,-0.002698063850402832,-0.3754387649677302,-2.7994921873301264,-8.683470730701089,-0.1868466690850137,-0.0021174494177103043,0.0016499161720275879,3.5959099840298294,-0.004683941602706909
1745973861005968600,4.99396875,-0.31187233920244817,-0.013307185843586922,-0.14951432457052075,-0.005959158763289452,0.012967034080716111,0.9708582311243451,-0.0329982041578273,left,0.003054499626159668,-0.3754387649677302,-2.7994921873301264,-8.683470730701089,-0.1868466690850137,-0.005672250874340534,-0.0007296204566955566,3.5959099840298294,-0.0035949349403381348
1745973861045968600,5.03396875,-0.31187233920244817,-0.0037036240100860596,-0.14951432457052075,-0.019737087190151215,0.012967034080716111,0.9708582311243451,-0.0329982041578273,left,0.004530191421508789,-0.3754387649677302,-2.7994921873301264,-8.683470730701089,-0.1868466690850137,-0.006492835469543934,-0.0025864839553833008,3.5959099840298294,0.002091735601425171
1745973861085968400,5.073968505859375,-0.31355939163247326,0.012014776468276978,-0.15031338177723677,-0.02261166274547577,0.01303314021064033,0.9707276207457992,-0.03319626659102408,left,0.002047419548034668,-0.37549794960940447,-2.814071916824579,-8.678532689777017,-0.186879259974708,-0.0096420394256711,-0.004807144403457642,3.5964500822559,0.004358798265457153
1745973861125968400,5.113968505859375,-0.3144780516116361,0.02351779118180275,-0.1508148205154954,-0.024023164063692093,0.013479602760178837,0.9706203554031828,-0.03251275909696351,left,-0.0006549954414367676,-0.3758664728122368,-2.821633291989565,-8.67468302861154,-0.18700040715424635,-0.0025726845487952232,-0.0054232776165008545,3.5998119599044323,0.0020679235458374023
1745973861165968600,5.15396875,-0.31489055411557426,0.024888819083571434,-0.15111504812155027,-0.012854059226810932,0.01410701707661693,0.9705487701066497,-0.031357207376336085,left,0.0008863210678100586,-0.3762242902939044,-2.8248122142866254,-8.672292918604612,-0.18708379826302407,0.0036957566626369953,-0.003151446580886841,3.6030756378754973,-0.001559823751449585
1745973861205968600,5.19396875,-0.3150361612746402,0.015383514575660229,-0.1512575245945058,-0.007750060874968767,0.014553288686518506,0.9705033580370936,-0.03051592335538837,left,0.00041800737380981445,-0.37653535087460177,-2.8257275755658746,-8.670815831789374,-0.18716996734578778,-0.007786586415022612,-0.002643674612045288,3.605912614867091,-0.0013438165187835693
1745973861245968600,5.23396875,-0.3150361612746402,-0.002787644974887371,-0.1512575245945058,0.011130068451166153,0.014553288686518506,0.9705033580370936,-0.03051592335538837,left,-0.002212047576904297,-0.37653535087460177,-2.8257275755658746,-8.670815831789374,-0.18716996734578778,-0.016742730513215065,-0.0009428262710571289,3.605912614867091,-0.003199279308319092
1745973861285968600,5.27396875,-0.31478442291468106,-0.004581565968692303,-0.1510638220951511,0.01063371729105711,0.014391538207018236,0.9704158499363381,-0.030995072640666116,left,0.0010026097297668457,-0.377738230531343,-2.822199693700671,-8.667395794212817,-0.1877911493476762,-0.018411574885249138,-0.0006762146949768066,3.6168799990832805,-0.0014387965202331543
1745973861325968400,5.313968505859375,-0.31478442291468106,0.001987205818295479,-0.1510638220951511,0.010618455708026886,0.014391538207018236,0.9704158499363381,-0.030995072640666116,left,-0.0024776458740234375,-0.377738230531343,-2.822199693700671,-8.667395794212817,-0.1877911493476762,0.0008651409298181534,-0.00029924511909484863,3.6168799990832805,0.00018319487571716309
1745973861365968400,5.353968505859375,-0.31335371494781217,0.01854475401341915,-0.1504084835598158,0.02196406200528145,0.014497177360675179,0.9705018017171526,-0.03053315719946005,left,0.005098104476928711,-0.3779411175435459,-2.809569929230213,-8.670726399940252,-0.1878650177166003,0.003930814564228058,-0.0007151961326599121,3.618729134081304,0.0034985244274139404
1745973861405968600,5.39396875,-0.3129876887331829,0.01227034255862236,-0.15027510499589167,-0.002949098125100136,0.01473590330863389,0.9705041726842304,-0.030007747308072402,left,0.002980947494506836,-0.37817401570097203,-2.806136447650194,-8.670952609911561,-0.18794110132679367,0.0006285049021244049,-0.0000597536563873291,3.6208518253237005,0.001664489507675171
1745973861445968600,5.43396875,-0.3129876887331829,0.009837334975600243,-0.15027510499589167,-0.001063101110048592,0.01473590330863389,0.9705041726842304,-0.030007747308072402,left,0.002232074737548828,-0.37817401570097203,-2.806136447650194,-8.670952609911561,-0.18794110132679367,-0.001628573052585125,0.00032395124435424805,3.6208518253237005,0.0022430121898651123
1745973861485968600,5.47396875,-0.31330409101583634,0.013477900065481663,-0.1504984933118,-0.01171595323830843,0.015206262844897123,0.9704356062791842,-0.029167103768256982,left,0.0016540884971618652,-0.378593658939105,-2.8084114068448542,-8.668618029484152,-0.18807896277521846,-0.004304331261664629,-0.0017132163047790527,3.6246760597869754,0.00406762957572937
1745973861525968600,5.51396875,-0.31359845673075987,0.007826213724911213,-0.1506758534907911,-0.009695302695035934,0.01548506475728617,0.9703745000665673,-0.028711415582525053,left,0.002332150936126709,-0.3789783516101074,-2.810532636782527,-8.666463481798768,-0.1882289036598709,-0.0025033727288246155,-0.0017996728420257568,3.628181145298481,0.002281099557876587
1745973861565968600,5.55396875,-0.31408418871061705,0.002630656585097313,-0.15091555194268055,-0.014898767694830894,0.015626071282932075,0.9703008407408753,-0.02857815679091555,left,0.007241487503051758,-0.3793706352223384,-2.8143019261881705,-8.663743116924167,-0.1884052231444973,-0.001488583511672914,-0.00293925404548645,3.6317549121320245,0.0011615455150604248
1745973861605968400,5.593968505859375,-0.31408418871061705,0.0015862719155848026,-0.15091555194268055,0.0014779847115278244,0.015626071282932075,0.9703008407408753,-0.02857815679091555,left,-0.0031945109367370605,-0.3793706352223384,-2.8143019261881705,-8.663743116924167,-0.1884052231444973,0.01728728972375393,-0.002143263816833496,3.6317549121320245,0.001682579517364502
1745973861645968600,5.63396875,-0.3140803741336163,0.0037654098123311996,-0.150986573381356,-0.0022091339342296124,0.015816694145303928,0.9703863663010442,-0.028027490992166924,left,0.003562748432159424,-0.3783951639623455,-2.8153619566351176,-8.667118730837107,-0.18789084105422627,0.024562466889619827,-0.0034777820110321045,3.62286725679934,-0.001946866512298584
1745973861685968600,5.67396875,-0.3139020029873622,0.009596959687769413,-0.15096541917914422,0.010188799351453781,0.015978434147267902,0.9704734530612106,-0.027523569527018427,left,-0.0019832253456115723,-0.3775493508901404,-2.8147610681325195,-8.670532338672876,-0.18744415086709662,0.01771177351474762,-0.00042822957038879395,3.6151579975962638,-0.0015054047107696533
1745973861725968600,5.71396875,-0.3139020029873622,0.00835386011749506,-0.15096541917914422,0.003888574428856373,0.015978434147267902,0.9704734530612106,-0.027523569527018427,left,0.002534031867980957,-0.3775493508901404,-2.8147610681325195,-8.670532338672876,-0.18744415086709662,0.0017923954874277115,-0.0010000169277191162,3.6151579975962638,-0.0030789077281951904
1745973861765968600,5.75396875,-0.3131452687520675,0.006561623886227608,-0.15065386250646312,0.004048868082463741,0.01622074567274161,0.9705132150169906,-0.026899541292136217,left,-0.001489400863647461,-0.3776831985774012,-2.808049880056083,-8.672199395102261,-0.18746808529327588,-0.010521051473915577,-0.00042173266410827637,3.6163781870409846,-0.002190500497817993
1745973861805968600,5.79396875,-0.3131452687520675,0.003956798929721117,-0.15065386250646312,0.00624571368098259,0.01622074567274161,0.9705132150169906,-0.026899541292136217,left,0.0022773146629333496,-0.3776831985774012,-2.808049880056083,-8.672199395102261,-0.18746808529327588,-0.010885609313845634,-0.0009372830390930176,3.6163781870409846,-0.0020773708820343018
1745973861845968400,5.833968505859375,-0.3128459114517657,-0.0012496979907155037,-0.1505036093294556,-0.003939598798751831,0.01628836078778713,0.9704755296309536,-0.026806324739483037,left,0.0026674270629882812,-0.37833207777104366,-2.8047309647664425,-8.670805310395359,-0.1877780987223417,-0.006291280500590801,-0.0012482404708862305,3.6222923795208333,-0.0024333298206329346
1745973861885968400,5.873968505859375,-0.3128459114517657,-0.01441960223019123,-0.1505036093294556,-0.004398844204843044,0.01628836078778713,0.9704755296309536,-0.026806324739483037,left,0.0023728609085083008,-0.37833207777104366,-2.8047309647664425,-8.670805310395359,-0.1877780987223417,-0.02334725111722946,-0.0005364120006561279,3.6222923795208333,0.0007175207138061523
1745973861925968600,5.91396875,-0.3135361660003761,-0.014685007743537426,-0.15065732958074401,0.005685850977897644,0.015684270764566605,0.9703066876056025,-0.028411522476164925,left,0.0006303191184997559,-0.3797423170987057,-2.8091370907709,-8.663999722033738,-0.18857710663975397,-0.03690103814005852,-0.0011828243732452393,3.6351404629170894,0.002366304397583008
1745973861965968600,5.95396875,-0.31393238069487517,0.0021088020876049995,-0.15074037208310478,-0.005502687767148018,0.01537245075908254,0.9701809610385811,-0.029310745929181908,left,0.006800949573516846,-0.38085696213119435,-2.8113167728975412,-8.659026609796285,-0.18918206004286925,-0.02027144655585289,-0.0013520121574401855,3.645290393270552,0.00829663872718811
1745973862005968600,5.99396875,-0.3141601490891971,0.023733772337436676,-0.15088487320221106,-0.013002725318074226,0.015663957898772427,0.9701136787623457,-0.028835186655679156,left,0.004636406898498535,-0.38135963794977834,-2.8127222557812925,-8.656642345008253,-0.18938804456737052,0.003723718225955963,-0.0026269257068634033,3.6498663228839634,0.0038013756275177
1745973862045968600,6.03396875,-0.3143322397712629,0.01864786073565483,-0.1510911413419139,-0.016404515132308006,0.016273038930475343,0.9701084872526916,-0.027581998924477203,left,0.004022121429443359,-0.3811666962648577,-2.8144296442210672,-8.656827638447284,-0.18919856235533486,0.02549813501536846,-0.003202110528945923,3.6481101268664,-0.003592371940612793
1745973862085968400,6.073968505859375,-0.31451356674501885,0.002522692084312439,-0.1512431141899456,0.0000496692955493927,0.01659962057912123,0.970098766634584,-0.02692783081556835,left,-0.0031350255012512207,-0.38106598006999237,-2.8161130672633647,-8.65666631040573,-0.1890988075003231,0.004201145842671394,-0.002192288637161255,3.6471933042824265,-0.0049301087856292725
1745973862125968400,6.113968505859375,-0.3137393390905977,-0.0168593842536211,-0.1508278191412662,0.0383298322558403,0.016314529536125447,0.9701646667728474,-0.027357816743038117,left,-0.006266355514526367,-0.3810235011587837,-2.809457701027393,-8.658991538482903,-0.1891170679808818,-0.012512929737567902,-0.0035874545574188232,3.6468063507914543,-0.0027115046977996826
1745973862165968600,6.15396875,-0.3126821814552845,-0.01751224510371685,-0.150189081737503,0.03098822757601738,0.015713564811459083,0.9701825995935776,-0.028513376588369894,left,0.006320476531982422,-0.38178980317491745,-2.7994416261866686,-8.65929548986554,-0.18958389366643383,-0.03729961812496185,0.0003390014171600342,3.653781450501084,0.003099679946899414
1745973862205968600,6.19396875,-0.31201904527602226,0.0023453757166862488,-0.14977284134825378,0.010110395029187202,0.015304669547332969,0.9701712628469092,-0.029343071476142617,left,0.006750762462615967,-0.3825169529402631,-2.792882413801551,-8.658618613517284,-0.19000369504895914,-0.011285452172160149,-0.0001010596752166748,3.6603979460313916,0.002979665994644165
1745973862245968600,6.23396875,-0.3123896878040428,0.026699746027588844,-0.15000826381295249,-0.03948906064033508,0.015640313195727618,0.9701309196892103,-0.02873750334990992,left,0.01252901554107666,-0.3826031447524172,-2.795994700603187,-8.65728298099935,-0.18999719443672322,0.016063012182712555,-0.0018459558486938477,3.661182082146406,0.0035166144371032715
1745973862285968600,6.27396875,-0.313647572542392,0.03953227400779724,-0.1507464306462913,-0.03344476968050003,0.016459485936241084,0.9700022892050019,-0.027334176708261167,left,-0.003995239734649658,-0.3828473676394783,-2.8066061109885574,-8.652907834655046,-0.18999996105405595,-0.0005446635186672211,-0.0024040043354034424,3.6634038498491046,0.001849055290222168
1745973862325968400,6.313968505859375,-0.3140990035380414,0.015937842428684235,-0.15105570548459032,-0.013880645856261253,0.0171085715919218,0.9698866561909678,-0.026209135234694144,left,0.0003122091293334961,-0.38362412229717774,-2.8096321808114646,-8.648931332239508,-0.19028766058270297,-0.006618129555135965,-0.0043336451053619385,3.6704686736688017,-0.0058744847774505615
1745973862365968400,6.353968505859375,-0.3140990035380414,-0.005317259579896927,-0.15105570548459032,0.02257455326616764,0.0171085715919218,0.9698866561909678,-0.026209135234694144,left,-0.009783565998077393,-0.38362412229717774,-2.8096321808114646,-8.648931332239508,-0.19028766058270297,-0.003915676847100258,-0.000562816858291626,3.6704686736688017,-0.0023843348026275635
1745973862405968600,6.39396875,-0.3140990035380414,-0.015229548327624798,-0.15105570548459032,0.023778019472956657,0.0171085715919218,0.9698866561909678,-0.026209135234694144,left,0.0029953718185424805,-0.38362412229717774,-2.8096321808114646,-8.648931332239508,-0.19028766058270297,0.005146658979356289,-0.0012518763542175293,3.6704686736688017,-0.003431856632232666
1745973862445968600,6.43396875,-0.31301619073084114,-0.011535603553056717,-0.15044921892972443,0.016463788226246834,0.016491272464330773,0.9700259517404745,-0.02718412566581752,left,0.0004512667655944824,-0.38309156610429923,-2.8008669828146693,-8.653827287587523,-0.1901121931725938,0.006654028780758381,0.0005562007427215576,3.665625033029914,0.0017150044441223145
1745973862485968600,6.47396875,-0.3124093258734496,-0.0017314944416284561,-0.1501367174160973,0.011385097168385983,0.016259525812830182,0.9701143882700298,-0.027473316347828996,left,0.001806497573852539,-0.38265640192990114,-2.796104590718448,-8.657042157980799,-0.18992799464629356,0.003973571117967367,0.00037401914596557617,3.6616666507929563,0.0020138919353485107
1745973862525968600,6.51396875,-0.3124093258734496,0.010487252846360207,-0.1501367174160973,-0.002793514169752598,0.016259525812830182,0.9701143882700298,-0.027473316347828996,left,0.004298567771911621,-0.38265640192990114,-2.796104590718448,-8.657042157980799,-0.18992799464629356,-0.0080375075340271,0.0005687475204467773,3.6616666507929563,0.003384530544281006
1745973862565968600,6.55396875,-0.3123583666028118,0.023871446028351784,-0.1501627581348847,-0.011027815751731396,0.01666978217066532,0.9700346258562499,-0.02675124807101855,left,0.0018177628517150879,-0.38349216169453154,-2.794722196449339,-8.654269770658015,-0.1902792319940844,-0.013856557197868824,0.0002804398536682129,3.6692683579683303,0.001687556505203247
1745973862605968400,6.593968505859375,-0.3124586309179891,0.016626644879579544,-0.15027358421316653,-0.013767982833087444,0.017142064666258804,0.9699467445860583,-0.025922926381204563,left,0.0008550286293029785,-0.38427831221290526,-2.79470232270509,-8.651241947269439,-0.19059715544234815,-0.006617582403123379,-0.000966876745223999,3.6764167684182523,-0.002473115921020508
1745973862645968600,6.63396875,-0.31278278215009175,0.002706078812479973,-0.150448592244541,-0.007779160980135202,0.017358256796488444,0.9698719750866089,-0.025622789652674,left,0.000577092170715332,-0.3847902074324992,-2.7969270130172372,-8.648543794226645,-0.1908198463156432,-0.009960036724805832,-0.0011950135231018066,3.681070147182047,-0.0006553530693054199
1745973862685968600,6.67396875,-0.31278278215009175,-0.010314409621059895,-0.150448592244541,0.0013872631825506687,0.017358256796488444,0.9698719750866089,-0.025622789652674,left,0.00046557188034057617,-0.3847902074324992,-2.7969270130172372,-8.648543794226645,-0.1908198463156432,-0.009404012933373451,-0.0029366016387939453,3.681070147182047,0.0004717111587524414
1745973862725968600,6.71396875,-0.3130031890617987,-0.010188682936131954,-0.15047112966908216,0.0019481368362903595,0.01703594363932813,0.9698193616263905,-0.02640424919985646,left,0.0026772022247314453,-0.3852484049970232,-2.7983134989395735,-8.646321442002057,-0.19109873746473635,-0.0029828674159944057,-0.0018957257270812988,3.6852345733851193,0.0023806095123291016
1745973862765968600,6.75396875,-0.3130031890617987,-0.0010283160954713821,-0.15047112966908216,0.002493683248758316,0.01703594363932813,0.9698193616263905,-0.02640424919985646,left,0.002629578113555908,-0.3852484049970232,-2.7983134989395735,-8.646321442002057,-0.19109873746473635,-0.0033577317371964455,-0.0006503164768218994,3.6852345733851193,0.0030722320079803467
1745973862805968600,6.79396875,-0.3130031890617987,0.003769396338611841,-0.15047112966908216,-0.0037305234000086784,0.01703594363932813,0.9698193616263905,-0.02640424919985646,left,0.003400743007659912,-0.3852484049970232,-2.7983134989395735,-8.646321442002057,-0.19109873746473635,0.0008885571733117104,-0.0011246204376220703,3.6852345733851193,-0.000737994909286499
1745973862845968400,6.833968505859375,-0.3130031890617987,0.004803497344255447,-0.15047112966908216,-0.011819254606962204,0.01703594363932813,0.9698193616263905,-0.02640424919985646,left,0.005862772464752197,-0.3852484049970232,-2.7983134989395735,-8.646321442002057,-0.19109873746473635,0.00091940863057971,-0.0009642243385314941,3.6852345733851193,0.0009656846523284912
1745973862885968400,6.873968505859375,-0.3130031890617987,0.01153809204697609,-0.15047112966908216,-0.007936028763651848,0.01703594363932813,0.9698193616263905,-0.02640424919985646,left,-0.0008767247200012207,-0.3852484049970232,-2.7983134989395735,-8.646321442002057,-0.19109873746473635,-0.00018966058269143105,-0.003980755805969238,3.6852345733851193,-0.000042110681533813477
1745973862925968600,6.91396875,-0.3130031890617987,0.010631109587848186,-0.15047112966908216,0.029468649998307228,0.01703594363932813,0.9698193616263905,-0.02640424919985646,left,-0.003930807113647461,-0.3852484049970232,-2.7983134989395735,-8.646321442002057,-0.19109873746473635,-0.0016390382079407573,-0.0032231509685516357,3.6852345733851193,0.0003242790699005127
1745973862965968600,6.95396875,-0.31195976811513665,-0.0022674230858683586,-0.15001429228499205,0.010610109195113182,0.017356833733720173,0.9698045546650773,-0.025685088455148223,left,0.006252706050872803,-0.3861758559663767,-2.788239848692715,-8.64597949669659,-0.19150307672178127,-0.009835632517933846,-0.0015560686588287354,3.6936616254687307,-0.0020356476306915283
1745973863005968600,6.99396875,-0.31195976811513665,-0.00003040139563381672,-0.15001429228499205,0.0044760326854884624,0.017356833733720173,0.9698045546650773,-0.025685088455148223,left,0.0029970407485961914,-0.3861758559663767,-2.788239848692715,-8.64597949669659,-0.19150307672178127,-0.006042265333235264,-0.0016082823276519775,3.6936616254687307,0.004041820764541626
1745973863045968600,7.03396875,-0.31195976811513665,0.016197532415390015,-0.15001429228499205,-0.006946946028620005,0.017356833733720173,0.9698045546650773,-0.025685088455148223,left,0.005716562271118164,-0.3861758559663767,-2.788239848692715,-8.64597949669659,-0.19150307672178127,0.003976841457188129,-0.0035498738288879395,3.6936616254687307,0.0034376978874206543
1745973863085968400,7.073968505859375,-0.311598714148246,0.022889763116836548,-0.1499431006908022,-0.006509231403470039,0.01792654866384061,0.9697811590194769,-0.024506973205480825,left,0.001734614372253418,-0.38660281354407877,-2.784634225416183,-8.645483822134137,-0.1916247860379988,0.009287899360060692,-0.0034176111221313477,3.697539928206801,0.0003291964530944824
1745973863125968400,7.113968505859375,-0.31127378031102493,0.01076719630509615,-0.14986858470064376,0.0013527730479836464,0.018372644082941862,0.9697676663497924,-0.023572628355173424,left,0.0028513073921203613,-0.38691599493930773,-2.7814702084273097,-8.645285669213532,-0.1917094351526766,0.0013165725395083427,-0.004160553216934204,3.700384503982961,-0.004158675670623779
1745973863165968600,7.15396875,-0.31127378031102493,-0.01338046882301569,-0.14986858470064376,0.029279205948114395,0.018372644082941862,0.9697676663497924,-0.023572628355173424,left,-0.006661057472229004,-0.38691599493930773,-2.7814702084273097,-8.645285669213532,-0.1917094351526766,-0.014931420795619488,0.0005691945552825928,3.700384503982961,-0.0037920773029327393
1745973863205968600,7.19396875,-0.3105918786664117,-0.03895319625735283,-0.14937610459302725,0.014862525276839733,0.01758523287652925,0.9697832776959119,-0.02514529131541097,left,0.005526840686798096,-0.38744214253366716,-2.7749788005813953,-8.64532541670203,-0.19208815507544608,-0.020639833062887192,-0.001648038625717163,3.705162093648314,-0.00249442458152771
1745973863245968600,7.23396875,-0.3107783776437042,-0.019463736563920975,-0.1493147596435242,0.008918745443224907,0.01684188556230762,0.9697805081084414,-0.02671934563194637,left,0.002295851707458496,-0.387467827695006,-2.7765619781196116,-8.644716929414868,-0.19221652855965815,-0.008064953610301018,-0.0011911094188690186,3.7053953178822994,0.0052190423011779785
1745973863285968600,7.27396875,-0.3107783776437042,0.020570747554302216,-0.1493147596435242,0.001378414686769247,0.01684188556230762,0.9697805081084414,-0.02671934563194637,left,0.005530834197998047,-0.387467827695006,-2.7765619781196116,-8.644716929414868,-0.19221652855965815,0.006302923895418644,-0.0013317763805389404,3.7053953178822994,0.007273346185684204
1745973863325968400,7.313968505859375,-0.3101223826588146,0.036988385021686554,-0.14914000206693817,-0.002183246426284313,0.017524388774382105,0.9698050269644425,-0.025201072707935347,left,0.0010121464729309082,-0.38758897131219366,-2.770753584101796,-8.646109260556102,-0.19216757227427914,0.008318505249917507,-0.00024366378784179688,3.7064953880786895,0.0013308823108673096
1745973863365968400,7.353968505859375,-0.3096546878060508,0.014607561752200127,-0.14902851770816086,0.0010538024362176657,0.018129173099846723,0.9697931966846557,-0.02392042271302057,left,0.0018004775047302246,-0.38796283858328856,-2.766286960081756,-8.646083541592954,-0.1922574380631095,0.000695682130753994,0.0013419091701507568,3.7098894144311547,-0.004968792200088501
1745973863405968600,7.39396875,-0.3096546878060508,-0.011525541543960571,-0.14902851770816086,0.00036387064028531313,0.018129173099846723,0.9697931966846557,-0.02392042271302057,left,-0.0003998875617980957,-0.38796283858328856,-2.766286960081756,-8.646083541592954,-0.1922574380631095,-0.010974925942718983,0.0012276172637939453,3.7098894144311547,-0.0032957494258880615
1745973863445968600,7.43396875,-0.30981674778568985,-0.01960284262895584,-0.14900109293138963,0.002110005123540759,0.017722983622579153,0.969731285153515,-0.0248884150376874,left,0.002141237258911133,-0.3885819993027509,-2.7669872173056005,-8.643445594304799,-0.19262811745056338,-0.018745625391602516,-0.00011032819747924805,3.715509300139546,-0.0005069375038146973
1745973863485968600,7.47396875,-0.31021719502290074,-0.01059015840291977,-0.1490944987287382,-0.005820798687636852,0.017297651256069725,0.9696879360842531,-0.025882572466662524,left,0.003349006175994873,-0.3888172714189921,-2.7701813371717927,-8.64150439710915,-0.1928126822476546,-0.006119733676314354,-0.001693636178970337,3.7176445586025713,0.004004925489425659
1745973863525968600,7.51396875,-0.3106708483150492,0.012248868122696877,-0.1493078478947119,-0.013039752840995789,0.01733796845899616,0.969639251021111,-0.02591528741245281,left,0.0028992295265197754,-0.38897873190594634,-2.7739178933516144,-8.639675428116321,-0.19288939004876582,-0.0008083605207502842,-0.0021158456802368164,3.7191096627190707,0.00666460394859314
1745973863565968600,7.55396875,-0.31094645767618745,0.020638318732380867,-0.14951558059557643,-0.01254220213741064,0.017756354904540955,0.9696016150123392,-0.025123910715765092,left,0.002256035804748535,-0.3890840888673404,-2.776178824020922,-8.638536779475212,-0.19287891648049102,0.005188466049730778,-0.0037022829055786133,3.720065648269653,0.002370208501815796
1745973863605968400,7.593968505859375,-0.3110156893049515,0.011084557510912418,-0.14962715714516472,0.001164172776043415,0.0181844307052396,0.9695738565022972,-0.024280098024949716,left,-0.0002447366714477539,-0.3892439517329096,-2.7765950036063787,-8.637778654584288,-0.19289260884478313,0.004349660128355026,-0.0018954277038574219,3.7215161393389105,-0.0009124279022216797
1745973863645968600,7.63396875,-0.3110156893049515,-0.004939650185406208,-0.14962715714516472,0.009332030080258846,0.0181844307052396,0.9695738565022972,-0.024280098024949716,left,0.0015659928321838379,-0.3892439517329096,-2.7765950036063787,-8.637778654584288,-0.19289260884478313,0.0017249106895178556,-0.0010446906089782715,3.7215161393389105,-0.0016789138317108154
1745973863685968600,7.67396875,-0.3110156893049515,-0.004761343356221914,-0.14962715714516472,-0.0005244482308626175,0.0181844307052396,0.9695738565022972,-0.024280098024949716,left,0.003615140914916992,-0.3892439517329096,-2.7765950036063787,-8.637778654584288,-0.19289260884478313,-0.0031576899345964193,-0.0010678768157958984,3.7215161393389105,-0.0011795461177825928
1745973863725968600,7.71396875,-0.31041515502437483,0.003680155146867037,-0.14930317139229135,0.03573103994131088,0.017955714531887025,0.9696247797314371,-0.024627453740987838,left,-0.0077544450759887695,-0.3892128173636013,-2.7714427354097366,-8.639555016607046,-0.19290891828705434,-0.002851487137377262,0.00010898709297180176,3.7212338152661917,0.0014282763004302979
1745973863765968600,7.75396875,-0.3094632285717138,-0.0005203494802117348,-0.14883196621671213,0.009517664089798927,0.017869762099671886,0.969667642866568,-0.024662873724778083,left,0.008009910583496094,-0.38951291573271646,-2.7628768593773243,-8.641125042402743,-0.19306546964075566,-0.007899707183241844,-0.00046452879905700684,3.723956225967407,-0.0013201236724853516
1745973863805968600,7.79396875,-0.30943651143162637,0.000983856269158423,-0.14879590123499456,-0.0011968575417995453,0.017780226467608767,0.9696562510083612,-0.024867595528135923,left,0.0037821531295776367,-0.389673079140823,-2.7624644791841506,-8.64063053688407,-0.19315854083079717,-0.0027912696823477745,0.0002721548080444336,3.7254093473851677,0.0019440948963165283
1745973863845968400,7.833968505859375,-0.30943651143162637,0.0129231633618474,-0.14879590123499456,-0.008437740616500378,0.017780226467608767,0.9696562510083612,-0.024867595528135923,left,0.0037311315536499023,-0.389673079140823,-2.7624644791841506,-8.64063053688407,-0.19315854083079717,-0.00046008708886802197,-0.0012745261192321777,3.7254093473851677,0.005613774061203003
1745973863885968400,7.873968505859375,-0.3094493970532509,0.012900731526315212,-0.14888460779128976,-0.0011447216384112835,0.01826918616799101,0.9696083443128143,-0.023926067415281752,left,0.0017173290252685547,-0.39008030513647873,-2.7621134737893938,-8.639149358415603,-0.1932856136239906,0.0016714504454284906,-0.001154184341430664,3.7291032334670424,0.0014314651489257812
1745973863925968600,7.91396875,-0.3094493970532509,0.004457278177142143,-0.14888460779128976,0.0014933985657989979,0.01826918616799101,0.9696083443128143,-0.023926067415281752,left,0.0006655454635620117,-0.39008030513647873,-2.7621134737893938,-8.639149358415603,-0.1932856136239906,0.005588894709944725,-0.0015703439712524414,3.7291032334670424,0.0013967156410217285
1745973863965968600,7.95396875,-0.3094463821443326,-0.0006992537528276443,-0.14895470418662513,-0.0031681167893111706,0.018584494384243512,0.9696250852215319,-0.023236902291872318,left,0.00001245737075805664,-0.3898389649851835,-2.762361603331566,-8.64001503533423,-0.19311741075550987,0.01850588247179985,-0.0010487139225006104,3.726914198990166,0.0005285739898681641
1745973864005968600,7.99396875,-0.30882553225214426,0.00028034287970513105,-0.1486966828628636,0.014068005606532097,0.018626362785464007,0.9697286852045371,-0.022926441314939407,left,0.0020426511764526367,-0.3892026180496776,-2.7577169923961162,-8.64398569253087,-0.19279177646844767,0.018590619787573814,-0.0016215145587921143,3.7211411685466764,-0.0005810558795928955
1745973864045968600,8.03396875,-0.30882553225214426,-0.013139591552317142,-0.1486966828628636,0.015215680003166199,0.018626362785464007,0.9697286852045371,-0.022926441314939407,left,-0.000709235668182373,-0.3892026180496776,-2.7577169923961162,-8.64398569253087,-0.19279177646844767,0.008553670719265938,0.0006116330623626709,3.7211411685466764,-0.00418323278427124
1745973864085968400,8.073968505859375,-0.3079804724520565,-0.014596960507333279,-0.14822632957303947,0.011914227157831192,0.018078140628982307,0.9698840128657001,-0.023747204405982582,left,0.0037502050399780273,-0.3883020592087016,-2.7514260755583644,-8.649502994647621,-0.1924240987589958,0.006719928700476885,0.00009882450103759766,3.7129686757460236,-0.0014449059963226318
1745973864125968400,8.113968505859376,-0.3079678745510745,0.002212981693446636,-0.14820412252908194,-0.007489603012800217,0.017927585186088925,0.9699229168790352,-0.02399554348243635,left,0.002821683883666992,-0.38792356282218843,-2.751742886422574,-8.650876036566496,-0.19225919440791242,0.003767494112253189,-0.00034186244010925293,3.7095328560784457,0.0021145641803741455
1745973864165968600,8.15396875,-0.3079678745510745,0.012532748281955719,-0.14820412252908194,-0.00664086127653718,0.017927585186088925,0.9699229168790352,-0.02399554348243635,left,0.0017194151878356934,-0.38792356282218843,-2.751742886422574,-8.650876036566496,-0.19225919440791242,-0.0013001514598727226,-0.0002544522285461426,3.7095328560784457,0.0005991756916046143
1745973864205968600,8.19396875,-0.30829719487820983,0.005445346236228943,-0.1484235994142883,-0.011943320743739605,0.01830459648981061,0.969869361153549,-0.023321827756446416,left,0.002384364604949951,-0.38816736953198966,-2.754317120824754,-8.649107273328303,-0.19232440360501823,0.0072288233786821365,-0.0024797916412353516,3.711746148213744,-0.0036505162715911865
1745973864245968600,8.23396875,-0.30883677599996656,0.0013076094910502434,-0.14871603822364257,-0.012216835282742977,0.01848446180460494,0.969840985209787,-0.023033920979180764,left,0.0017473697662353516,-0.3880154421547283,-2.759154916244745,-8.648157425257564,-0.19222442954391178,0.0064948080107569695,-0.0037924647331237793,3.7103669688150283,-0.002555668354034424
1745973864285968600,8.27396875,-0.30883677599996656,0.004219241440296173,-0.14871603822364257,-0.00699242576956749,0.01848446180460494,0.969840985209787,-0.023033920979180764,left,0.0003553628921508789,-0.3880154421547283,-2.759154916244745,-8.648157425257564,-0.19222442954391178,0.004182572476565838,-0.005429685115814209,3.7103669688150283,-0.0010552704334259033
1745973864325968400,8.313968505859375,-0.30929062866766405,0.001983772497624159,-0.1489903161039336,-0.0004361099563539028,0.01874076084764965,0.9698345716745471,-0.022541706996520236,left,0.0007750988006591797,-0.38767616890622314,-2.763462842571735,-8.648102480199933,-0.19201917790594375,0.0010848520323634148,-0.004516571760177612,3.70728712297827,-0.002536565065383911
1745973864365968400,8.353968505859376,-0.30929062866766405,-0.002822712529450655,-0.1489903161039336,0.0051729329861700535,0.01874076084764965,0.9698345716745471,-0.022541706996520236,left,0.00040924549102783203,-0.38767616890622314,-2.763462842571735,-8.648102480199933,-0.19201917790594375,-0.012129389680922031,-0.0041456520557403564,3.70728712297827,-0.002253979444503784
1745973864405968600,8.39396875,-0.3092869114792577,-0.009435106068849564,-0.1489335829014504,0.005582490004599094,0.018552353385637963,0.9697923735485567,-0.02300804335448513,left,0.002747178077697754,-0.3881730252092888,-2.7628695528537035,-8.646357097837328,-0.19229469589308446,-0.015957703813910484,-0.002170860767364502,3.7117975861400363,-0.0029185712337493896
1745973864445968600,8.43396875,-0.3092967791015358,-0.007603180129081011,-0.1488450428199176,0.007787374313920736,0.018184419051185226,0.9697463749743864,-0.023857727298585617,left,0.0051018595695495605,-0.38873535187592734,-2.762319225494563,-8.64434049731791,-0.19263031823574256,-0.02315017208456993,0.0009749531745910645,3.71690104675889,0.0011340677738189697
1745973864485968600,8.47396875,-0.309436668613537,-0.0015996340662240982,-0.14883199705302846,0.0006235120818018913,0.017931552052309868,0.9696686785725135,-0.024529722219700737,left,0.0010113716125488281,-0.38951027768362856,-2.7626503571450707,-8.64120804451108,-0.193054520483683,-0.012013277038931847,-0.0004951655864715576,3.723932552830875,0.0004892051219940186
1745973864525968600,8.51396875,-0.3088658968779227,0.011444003321230412,-0.14855066225079844,0.019004613161087036,0.017910359164817112,0.9696810944904214,-0.024509526080148312,left,-0.0005422234535217285,-0.38982491475321285,-2.757361603087187,-8.641666309672594,-0.19321057307630882,-0.004863718058913946,0.00041985511779785156,3.7267867732182145,0.0061702728271484375
1745973864565968600,8.55396875,-0.30824432378086813,0.015598345547914505,-0.1482880887877266,0.0032781604677438736,0.018142502373283752,0.9696713605752766,-0.02399208551938783,left,0.006246387958526611,-0.3903652750032679,-2.75137814476341,-8.641458804401754,-0.19343955960705547,-0.008484835736453533,0.0001361370086669922,3.7316876970022914,0.004745215177536011
1745973864605968400,8.593968505859374,-0.30797816100417524,0.02210948057472706,-0.14823660428052163,-0.007846202701330185,0.018580227865811056,0.9696434043402108,-0.02310174689620761,left,0.003636777400970459,-0.3907818304786594,-2.748606634223461,-8.640708862817286,-0.1935778037029891,0.00340900756418705,0.0010942816734313965,3.735465169714391,0.002963453531265259
1745973864645968600,8.63396875,-0.3079506429311,0.023890940472483635,-0.14832206831949973,-0.011902333237230778,0.019138269338840892,0.9695998513513826,-0.02200343699178977,left,0.0024046897888183594,-0.39115179057374766,-2.747949923880398,-8.639466753801702,-0.19367587996896432,0.0006290324963629246,0.0005106627941131592,3.7388194485783575,0.0022684335708618164
1745973864685968600,8.67396875,-0.3082024595443819,0.014165133237838745,-0.1485071066503137,-0.00586748169735074,0.019554740753730402,0.9695326667192848,-0.021263036299143584,left,-0.00339430570602417,-0.39158629565587805,-2.749632177878916,-8.637225696876644,-0.19382899223071318,-0.007255973760038614,-0.001240760087966919,3.7427582493320104,-0.0007206499576568604
1745973864725968600,8.71396875,-0.3082024595443819,-0.0038923025131225586,-0.1485071066503137,0.00007025711238384247,0.019554740753730402,0.9695326667192848,-0.021263036299143584,left,0.0041893720626831055,-0.39158629565587805,-2.749632177878916,-8.637225696876644,-0.19382899223071318,-0.019315985962748528,-0.001602083444595337,3.7427582493320104,-0.001764446496963501
1745973864765968600,8.75396875,-0.30825306298455407,-0.011304318904876709,-0.14845150363767473,0.012550776824355125,0.01932171240552611,0.9694474364464627,-0.021898309344110144,left,-0.0017951726913452148,-0.39250347963931925,-2.7490266132012007,-8.633811504518984,-0.19431999282416573,-0.004890209995210171,-0.0008361935615539551,3.7510704428642985,-0.0008038580417633057
1745973864805968600,8.79396875,-0.3080609996144967,-0.00922683347016573,-0.14831752250990646,0.0021107662469148636,0.019072401687876567,0.9694805742567401,-0.022350397070518387,left,0.0037170052528381348,-0.39235283703880974,-2.747539589513838,-8.634878256967664,-0.19428237571101384,0.004572195000946522,-0.004272729158401489,3.7497052919909355,0.0017322003841400146
1745973864845968400,8.833968505859374,-0.3080609996144967,-0.003975258208811283,-0.14831752250990646,0.007976274937391281,0.019072401687876567,0.9694805742567401,-0.022350397070518387,left,0.00032836198806762695,-0.39235283703880974,-2.747539589513838,-8.634878256967664,-0.19428237571101384,0.005473708268254995,-0.0030892491340637207,3.7497052919909355,0.0007182061672210693
1745973864885968400,8.873968505859375,-0.3080609996144967,-0.000668560154736042,-0.14831752250990646,0.011444097384810448,0.019072401687876567,0.9694805742567401,-0.022350397070518387,left,0.0023823976516723633,-0.39235283703880974,-2.747539589513838,-8.634878256967664,-0.19428237571101384,0.00603110995143652,-0.0016888678073883057,3.7497052919909355,-0.0027340054512023926
1745973864925968600,8.91396875,-0.3075519289803507,0.002030731877312064,-0.14805783858337485,0.007710380479693413,0.01886194576284561,0.9695724023852315,-0.02259722181444442,left,0.0010772943496704102,-0.39181015600868496,-2.74375919419229,-8.638214123392105,-0.1940426017996645,-0.0036825118586421013,-0.0006411969661712646,3.7447871248111126,-0.0011133253574371338
1745973864965968600,8.95396875,-0.3075519289803507,0.00506643857806921,-0.14805783858337485,0.0013773953542113304,0.01886194576284561,0.9695724023852315,-0.02259722181444442,left,0.0024013519287109375,-0.39181015600868496,-2.74375919419229,-8.638214123392105,-0.1940426017996645,-0.01296805590391159,0.000005185604095458984,3.7447871248111126,0.0010869801044464111
1745973865005968600,8.99396875,-0.3075519289803507,0.002555116079747677,-0.14805783858337485,-0.004182181786745787,0.01886194576284561,0.9695724023852315,-0.02259722181444442,left,0.002803206443786621,-0.39181015600868496,-2.74375919419229,-8.638214123392105,-0.1940426017996645,-0.009572591632604599,-0.0013426542282104492,3.7447871248111126,0.0002282261848449707
1745973865045968600,9.03396875,-0.30766698936518533,0.00013165036216378212,-0.14807925957937912,0.001943890005350113,0.01885812754428943,0.9694815584622719,-0.022766307349128642,left,0.0011841654777526855,-0.39268877249416273,-2.743755687060952,-8.634759014502167,-0.19447967290484278,-0.004389232024550438,-0.00023055076599121094,3.7527491897314786,0.0005799829959869385
1745973865085968400,9.073968505859375,-0.30766698936518533,-0.005164286587387323,-0.14807925957937912,0.0012016179971396923,0.01885812754428943,0.9694815584622719,-0.022766307349128642,left,0.0005361437797546387,-0.39268877249416273,-2.743755687060952,-8.634759014502167,-0.19447967290484278,0.00008798018097877502,-0.0021398961544036865,3.7527491897314786,0.0015100538730621338
1745973865125968400,9.113968505859376,-0.30766698936518533,-0.00434540631249547,-0.14807925957937912,0.0011289636604487896,0.01885812754428943,0.9694815584622719,-0.022766307349128642,left,0.002145230770111084,-0.39268877249416273,-2.743755687060952,-8.634759014502167,-0.19447967290484278,0.0008317017345689237,-0.0009390711784362793,3.7527491897314786,0.0027654170989990234
1745973865165968600,9.15396875,-0.30766698936518533,-0.000005306210368871689,-0.14807925957937912,0.0013182860566303134,0.01885812754428943,0.9694815584622719,-0.022766307349128642,left,0.002418816089630127,-0.39268877249416273,-2.743755687060952,-8.634759014502167,-0.19447967290484278,0.00037264934508129954,-0.0013135969638824463,3.7527491897314786,0.00334051251411438
1745973865205968600,9.19396875,-0.30766698936518533,0.0033401730470359325,-0.14807925957937912,0.0010035085724666715,0.01885812754428943,0.9694815584622719,-0.022766307349128642,left,0.0017349720001220703,-0.39268877249416273,-2.743755687060952,-8.634759014502167,-0.19447967290484278,0.001332827378064394,-0.00016221404075622559,3.7527491897314786,0.002104043960571289
1745973865245968600,9.23396875,-0.30766698936518533,0.008572973310947418,-0.14807925957937912,-0.00161004310939461,0.01885812754428943,0.9694815584622719,-0.022766307349128642,left,0.0035369396209716797,-0.39268877249416273,-2.743755687060952,-8.634759014502167,-0.19447967290484278,0.01576702855527401,-0.0007120668888092041,3.7527491897314786,-0.00018724799156188965
1745973865285968600,9.27396875,-0.30762611473965906,0.015460662543773651,-0.14814728564041263,-0.007864811457693577,0.019239538362876816,0.9695049194506045,-0.021924631799562926,left,0.0009747147560119629,-0.3923920194799506,-2.7437396127089855,-8.635932149934769,-0.1942739781413057,0.019581418484449387,-0.0004734992980957031,3.75006038903892,-0.003250032663345337
1745973865325968400,9.313968505859375,-0.30719264263801804,0.017604921013116837,-0.1480414738145427,0.01691993698477745,0.01967554291969227,0.9695501955313995,-0.02090034768022426,left,-0.007721960544586182,-0.3921496646092414,-2.7402707675546405,-8.637986744377017,-0.19408494187268938,-0.0023018252104520798,-0.00047647953033447266,3.747864048038423,-0.0012137293815612793
1745973865365968400,9.353968505859376,-0.30647583246821714,-0.005427485331892967,-0.14767977410520958,0.011052325367927551,0.01969870369883,0.9695134887611226,-0.020855073387262845,left,0.003871440887451172,-0.39308261307507114,-2.7330221116006372,-8.636611364370584,-0.1945406356628576,-0.03436107933521271,-0.0014495253562927246,3.7563171113461253,-0.003705143928527832
1745973865405968600,9.39396875,-0.30624131545447325,-0.00658494932577014,-0.1474612259300817,0.011940691620111465,0.019354661323421462,0.9694296690859591,-0.02169626068475499,left,0.004437386989593506,-0.39422397671529974,-2.7297023195281622,-8.633158593568206,-0.1951578820414865,-0.032789744436740875,-0.00044649839401245117,3.766654088704288,0.0029477179050445557
1745973865445968600,9.43396875,-0.3060476546365367,0.020585404708981514,-0.1473459990247363,-0.008179698139429092,0.019377060400751222,0.9693640174224182,-0.021741864992735945,left,0.009473204612731934,-0.3950605916858579,-2.7270798620700836,-8.630679051712155,-0.1955683533529889,-0.010926863178610802,-0.001375645399093628,3.774227738828957,0.008257865905761719
1745973865485968600,9.47396875,-0.3061967120363909,0.038308121263980865,-0.14754267570441046,-0.018254989758133888,0.020071655089489798,0.9693050964336438,-0.020395269941457114,left,0.0029190778732299805,-0.3954218991412307,-2.727955183599889,-8.62897224779427,-0.19564258766763218,0.009709080681204796,-0.0025900602340698242,3.7774978465408084,0.004992574453353882
1745973865525968600,9.51396875,-0.3062622748232136,0.024367261677980423,-0.1477191886173777,-0.0028059836477041245,0.020844470499985546,0.969256921064544,-0.01885844342638565,left,-0.0016666650772094727,-0.39570690797258434,-2.728196298879385,-8.627765794613957,-0.19566654694636557,0.0036302274093031883,-0.0030463337898254395,3.7800770493790505,-0.000130385160446167
1745973865565968600,9.55396875,-0.3064776289523028,-0.011216703802347183,-0.14785039885484694,0.005294858478009701,0.021015191723765626,0.9692287302736472,-0.018564689213577186,left,-0.001053154468536377,-0.3958033153129892,-2.7299443115904927,-8.626831144112348,-0.1956892635535645,0.0058669839054346085,-0.0031714141368865967,3.7809491560384627,-0.005223900079727173
1745973865605968400,9.593968505859374,-0.3062790464652565,-0.025839010253548622,-0.14767307193874415,0.02011115476489067,0.020531147449590073,0.9692878136201227,-0.019466566350661015,left,0.0014231204986572266,-0.395439578814845,-2.728645503951609,-8.628683493980764,-0.19558178736830373,0.0007517118938267231,-0.0031644105911254883,3.777657713277638,-0.0005332827568054199
1745973865645968600,9.63396875,-0.3060318555906128,-0.013665837235748768,-0.147469844828624,0.013546518981456757,0.020018807955472985,0.9693568333733364,-0.02040682646069807,left,0.003461122512817383,-0.39501076476463737,-2.727000367093086,-8.630901754552125,-0.19544597540124628,0.00421980582177639,-0.003264009952545166,3.7737767801910636,0.0033979415893554688
1745973865685968600,9.67396875,-0.30558331901529606,0.007529505528509617,-0.1472644317658052,0.009054322727024555,0.019951908650321887,0.9694351852361776,-0.020380489141636256,left,0.003192007541656494,-0.3945368263220079,-2.7236665464952585,-8.633828455653786,-0.19521894429762215,0.01350565068423748,-0.002096027135848999,3.769486389520764,0.0029117465019226074
1745973865725968600,9.71396875,-0.30558331901529606,0.0115245645865798,-0.1472644317658052,0.004788252990692854,0.019951908650321887,0.9694351852361776,-0.020380489141636256,left,0.0011846423149108887,-0.3945368263220079,-2.7236665464952585,-8.633828455653786,-0.19521894429762215,0.005751778371632099,-0.0005432963371276855,3.769486389520764,0.00013372302055358887
1745973865765968600,9.75396875,-0.30514057204290285,0.002268364652991295,-0.14712363227650854,0.0025915647856891155,0.02029584401432133,0.9694485584241297,-0.01960026074691338,left,0.0018219947814941406,-0.3946554828165395,-2.7197093333020805,-8.634607038810849,-0.19522344838661604,-0.0025981971994042397,-0.0008599460124969482,3.770560740754008,-0.00135001540184021
1745973865805968600,9.79396875,-0.30514057204290285,-0.0007919950876384974,-0.14712363227650854,0.009218098595738411,0.02029584401432133,0.9694485584241297,-0.01960026074691338,left,-0.0009925365447998047,-0.3946554828165395,-2.7197093333020805,-8.634607038810849,-0.19522344838661604,-0.006866362411528826,0.0007658302783966064,3.770560740754008,0.001346975564956665
1745973865845968400,9.833968505859374,-0.30514057204290285,0.0011781156063079834,-0.14712363227650854,-0.00032393354922533035,0.02029584401432133,0.9694485584241297,-0.01960026074691338,left,0.0038450956344604492,-0.3946554828165395,-2.7197093333020805,-8.634607038810849,-0.19522344838661604,0.006348887924104929,0.0003389418125152588,3.770560740754008,-0.0004706084728240967
1745973865885968400,9.873968505859375,-0.30514057204290285,0.003922038711607456,-0.14712363227650854,-0.012835238128900528,0.02029584401432133,0.9694485584241297,-0.01960026074691338,left,0.002024233341217041,-0.3946554828165395,-2.7197093333020805,-8.634607038810849,-0.19522344838661604,0.007580221630632877,0.0010286569595336914,3.770560740754008,0.0005070865154266357
1745973865925968600,9.91396875,-0.30514057204290285,-0.00044800108298659325,-0.14712363227650854,-0.007341860793530941,0.02029584401432133,0.9694485584241297,-0.01960026074691338,left,-0.00007897615432739258,-0.3946554828165395,-2.7197093333020805,-8.634607038810849,-0.19522344838661604,-0.002179172821342945,-0.0006903707981109619,3.770560740754008,-0.0002700984477996826
1745973865965968600,9.95396875,-0.30514057204290285,-0.005151624791324139,-0.14712363227650854,-0.007008882239460945,0.02029584401432133,0.9694485584241297,-0.01960026074691338,left,0.0025183558464050293,-0.3946554828165395,-2.7197093333020805,-8.634607038810849,-0.19522344838661604,-0.0014116681413725019,-0.0020967721939086914,3.770560740754008,-0.0011126995086669922
1745973866005968600,9.99396875,-0.30514057204290285,-0.003912939224392176,-0.14712363227650854,-0.003861735574901104,0.02029584401432133,0.9694485584241297,-0.01960026074691338,left,0.001208186149597168,-0.3946554828165395,-2.7197093333020805,-8.634607038810849,-0.19522344838661604,0.00246213236823678,-0.0017078220844268799,3.770560740754008,0.00038817524909973145
1745973866045968600,10.03396875,-0.3058666784390875,0.0035620741546154022,-0.1474826941140306,-0.012684579007327557,0.02035843355081327,0.9694190083505982,-0.019578117189331064,left,0.006722509860992432,-0.3944040183666997,-2.726263577251136,-8.633533856621384,-0.19509262505982475,0.006711550056934357,-0.0019643306732177734,3.768284027993679,0.0011337995529174805
1745973866085968400,10.073968505859375,-0.30648699827571585,0.007090686820447445,-0.1478123396702915,-0.008248839527368546,0.020543046511981914,0.9693814921724099,-0.019304094844529104,left,-0.0009476542472839355,-0.3942891031187476,-2.7317493151858447,-8.63225375368297,-0.19501037917659056,0.006766888778656721,-0.0022828280925750732,3.767243579030037,-0.0017799139022827148
1745973866125968400,10.113968505859376,-0.30648699827571585,0.003450706135481596,-0.1478123396702915,0.010319305583834648,0.020543046511981914,0.9693814921724099,-0.019304094844529104,left,-0.0014445781707763672,-0.3942891031187476,-2.7317493151858447,-8.63225375368297,-0.19501037917659056,0.002662012353539467,-0.003783106803894043,3.767243579030037,0.00005173683166503906
1745973866165968600,10.15396875,-0.30648699827571585,-0.0022961702197790146,-0.1478123396702915,0.004021808505058289,0.020543046511981914,0.9693814921724099,-0.019304094844529104,left,0.004451274871826172,-0.3942891031187476,-2.7317493151858447,-8.63225375368297,-0.19501037917659056,0.00015409826301038265,-0.0013672709465026855,3.767243579030037,0.0002129971981048584
1745973866205968600,10.19396875,-0.30648699827571585,0.0050492435693740845,-0.1478123396702915,0.0009491925593465567,0.020543046511981914,0.9693814921724099,-0.019304094844529104,left,0.00165480375289917,-0.3942891031187476,-2.7317493151858447,-8.63225375368297,-0.19501037917659056,0.0036065273452550173,-0.0009168088436126709,3.767243579030037,0.004381328821182251
1745973866245968600,10.23396875,-0.30648699827571585,0.013215405866503716,-0.1478123396702915,-0.0038491191808134317,0.020543046511981914,0.9693814921724099,-0.019304094844529104,left,0.003541231155395508,-0.3942891031187476,-2.7317493151858447,-8.63225375368297,-0.19501037917659056,0.0036761502269655466,-0.001261979341506958,3.767243579030037,0.00313529372215271
1745973866285968600,10.27396875,-0.3060866502491114,0.007158979307860136,-0.14773577542704597,-0.004059554077684879,0.021062651485972892,0.9694130960532142,-0.018128389224570725,left,0.0009589195251464844,-0.394140642712939,-2.7284616718173025,-8.633879893580078,-0.1948557587221381,0.010022697038948536,-0.0006607472896575928,3.7658994709447025,-0.00010475516319274902
1745973866325968400,10.313968505859375,-0.3060866502491114,0.0011022137477993965,-0.14773577542704597,0.0003880453296005726,0.021062651485972892,0.9694130960532142,-0.018128389224570725,left,-0.00021439790725708008,-0.394140642712939,-2.7284616718173025,-8.633879893580078,-0.1948557587221381,0.010960694402456284,0.00007238984107971191,3.7658994709447025,-0.0019224882125854492
1745973866365968400,10.353968505859376,-0.30635279977288116,-0.005499546881765127,-0.14791702002705714,0.0003979958710260689,0.021213485908592757,0.9694651239472423,-0.017747608056959865,left,-0.0026955008506774902,-0.39335229550041284,-2.731654038117826,-8.635981834295391,-0.19444287421379708,0.011658734641969204,0.0015170872211456299,3.7587601205840704,-0.004195362329483032
1745973866405968600,10.39396875,-0.30635279977288116,-0.015429537743330002,-0.14791702002705714,-0.00790342316031456,0.021213485908592757,0.9694651239472423,-0.017747608056959865,left,0.0027202367782592773,-0.39335229550041284,-2.731654038117826,-8.635981834295391,-0.19444287421379708,-0.010728745721280575,-0.001194685697555542,3.7587601205840704,-0.00356292724609375
1745973866445968600,10.43396875,-0.3072167079993599,-0.024433664977550507,-0.1481958467618994,-0.0011244560591876507,0.02064076658663469,0.9693931021745609,-0.0191393099419302,left,-0.002438783645629883,-0.393587307029446,-2.7388462877094746,-8.63277631625235,-0.19465072625943095,-0.021838121116161346,-0.0008825957775115967,3.7608886570453643,0.0002624690532684326
1745973866485968600,10.47396875,-0.3073695020517564,-0.012581662274897099,-0.14815230326124643,0.005949800368398428,0.02013930524483277,0.9693553135147321,-0.020266640246308778,left,0.003049194812774658,-0.3939828539716922,-2.7397151794984933,-8.630939163953066,-0.1949242932065591,-0.0089921485632658,-0.0015408098697662354,3.7644706071853635,0.0026068389415740967
1745973866525968600,10.51396875,-0.3073695020517564,0.00851347204297781,-0.14815230326124643,-0.010708268731832504,0.02013930524483277,0.9693553135147321,-0.020266640246308778,left,0.005987644195556641,-0.3939828539716922,-2.7397151794984933,-8.630939163953066,-0.1949242932065591,0.012432817369699478,-0.001583188772201538,3.7644706071853635,0.0045407116413116455
1745973866565968600,10.55396875,-0.3075747242625864,0.026246730238199234,-0.14835450713678408,-0.01386998314410448,0.020610508297760878,0.9693630776662279,-0.019281701166941206,left,0.0005745887756347656,-0.39363874353083006,-2.7418782027512787,-8.631610779604316,-0.19468250994848046,0.010813044384121895,-0.0003191530704498291,3.7613545209914445,0.003326326608657837
1745973866605968400,10.593968505859374,-0.3077627292305347,0.013445617631077766,-0.14854508453988652,-0.01157437264919281,0.021150474932216532,0.9693233889533552,-0.018229377860326194,left,0.0027213096618652344,-0.39379168045056073,-2.7433266479939222,-8.630546365243196,-0.19467653390873957,0.0009172167629003525,-0.001539081335067749,3.762739545609057,-0.00435832142829895
1745973866645968600,10.63396875,-0.30804297190561797,0.004390917718410492,-0.14869604981355397,0.0013741236180067062,0.021305757549425274,0.9692711292284784,-0.018013049607058462,left,-0.003160238265991211,-0.3940961604094418,-2.7453979013100267,-8.628685247546434,-0.19480494958822056,-0.0073118992149829865,0.0004855990409851074,3.7654967353627082,-0.0004749894142150879
1745973866685968600,10.67396875,-0.30804297190561797,0.00814603641629219,-0.14869604981355397,-0.0042589991353452206,0.021305757549425274,0.9692711292284784,-0.018013049607058462,left,0.004010438919067383,-0.3940961604094418,-2.7453979013100267,-8.628685247546434,-0.19480494958822056,0.00870434008538723,-0.0011271536350250244,3.7654967353627082,-0.001678764820098877
1745973866725968600,10.71396875,-0.3083910995943153,0.0151801947504282,-0.14895705220276187,-0.029410162940621376,0.021729759904565885,0.969274543807156,-0.017144790971313273,left,0.006289660930633545,-0.3936931295716086,-2.748862070289254,-8.6291744923681,-0.19454138359242562,0.011803241446614265,-0.002613753080368042,3.7618469806835053,-0.0002377927303314209
1745973866765968600,10.75396875,-0.30917924413284475,0.001167837530374527,-0.1493733455446778,-0.01159939169883728,0.022028459545312053,0.9691828408088483,-0.016733309060841278,left,-0.0025745630264282227,-0.39398978183873423,-2.755322498475015,-8.625942086318135,-0.19464574661923537,-0.01813274621963501,-0.003701239824295044,3.7645334432885047,-0.002203434705734253
1745973866805968600,10.79396875,-0.3096242577863347,-0.029260918498039246,-0.14947571765496828,0.005610547959804535,0.021655071834756737,0.9690785863822016,-0.017727500523581848,left,0.000011622905731201172,-0.39484072662400427,-2.7581837331250307,-8.62166046347618,-0.19512729187126168,-0.025502745062112808,-0.004700422286987305,3.772237734055519,-0.0067032575607299805
1745973866845968400,10.833968505859374,-0.309969885071726,-0.02864605188369751,-0.1494679162893727,0.0013606897555291653,0.020891592006865807,0.9690308267720564,-0.01943869329916143,left,0.0082627534866333,-0.3952573667090476,-2.7606837332472205,-8.619208978670835,-0.1954532656411053,-0.015830162912607193,-0.007238447666168213,3.776008777026832,0.0047228336334228516
1745973866885968600,10.87396875,-0.30954987041824783,-0.008388830348849297,-0.14917167765687248,0.03073689714074135,0.020384091798003455,0.9690757372573525,-0.02039530680318177,left,0.0018979907035827637,-0.3952189265650465,-2.7571076283261178,-8.62050603274405,-0.19551041014745865,0.004137633368372917,-0.010393470525741577,3.7756606942415236,0.0051679909229278564
1745973866925968600,10.91396875,-0.30723090033894074,-0.005059540271759033,-0.14805195750024472,0.08414158225059509,0.020082928585228494,0.9693006845219408,-0.020464347439123662,left,-0.00669783353805542,-0.39467958739901754,-2.7377248824641107,-8.628816180449723,-0.1952777923283672,0.014890103600919247,-0.004861384630203247,3.7707787674188613,0.0010834336280822754
1745973866965968600,10.95396875,-0.30443001094570943,-0.03449079394340515,-0.14662338463334978,0.07165752351284027,0.019407332595064476,0.9695421492046974,-0.021249505124542264,left,0.00600278377532959,-0.3943944191128286,-2.7138682060584425,-8.63747587224543,-0.19522515443554342,-0.0009765634313225746,-0.000014662742614746094,3.7681972264930605,-0.004821807146072388
1745973867005968600,10.99396875,-0.30280236548241374,-0.03859638050198555,-0.14566159860491698,0.049623362720012665,0.018359918284550306,0.9696950039228777,-0.023054855920114282,left,0.007623612880706787,-0.39421808530262714,-2.7000039313569664,-8.642515619978308,-0.1952870206823265,-0.015411017462611198,0.0035133063793182373,3.7666006049513814,0.0010433197021484375
1745973867045968600,11.03396875,-0.30205535707006753,-0.010443897917866707,-0.14515919572654998,0.015097975730895996,0.017678874147751912,0.9697139156151642,-0.024385499372749888,left,0.00947803258895874,-0.39471321494630346,-2.692992006768286,-8.642748844212294,-0.19563036218895094,-0.025097839534282684,0.00192221999168396,3.7710833033233877,0.006706357002258301
1745973867085968400,11.073968505859375,-0.3021663031960106,0.019973957911133766,-0.14517998798954865,-0.009864244610071182,0.017709870035462535,0.9696074081283239,-0.02450391456268787,left,0.0038451552391052246,-0.3957476305987265,-2.692788593150675,-8.638721488392353,-0.19613912860338534,-0.02338644303381443,0.0022984445095062256,3.780445298169553,0.005499690771102905
1745973867125968400,11.113968505859376,-0.30288616865033924,0.014392951503396034,-0.1455756631427122,-0.039446089416742325,0.01821336181619639,0.9694385629507719,-0.023787802382785477,left,0.004344046115875244,-0.39688917674248825,-2.6977175739854573,-8.632655904743075,-0.19663358507043308,-0.014600391499698162,0.0009326636791229248,3.7907723386555907,-0.002601444721221924
1745973867165968600,11.15396875,-0.3041402868980212,0.007885713130235672,-0.14621324809913422,-0.033444587141275406,0.018599889140063407,0.9692793709928198,-0.023347237504695948,left,0.0002014636993408203,-0.3975485145958781,-2.70779268553704,-8.626879659429193,-0.19690922856764614,-0.0004209689795970917,-0.0005327463150024414,3.7967350464522838,-0.0015215575695037842
1745973867205968600,11.19396875,-0.3046417959930223,0.004174401052296162,-0.14649564008560023,-0.0032096002250909805,0.018842157128051623,0.9692393675619424,-0.02294851174892692,left,-0.004860579967498779,-0.3975440319347481,-2.7121239927396177,-8.625536428126692,-0.19687318674179663,0.007663603872060776,-0.0003719031810760498,3.79669442218095,-0.0013968050479888916
1745973867245968600,11.23396875,-0.3046417959930223,-0.013108751736581326,-0.14649564008560023,0.002672350499778986,0.018842157128051623,0.9692393675619424,-0.02294851174892692,left,0.0016320347785949707,-0.3975440319347481,-2.7121239927396177,-8.625536428126692,-0.19687318674179663,0.019138069823384285,-0.0026284456253051758,3.79669442218095,-0.006892353296279907
1745973867285968600,11.27396875,-0.3044368028748182,-0.023544445633888245,-0.14635549882862853,0.01571499928832054,0.01840100917370544,0.96938065028687,-0.02362368636568401,left,-0.0015434026718139648,-0.3963017619625727,-2.7117674343869087,-8.630585528209805,-0.1963228822327452,-0.002136770635843277,-0.0011279284954071045,3.7854590346783397,-0.0019250214099884033
1745973867325968400,11.313968505859375,-0.30416233065733844,-0.022041572257876396,-0.14608884318327517,0.020442111417651176,0.01772121715726002,0.9694092276251042,-0.024976511221013884,left,0.0014563202857971191,-0.3963397358050568,-2.7093554048091173,-8.6311922619313,-0.19644266815134354,-0.029442276805639267,-0.0006296634674072266,3.7858024412885305,-0.00047725439071655273
1745973867365968400,11.353968505859376,-0.30421177476291494,-0.017434533685445786,-0.1459562191796494,0.005634943954646587,0.01709990890649831,0.96933976284413,-0.026394637374861377,left,0.0042618513107299805,-0.3971498081980727,-2.7088626528561113,-8.628129367229342,-0.19693811301359834,-0.03489672392606735,-0.00046899914741516113,3.7931294231757517,0.0009672343730926514
1745973867405968600,11.39396875,-0.30478673647289617,-0.0007427427917718887,-0.14612013729238943,-0.01297436561435461,0.0167992242710197,0.9691955885581113,-0.027309788290658242,left,0.005360901355743408,-0.39828848577393317,-2.7125252670168876,-8.62244489185214,-0.19755143251433785,-0.030718836933374405,-0.0010100901126861572,3.8034246072188016,0.004143446683883667
1745973867445968600,11.43396875,-0.30573700190346537,0.00980133842676878,-0.1465439536658084,-0.02543237805366516,0.01690682091791871,0.9690244851175366,-0.02744770127389427,left,0.004146993160247803,-0.3993490087456347,-2.7195018280312415,-8.61601164393425,-0.1980669623505043,-0.02104274183511734,-0.0023560822010040283,3.813008428122103,0.002944648265838623
1745973867485968600,11.47396875,-0.30687079339502354,0.010546482168138027,-0.14709039536783036,-0.027420388534665108,0.017164511172449153,0.968855257740366,-0.027284778233622565,left,0.0020261406898498535,-0.4002211870887801,-2.728263226635754,-8.609749660930037,-0.19846751464639253,-0.01422954723238945,-0.004914820194244385,3.8208871986731885,0.001780688762664795
1745973867525968600,11.51396875,-0.30755758959742324,0.008242107927799225,-0.14743344294402308,-0.008557833731174469,0.017412793696629812,0.968733272485097,-0.027024840911018713,left,-0.0008797645568847656,-0.40093090490713645,-2.733354120033979,-8.60528683630228,-0.1987859549884827,-0.009616694413125515,-0.004224866628646851,3.827296188932657,0.002469778060913086
1745973867565968600,11.55396875,-0.30765127134358045,0.005361032206565142,-0.147491896138516,0.005759554915130138,0.017547766382300583,0.96869163601599,-0.026818879819504194,left,-0.000010728836059570312,-0.4012700975098951,-2.7337670847490427,-8.60379338287413,-0.198934079830676,-0.000614972785115242,-0.003085315227508545,3.830358499112725,-0.00017079710960388184
1745973867605968400,11.593968505859374,-0.30765127134358045,0.00311286305077374,-0.147491896138516,0.015456188470125198,0.017547766382300583,0.96869163601599,-0.026818879819504194,left,-0.00011867284774780273,-0.4012700975098951,-2.7337670847490427,-8.60379338287413,-0.198934079830676,0.0012332963524386287,-0.0005347132682800293,3.830358499112725,-0.000023156404495239258
1745973867645968600,11.63396875,-0.3067819777884906,-0.006884998641908169,-0.14706472627372777,0.015957852825522423,0.017459775913767957,0.9687407051566574,-0.026846474503050038,left,0.0010179877281188965,-0.40142553506086026,-2.7261069253847,-8.605598386469483,-0.19901895034564449,-0.009027683176100254,0.000023037195205688477,3.8317616439089175,-0.0010820329189300537
1745973867685968600,11.67396875,-0.3065545960633993,-0.01132947951555252,-0.14688045164992222,0.0032778196036815643,0.01715464441904346,0.9687212238298315,-0.02749711526476153,left,0.0059906840324401855,-0.4018543163581482,-2.7236539792746304,-8.604650876486302,-0.19927624013748663,-0.01909627392888069,0.00004521012306213379,3.8356320556014776,0.002678126096725464
1745973867725968600,11.71396875,-0.3065734279960494,0.009503381326794624,-0.14683909145595056,0.0020906436257064342,0.017050926847869404,0.9686481251932859,-0.02783522967908216,left,0.0009471774101257324,-0.4026180442096335,-2.722931217958033,-8.601804254883527,-0.19967049339978624,-0.009175648912787437,-0.0013863146305084229,3.842523860941827,0.0048191845417022705
1745973867765968600,11.75396875,-0.3058866652717487,0.03068019077181816,-0.14658058826635467,0.01183396577835083,0.017357923704217206,0.9686832857760929,-0.027073629220267625,left,-0.0013337135314941406,-0.40270592660043086,-2.7169214561492203,-8.603350315281748,-0.19966307532550473,0.01779661513864994,-0.0010222196578979492,3.843316764885187,0.003198385238647461
1745973867805968600,11.79396875,-0.30499089094702025,0.036216363310813904,-0.1463408629679517,-0.010711926966905594,0.018109665494710644,0.9687880000471711,-0.025248740954419275,left,0.009310662746429443,-0.40214093350753405,-2.709865400157869,-8.607850549310445,-0.1992639310700416,0.03646882623434067,-0.0013763010501861572,3.8382188572242852,-0.0036917924880981445
1745973867845968400,11.833968505859374,-0.30502032485618824,0.02345850132405758,-0.14652928575419782,-0.014457328245043755,0.018849889210927326,0.9688313207616116,-0.0236300199477886,left,0.000440061092376709,-0.4015217522528729,-2.7108319071024654,-8.610036076655984,-0.19884544794053774,0.005550011992454529,-0.0005470812320709229,3.832630243436992,-0.0006033480167388916
1745973867885968600,11.87396875,-0.30506818005340164,-0.0021401718258857727,-0.14656214564954365,0.005668865516781807,0.019051942219545308,0.9687423575921873,-0.02335503724333873,left,-0.0031515955924987793,-0.4023696720143613,-2.7102669666960835,-8.606803670606016,-0.19923526068721284,-0.037750959396362305,-0.001019597053527832,3.840282804016769,-0.004408538341522217
1745973867925968600,11.91396875,-0.30516734352111047,-0.01688406616449356,-0.14645045816886584,0.012930585071444511,0.018570660030754988,0.9685903199644699,-0.024618601245781187,left,0.002657294273376465,-0.40396700186979895,-2.709273864005506,-8.600672620505094,-0.20009995347173748,-0.051188014447689056,-0.0009224116802215576,3.854691268597543,0.0008172988891601562
1745973867965968600,11.95396875,-0.3051998699834683,0.0025843195617198944,-0.1463234316530913,0.008548621088266373,0.018179114519708352,0.9684357142795081,-0.025691419043616118,left,0.005095958709716797,-0.40561466388510964,-2.707641586628556,-8.594515266919135,-0.20097542788410247,-0.04453091323375702,-0.0008189678192138672,3.8695436775535343,0.009417325258255005
1745973868005968600,11.99396875,-0.3055066952662856,0.02016572095453739,-0.14647343387938158,-0.017647404223680496,0.01840781228129467,0.9683060368682167,-0.02544933752982984,left,0.003511667251586914,-0.4066789778509031,-2.7090380094230175,-8.58975141351819,-0.2014697993427801,-0.006954159587621689,-0.0035715997219085693,3.8791318823710084,0.002571403980255127
1745973868045968600,12.03396875,-0.30546092218066995,0.01949143595993519,-0.14655340191572336,0.000189170241355896,0.0189377530179603,0.9682751558432215,-0.024383586042441556,left,-0.00035625696182250977,-0.4069241524164286,-2.7083587949872014,-8.58896815418601,-0.20151076703985277,0.01033760979771614,-0.00411301851272583,3.8813399138092994,0.001809835433959961
1745973868085968400,12.073968505859375,-0.30546092218066995,-0.0023957695811986923,-0.14655340191572336,0.01885548233985901,0.0189377530179603,0.9682751558432215,-0.024383586042441556,left,-0.0020803213119506836,-0.4069241524164286,-2.7083587949872014,-8.58896815418601,-0.20151076703985277,0.009582831524312496,-0.0024515092372894287,3.8813399138092994,-0.0048562586307525635
1745973868125968400,12.113968505859376,-0.3045674384134243,-0.016047123819589615,-0.1461214975624571,0.022171009331941605,0.018760422241489175,0.9683919201875124,-0.0244843643732696,left,0.0017678141593933105,-0.406414077617167,-2.7012770200327036,-8.593272573381661,-0.20127979075933494,0.008201527409255505,-0.001257389783859253,3.8767458640173076,-0.003869980573654175
1745973868165968600,12.15396875,-0.30411812102070795,-0.002801245078444481,-0.14587129451654177,0.012765636667609215,0.018513701978341,0.9684529455942926,-0.02486156259242557,left,0.001392364501953125,-0.40616405259207294,-2.6977058835476635,-8.595409585410357,-0.20119053957689734,-0.011508193798363209,0.0003224611282348633,3.8744934089154004,0.003483712673187256
1745973868205968600,12.19396875,-0.3039688522933983,0.010675732977688313,-0.14578141209081244,-0.00046105124056339264,0.01853798332268947,0.968395173195277,-0.02488892588101746,left,0.0013740062713623047,-0.40686116478055045,-2.6956135874435305,-8.593232825893164,-0.2015312044085707,-0.022773226723074913,0.0002579689025878906,3.8807726353153584,0.002051115036010742
1745973868245968600,12.23396875,-0.304144641783251,0.008410696871578693,-0.14586799445627074,-0.00849192589521408,0.018752150009701794,0.96827454194698,-0.02464918852187141,left,0.0022920966148376465,-0.40792708882642603,-2.6958839288175103,-8.588807410666346,-0.20202776638471492,-0.020854772999882698,-0.0004984736442565918,3.890370484744012,-0.00014027953147888184
1745973868285968600,12.27396875,-0.304508367014879,0.00433358084410429,-0.14604255748195727,-0.009334791451692581,0.018917200132788487,0.9681708573276345,-0.024503205731468743,left,0.001093447208404541,-0.40869071761622533,-2.6981162179142233,-8.584989898204803,-0.2023830716431696,-0.0106027377769351,-0.00099983811378479,3.897243293122947,-0.0002594292163848877
1745973868325968400,12.313968505859375,-0.304508367014879,0.0011052405461668968,-0.14604255748195727,-0.005184969399124384,0.018917200132788487,0.9681708573276345,-0.024503205731468743,left,0.0026342272758483887,-0.40869071761622533,-2.6981162179142233,-8.584989898204803,-0.2023830716431696,0.00014387816190719604,-0.0023277699947357178,3.897243293122947,0.00022336840629577637
1745973868365968400,12.353968505859376,-0.304508367014879,-0.0024062530137598515,-0.14604255748195727,0.0008441782556474209,0.018917200132788487,0.9681708573276345,-0.024503205731468743,left,-0.0006818771362304688,-0.40869071761622533,-2.6981162179142233,-8.584989898204803,-0.2023830716431696,0.0013584953267127275,-0.0023415982723236084,3.897243293122947,0.002044111490249634
1745973868405968600,12.39396875,-0.304508367014879,-0.0035452237352728844,-0.14604255748195727,-0.0007491015130653977,0.018917200132788487,0.9681708573276345,-0.024503205731468743,left,0.0015562176704406738,-0.40869071761622533,-2.6981162179142233,-8.584989898204803,-0.2023830716431696,0.0005696931038983166,-0.0029509663581848145,3.897243293122947,0.0003433525562286377
1745973868445968600,12.43396875,-0.30525275033091936,-0.01198199950158596,-0.14635878937536057,-0.001205975073389709,0.018746122682950787,0.9681406233979196,-0.024981198413369383,left,0.0022411346435546875,-0.40849215067695044,-2.704738558663428,-8.583716809529065,-0.20231496656863787,0.0031142348889261484,-0.001859426498413086,3.895456409706175,0.0004093348979949951
1745973868485968600,12.47396875,-0.30525275033091936,-0.000405970960855484,-0.14635878937536057,-0.012419710867106915,0.018746122682950787,0.9681406233979196,-0.024981198413369383,left,0.007709980010986328,-0.40849215067695044,-2.704738558663428,-8.583716809529065,-0.20231496656863787,0.007647553458809853,-0.0037428736686706543,3.895456409706175,0.0037747621536254883
1745973868525968600,12.51396875,-0.30594164161880727,0.013595628552138805,-0.14673127088346521,-0.010617733933031559,0.018917401133600128,0.9681348478082609,-0.024696521971613754,left,-0.000754237174987793,-0.4080147776842829,-2.7112106772869824,-8.583623870548605,-0.2020567213551004,0.01622123084962368,-0.00417250394821167,3.891159589295089,0.0012432336807250977
1745973868565968600,12.55396875,-0.3056663483541843,0.007234076503664255,-0.1466772732021305,0.015139001421630383,0.019200948262039944,0.9681866120843616,-0.023992927128982405,left,-0.0022899508476257324,-0.4076287971124623,-2.709299582968652,-8.585801214587688,-0.2018210330130729,0.011066645383834839,-0.0026101768016815186,3.8876848989218473,-0.00015357136726379395
1745973868605968400,12.593968505859374,-0.3056663483541843,-0.005759556312114,-0.1466772732021305,0.016803372651338577,0.019200948262039944,0.9681866120843616,-0.023992927128982405,left,0.0015160441398620605,-0.4076287971124623,-2.709299582968652,-8.585801214587688,-0.2018210330130729,0.0033749560825526714,0.00012621283531188965,3.8876848989218473,-0.0017792880535125732
1745973868645968600,12.63396875,-0.30469290706543845,0.004766396712511778,-0.14621363935491546,0.011337078176438808,0.01905066354942533,0.9683076367908242,-0.02402243950858576,left,0.0017731189727783203,-0.4071285498294,-2.7015233960092067,-8.590288589134811,-0.20159052403212702,0.01588849537074566,0.0008292198181152344,3.8831805732399225,0.0045140087604522705
1745973868685968600,12.67396875,-0.3039227745930784,0.039120983332395554,-0.14598363709094994,-0.013577410019934177,0.019546945263048288,0.9684152023150228,-0.02273719304808113,left,0.010876774787902832,-0.4064858004178596,-2.6956533349320293,-8.594746737587451,-0.20119307215393264,0.03076540306210518,-0.0009521245956420898,3.8773917607054114,0.0072464048862457275
1745973868725968600,12.71396875,-0.3036743552457348,0.04276970028877258,-0.1461076650210661,-0.019605789333581924,0.020584939046110994,0.9684752783217204,-0.020439859800489884,left,0.0013281702995300293,-0.4058276807650698,-2.6942805852741003,-8.597848795256018,-0.20070936380187346,0.03493966907262802,-0.0006965994834899902,3.87146295517832,0.00010186433792114258
1745973868765968600,12.75396875,-0.3036828291198096,0.012022823095321655,-0.14628386814150385,-0.01304955780506134,0.02134179857176087,0.9685009420968814,-0.01881073659120536,left,0.0012006163597106934,-0.4053896091610136,-2.6948604309886695,-8.599443955492973,-0.20037817342427283,0.01955156773328781,-0.00036650896072387695,3.867515678857267,-0.006240487098693848
1745973868805968600,12.79396875,-0.3036828291198096,-0.01483059860765934,-0.14628386814150385,0.011949850246310234,0.02134179857176087,0.9685009420968814,-0.01881073659120536,left,-0.006676375865936279,-0.4053896091610136,-2.6948604309886695,-8.599443955492973,-0.20037817342427283,-0.0015262644737958908,0.0012485384941101074,3.867515678857267,-0.004883527755737305
1745973868845968400,12.833968505859374,-0.30390667040114255,-0.026091478765010834,-0.14628159932464016,0.007980156689882278,0.02077716145830942,0.9685267832633743,-0.019975945084978457,left,0.001852571964263916,-0.4050858470912616,-2.697136851488054,-8.599960672843455,-0.200314041426739,-0.009469865821301937,-0.0006465017795562744,3.864777778325975,-0.002736687660217285
1745973868885968600,12.87396875,-0.30427304231674057,-0.014028765261173248,-0.1463433632358526,0.002256136853247881,0.020248991041644838,0.9685152496111805,-0.02113719262828462,left,0.0017777681350708008,-0.4050523290623441,-2.7003262951791287,-8.599096164968609,-0.20037900531324215,-0.01350780762732029,-0.0006243586540222168,3.8644758727699515,0.0026057660579681396
1745973868925968600,12.91396875,-0.30427304231674057,-0.00017983932048082352,-0.1463433632358526,0.005333554930984974,0.020248991041644838,0.9685152496111805,-0.02113719262828462,left,0.0010033249855041504,-0.4050523290623441,-2.7003262951791287,-8.599096164968609,-0.20037900531324215,-0.003781738691031933,-0.0006978511810302734,3.8644758727699515,0.0016909539699554443
1745973868965968600,12.95396875,-0.30427304231674057,0.00032201188150793314,-0.1463433632358526,-0.0052810367196798325,0.020248991041644838,0.9685152496111805,-0.02113719262828462,left,0.0027106404304504395,-0.4050523290623441,-2.7003262951791287,-8.599096164968609,-0.20037900531324215,0.01704656332731247,-0.00036957859992980957,3.8644758727699515,-0.0029541850090026855
1745973869005968600,12.99396875,-0.3044642507642009,-0.0031775287352502346,-0.14644359265018234,-0.010508310049772263,0.02020071626163763,0.9685609705057643,-0.021183001921117505,left,0.0009154677391052246,-0.4044516649826757,-2.702665844042599,-8.60079244749248,-0.2000897238316246,0.011691706255078316,-0.00012475252151489258,3.85906115424484,-0.0009977519512176514
1745973869045968600,13.03396875,-0.3044642507642009,-0.004687695298343897,-0.14644359265018234,-0.007203924469649792,0.02020071626163763,0.9685609705057643,-0.021183001921117505,left,0.0007327795028686523,-0.4044516649826757,-2.702665844042599,-8.60079244749248,-0.2000897238316246,0.003356405533850193,-0.0006406307220458984,3.85906115424484,-0.0010797381401062012
1745973869085968400,13.073968505859375,-0.3049944104426315,-0.005614229943603277,-0.14667470582769243,-0.008741329424083233,0.02007512697985069,0.9685560821763642,-0.021503141078466643,left,0.004647493362426758,-0.40413894997225985,-2.70758751835376,-8.600508954375982,-0.19995651346333954,-0.003032719250768423,-0.0018014907836914062,3.8562417129099367,-0.0008058547973632812
1745973869125968400,13.113968505859376,-0.30568927629423637,-0.004589495249092579,-0.14695880408547046,-0.004653265234082937,0.019929795379120513,0.9684879810605698,-0.021981444428844112,left,0.0008249878883361816,-0.40436122929966767,-2.7133050192177293,-8.59780787872374,-0.20009224385513688,-0.01902175508439541,-0.002209603786468506,3.858246038469672,0.000739365816116333
