time,seconds_elapsed,roll,rotationRateZ,quaternionY,rotationRateY,quaternionZ,quaternionW,yaw,devicelocation,accelerationZ,pitch,gravityX,gravityZ,quaternionX,rotationRateX,accelerationX,gravityY,accelerationY
1745973724718907600,0.52090771484375,-0.2906990715307949,-0.2340039759874344,-0.1380783534820249,0.029061924666166306,-4.872093464007389e-17,0.9745752686848789,-0.051919306490796464,left,-0.013900399208068848,-0.3511115862094487,-2.6393179919868706,-8.822007094731926,-0.17645727333678926,0.2025626003742218,0.011763572692871094,3.372917221201956,-0.05380207300186157
1745973724758907600,0.56090771484375,-0.2890071400274041,-0.16720415651798248,-0.13755841512079992,0.029866985976696014,-0.003750443277287988,0.976689382328948,-0.055616839363101134,left,-0.00548940896987915,-0.32655317939863565,-2.6472017309740186,-8.903189001902938,-0.16474638078120313,0.14229705929756165,0.012855082750320435,3.145780198176205,-0.037399500608444214
1745973724798907400,0.600907470703125,-0.2843348054666072,-0.12334334850311279,-0.13551743286513418,0.02133123204112053,-0.0056598309633694895,0.9780310963204076,-0.05676559334281825,left,-0.0018451809883117676,-0.3132009033930634,-2.6171245726183057,-8.954981148460506,-0.15829732249949235,0.10637296736240387,0.005056500434875488,3.0214822028562427,-0.03466254472732544
1745973724838907400,0.640907470703125,-0.27966614138316653,-0.0794825479388237,-0.1334695144950994,0.01279547531157732,-0.007568921178791145,0.9793227993862764,-0.05797477554540182,left,0.0016247034072875977,-0.2998538924048554,-2.586190505172312,-9.005063568490742,-0.15184016048993418,0.0704488605260849,-0.0028294920921325684,2.8966946704536674,-0.03187572956085205
1745973724878907600,0.68090771484375,-0.27532096758966407,-0.029940366744995117,-0.13145431312173683,0.040312014520168304,-0.00965522818197381,0.9803651044327959,-0.06001501415648439,left,-0.004001736640930176,-0.289040917885102,-2.555403444981575,-9.045830463165045,-0.14666551300388236,-0.010700654238462448,-0.011765152215957642,2.7952196245774625,-0.015902996063232422
1745973724918907600,0.72090771484375,-0.275980610434586,-0.021055063232779503,-0.13174022569731775,0.022779913619160652,-0.010555030554151475,0.9805170852190647,-0.06152706234241319,left,0.005138874053955078,-0.28609245217821366,-2.5636045793548226,-9.052032824936509,-0.1453247048351355,-0.03599376231431961,-0.02097630500793457,2.7674925364792347,-0.005380481481552124
1745973724958907600,0.76090771484375,-0.27705307772591753,-0.007695318199694157,-0.13220582096780115,0.015600033104419708,-0.011180311466077867,0.9805239952188292,-0.06278363142752076,left,0.001850724220275879,-0.2848557041073339,-2.574245508095622,-9.052563570812344,-0.14480786754363684,-0.046641599386930466,-0.017695724964141846,2.7558549979165194,-0.0022213757038116455
1745973724998907600,0.80090771484375,-0.2781234482736038,0.00566442683339119,-0.13267127582703614,0.008420152589678764,-0.011805575525416714,0.9805299350716997,-0.0640383306204575,left,-0.0014391541481018066,-0.28361757557986356,-2.584868316657841,-9.05307678103149,-0.1442908751518867,-0.05728943645954132,-0.01441696286201477,2.7442002159580587,0.000939488410949707
1745973725038907600,0.84090771484375,-0.2810817556768309,0.02114012837409973,-0.13399890630424807,0.043619416654109955,-0.012114247961049504,0.9802402452320564,-0.06528657275549911,left,-0.01666581630706787,-0.28487108274756273,-2.6106825568720695,-9.042079001677036,-0.1450054337971992,-0.050605032593011856,-0.0016968846321105957,2.755999667084217,0.006156057119369507
1745973725078907400,0.880907470703125,-0.2816739573038039,0.07484864443540573,-0.13422785590689362,0.0004480704665184021,-0.011195161464445822,0.9798464729064771,-0.06426622286906274,left,0.02770698070526123,-0.2901158446296787,-2.6119828258156774,-9.026521951583028,-0.1475071062791641,-0.09837745875120163,0.0002904236316680908,2.8053222086578606,0.019480019807815552
1745973725118907600,0.92090771484375,-0.2827506913493057,0.06323937326669693,-0.13475410913110544,-0.041044607758522034,-0.01022275788803001,0.9795215502116996,-0.0629892386992675,left,0.021736085414886475,-0.2938331487212416,-2.6187729243472218,-9.013627398696542,-0.1492454779822969,-0.07525680959224701,-0.0011855065822601318,2.8402336553022263,0.014471083879470825
1745973725158907600,0.96090771484375,-0.285405131738703,0.06404990702867508,-0.13607526935789574,-0.08489546179771423,-0.009155531270037508,0.9791336946885391,-0.061664365775643486,left,0.0198439359664917,-0.29687091631309226,-2.640248550835252,-8.998324031102657,-0.15065415547503902,-0.039790961891412735,-0.006818950176239014,2.86873406586051,0.014298200607299805
1745973725198907600,1.00090771484375,-0.2880579463484022,0.06486044079065323,-0.1373957688366435,-0.12874630093574524,-0.008088302455876573,0.978741074894186,-0.06034680585819003,left,0.017937660217285156,-0.2999121198127108,-2.6616192556440827,-8.982882131820917,-0.15206210052639108,-0.004325121641159058,-0.012463122606277466,2.89724032163769,0.014124840497970581
1745973725238907600,1.04090771484375,-0.2945652638890931,0.0779602900147438,-0.1409536764992374,-0.05903558433055878,-0.004783678306483251,0.978181437916468,-0.05486568212945306,left,-0.0142173171043396,-0.3016388832937314,-2.7185604555279017,-8.96057093129158,-0.1525453441554563,0.038098640739917755,-0.003542006015777588,2.9134137500643726,0.007431596517562866
1745973725278907600,1.08090771484375,-0.2951200221683019,0.06814470142126083,-0.14139855793405814,-0.041177719831466675,-0.003517234373442615,0.9781121832422456,-0.0524367995131453,left,0.0013533234596252441,-0.30212455817542194,-2.7231191417455674,-8.957706774032115,-0.15261228465541682,0.026476657018065453,-0.006979137659072876,2.9179613303661345,0.003221839666366577
1745973725318907400,1.120907470703125,-0.29548732208244277,0.06134059652686119,-0.14172510003229308,-0.0339067280292511,-0.0024608206391023867,0.978061351191709,-0.05039260672766185,left,0.0016307234764099121,-0.3025090116051896,-2.7260823754653334,-8.955631721323728,-0.15265593720335613,0.007038066163659096,-0.0056535303592681885,2.9215605239018796,0.0037131905555725098
1745973725358907600,1.16090771484375,-0.29585376103328964,0.05453648790717125,-0.1420514476797294,-0.026635736227035522,-0.0014043556135529718,0.9780092529675701,-0.0483482044521445,left,0.0019078850746154785,-0.30289413528139175,-2.72903538005203,-8.95355549957156,-0.15269938335931302,-0.012400524690747261,-0.004329055547714233,2.9251655626565216,0.0042040348052978516
1745973725398907600,1.20090771484375,-0.29662109408825305,0.036463383585214615,-0.14256511143073644,0.0009567011147737503,0.000012225812199807371,0.9777978350707605,-0.045900614044421306,left,-0.0038704276084899902,-0.3050509562396419,-2.7340546695187684,-8.945404341819883,-0.15357893142757062,-0.018061446025967598,-0.003545314073562622,2.9453470576807854,-0.0017237961292266846
1745973725438907600,1.24090771484375,-0.29625502950704197,0.03253821283578873,-0.14242607282491854,0.00594061054289341,0.0004172467331615371,0.977763068612871,-0.04514084841332492,left,-0.002179265022277832,-0.3058775314751026,-2.7300682302311063,-8.944073385477065,-0.15392851613984376,-0.01900680549442768,-0.003146559000015259,2.9530776519328352,-0.000412672758102417
1745973725478907600,1.28090771484375,-0.29588815851485845,0.02861304208636284,-0.14228698210298985,0.01092451997101307,0.0008222998944906934,0.97772792186325,-0.044380495892471554,left,-0.000488579273223877,-0.30670381232985106,-2.726074192158878,-8.942737168437242,-0.1542780475339027,-0.019952164962887764,-0.002748548984527588,2.9608035700097677,0.0008989572525024414
1745973725518907600,1.32090771484375,-0.2944093685356099,0.023231375962495804,-0.1416616874483991,0.02252630516886711,0.001371367165852337,0.9778168930391516,-0.04305552848854454,left,0.004351556301116943,-0.30691091805318066,-2.7126687671408054,-8.94617181906104,-0.15428594604959717,0.01531200110912323,0.0015901625156402588,2.9627397987693547,-0.007219076156616211
1745973725558907400,1.360907470703125,-0.29424191711097825,0.020741265267133713,-0.14166541779446737,-0.00188351608812809,0.001714493647554026,0.9778935711333345,-0.04219303596456881,left,0.0041724443435668945,-0.30602398215928694,-2.7119316850379107,-8.949137098607421,-0.15379177234988645,0.03276871144771576,-0.0003013908863067627,2.954447186720371,-0.005602926015853882
1745973725598907600,1.40090771484375,-0.29407537648365834,0.01825115643441677,-0.14166910811462843,-0.026293335482478142,0.002057570302854148,0.9779699553990633,-0.04133104886843945,left,0.00399249792098999,-0.305136940701292,-2.7111998636320234,-8.952093025803565,-0.15329755423931865,0.05022541806101799,-0.0021924078464508057,2.9461513598009943,-0.003986477851867676
1745973725638907600,1.44090771484375,-0.2951137112077059,0.033995334059000015,-0.14237015193384642,-0.02434219792485237,0.0030192789921051942,0.9780189019707491,-0.039268602770045596,left,-0.0033963918685913086,-0.3034329013446867,-2.721949805705249,-8.954063449093699,-0.1523172628855397,0.01550848875194788,-0.0013872385025024414,2.930207940737903,0.002808809280395508
1745973725678907600,1.48090771484375,-0.2953273643507684,0.03583677113056183,-0.14251155926823184,-0.018527131527662277,0.0032875832167749437,0.9779975256495939,-0.03876417665229438,left,-0.0026330947875976562,-0.3035052466488507,-2.7238012787908312,-8.953279020717739,-0.152316355259683,0.00412110798060894,-0.0011033117771148682,2.9308851093471047,0.0029654502868652344
1745973725718907600,1.52090771484375,-0.29554101677697814,0.03767820820212364,-0.1426529564358542,-0.012712066061794758,0.003555887441444733,0.9779761493284386,-0.0382597560523758,left,-0.0018699169158935547,-0.30357773021971846,-2.7256521673545238,-8.952493423298002,-0.15231543669998587,-0.0072662727907299995,-0.0008194148540496826,2.931563447000086,0.00312197208404541
1745973725758907600,1.56090771484375,-0.29497188230085625,0.03593823313713074,-0.1425399856725707,-0.00910103414207697,0.0048830835187244825,0.9778987326466494,-0.035688375102855885,left,0.004640042781829834,-0.3051073194536927,-2.719249899096787,-8.949742663285136,-0.1528805900457486,0.0009881621226668358,0.00003331899642944336,2.945874296425283,-0.0018340647220611572
1745973725798907400,1.600907470703125,-0.2951102959436551,0.048721034079790115,-0.14288357609242847,-0.022791936993598938,0.006561298424885272,0.977916086121292,-0.03220153285882578,left,0.0017063617706298828,-0.3046032336071074,-2.720920170396566,-8.950785450336337,-0.15238510636655841,0.036215584725141525,-0.0017820894718170166,2.9411586660802365,0.0018214285373687744
1745973725838907400,1.640907470703125,-0.2952526346703803,0.05596008151769638,-0.1430900417138286,-0.017053546383976936,0.007338651347788924,0.9779429853799904,-0.030546265332481757,left,-0.002503335475921631,-0.30402302635117423,-2.7226901026785373,-8.95202931291759,-0.15198277266534269,0.032906897366046906,-0.0022341012954711914,2.935730211290717,0.004300206899642944
1745973725878907600,1.68090771484375,-0.29478992537726406,0.0578579418361187,-0.1430113365807184,0.003643052652478218,0.00826952048450691,0.9779620852960009,-0.02858351351365149,left,-0.0007634758949279785,-0.30410816168353877,-2.7184751153320073,-8.953048719093204,-0.15188580045723835,0.01003294251859188,-0.000933229923248291,2.9365269146263597,0.0023118257522583008
1745973725918907600,1.72090771484375,-0.2926474810038136,0.0394497811794281,-0.14220038888773726,0.02417558990418911,0.009912666481103546,0.9779862561970352,-0.02511826105965704,left,0.003264486789703369,-0.30563106944046947,-2.697994052839279,-8.954560292699933,-0.15239267785741653,-0.010209799744188786,0.003735840320587158,2.950772882121801,-0.0012508034706115723
1745973725958907600,1.76090771484375,-0.2919149160666183,0.03104841150343418,-0.14190034147041253,0.021295426413416862,0.01033265508643581,0.9779919112995856,-0.024228987193190724,left,-0.002462327480316162,-0.30619356877800125,-2.690955532504618,-8.954943154537677,-0.15260812740975416,-0.013448357582092285,0.0036261379718780518,2.956032994607091,-0.0004576146602630615
1745973725998907600,1.80090771484375,-0.29134984511385076,0.019503314048051834,-0.14165434670911692,0.007313253358006477,0.010604018499418614,0.977979519828495,-0.023684563593244525,left,0.0037567615509033203,-0.3068579956413962,-2.6853300938382745,-8.954579581922292,-0.15289721443673274,-0.017723223194479942,0.002673506736755371,2.9622450009897348,0.00016933679580688477
1745973726038907600,1.84090771484375,-0.2907841945881652,0.00795821938663721,-0.14140830111400426,-0.006668918766081333,0.010875416351023195,0.9779668323306959,-0.02313954487117611,left,0.009975314140319824,-0.3075220689335858,-2.6796999789968132,-8.95421016408801,-0.1531862467945086,-0.02199808694422245,0.0017203986644744873,2.9684526234582065,0.0007967352867126465
1745973726078907400,1.880907470703125,-0.29222382605223557,0.02888452634215355,-0.14213458000537485,-0.039206042885780334,0.011482305398892587,0.9777122835456388,-0.02241778171762424,left,0.0072705745697021484,-0.30949700225468557,-2.690893865445256,-8.944711683380604,-0.15409211687042504,-0.021144280210137367,-0.00222700834274292,2.986905687254667,0.00874057412147522
1745973726118907600,1.92090771484375,-0.2931476137702125,0.04051399230957031,-0.14265857579181887,-0.04057580605149269,0.012167948591211125,0.9775739845580341,-0.02129095498217482,left,0.005093276500701904,-0.31036950132719937,-2.6984017568573355,-8.939723958095907,-0.15443269996197662,-0.008096477948129177,-0.004341155290603638,2.9950542146578427,0.0034471452236175537
1745973726158907600,1.96090771484375,-0.29419804477297956,0.03727997466921806,-0.14326392961755985,-0.04659891873598099,0.012891377700196166,0.9774651402102469,-0.020027930339037943,left,0.0036787986755371094,-0.3107115136492622,-2.7074934103295205,-8.935903523024916,-0.15450291075428013,0.007396982051432133,-0.005025595426559448,2.9982477500021454,0.0014676153659820557
1745973726198907600,2.00090771484375,-0.2952480263065294,0.034045953303575516,-0.1438691309418491,-0.052622031420469284,0.013614864695153259,0.9773552824839269,-0.018764990536779432,left,0.0022631287574768066,-0.31105471876231466,-2.716574834668636,-8.93207081299424,-0.15457295753897488,0.022890441119670868,-0.005711078643798828,3.0014520990014075,-0.0005130171775817871
1745973726238907600,2.04090771484375,-0.2974160303082021,0.041211944073438644,-0.1451232152988401,-0.04003767669200897,0.01506115138701766,0.9771593217084331,-0.01618919478110117,left,-0.0009972453117370605,-0.31132860814087737,-2.7356922075927255,-8.925373945704102,-0.15450510107278753,0.0009754844941198826,-0.006099492311477661,3.0040090900078416,-0.0008754730224609375
1745973726278907600,2.08090771484375,-0.2978917696948734,0.03770279511809349,-0.14539218770702944,-0.030493441969156265,0.015350063161748626,0.9771117316277317,-0.015691620877634257,left,-0.0028969645500183105,-0.31145133673422903,-2.739830038049817,-8.923719164234399,-0.15452527232220165,-0.005711759906262159,-0.005471229553222656,3.005154752911627,-0.0010824203491210938
1745973726318907400,2.120907470703125,-0.2983673702157568,0.03419364616274834,-0.14566111944816484,-0.020949209108948708,0.01563900937510122,0.9770638455203218,-0.015194005766217775,left,-0.004796922206878662,-0.3115742159919322,-2.7439652381584048,-8.922062044677137,-0.1545453998362535,-0.012399004772305489,-0.004843235015869141,3.006301877120137,-0.0012895166873931885
1745973726358907600,2.16090771484375,-0.29995486408225347,-0.013132059946656227,-0.14642456099666246,-0.006767948158085346,0.01589322220659098,0.9768546292724289,-0.015109558661089232,left,-0.0061460137367248535,-0.31278825131482996,-2.7570450844839214,-8.914201394304632,-0.15511953737337644,-0.027145490050315857,-0.0008262991905212402,3.0176319571688768,-0.003953605890274048
1745973726398907600,2.20090771484375,-0.30007534588943785,-0.025846701115369797,-0.14615699775471183,0.038495663553476334,0.01437658429545727,0.9766439255973112,-0.018689280825911588,left,-0.00039899349212646484,-0.31577288986449004,-2.755444371289015,-8.905225476166606,-0.15683748942510845,-0.055612966418266296,0.006352066993713379,3.0454677663385867,0.0042400360107421875
1745973726438907600,2.24090771484375,-0.2990292524720392,0.000006498768925666809,-0.14555904971649122,0.005725029855966568,0.013924982383829795,0.9766514905950654,-0.0195943470681128,left,0.016966819763183594,-0.31674770287997384,-2.74525147857666,-8.905261716523766,-0.15738669082259474,-0.001737106591463089,-0.0009833872318267822,3.05455328233093,0.0020061731338500977
1745973726478907600,2.28090771484375,-0.29917811688358065,0.032914645969867706,-0.14571956166297254,-0.024723339825868607,0.014346253303098454,0.9766933708633263,-0.018638162164549082,left,0.007061898708343506,-0.31597560759767296,-2.747271293966472,-8.907103544998169,-0.1569391568879442,0.03340863063931465,0.00012284517288208008,3.0473572333469985,0.00969889760017395
1745973726518907600,2.32090771484375,-0.29936645617123536,0.06097275763750076,-0.1459876089316029,-0.016863467171788216,0.015478753230493835,0.9766532866012688,-0.01636811744380967,left,0.0032353997230529785,-0.3160992724191282,-2.748837812630832,-8.906226177641749,-0.1568325525125293,-0.005560051649808884,-0.0029220283031463623,3.0485099105134603,0.013892054557800293
1745973726558907400,2.360907470703125,-0.29969056089941365,0.05372428521513939,-0.14627496320454683,-0.01683185249567032,0.01666512994043083,0.9764497713986706,-0.014310837011290132,left,0.00009441375732421875,-0.3182048063264059,-2.7498230242758988,-8.899182104349135,-0.15770734948065462,-0.04764915630221367,-0.003547191619873047,3.068128510957956,0.005342692136764526
1745973726598907600,2.40090771484375,-0.29969078203697735,0.01317325234413147,-0.14629497890887133,0.012983100488781929,0.01726061684010091,0.9762235994181017,-0.013517956598244698,left,-0.0004925131797790527,-0.3210121492634611,-2.747271293966472,-8.890916964828968,-0.15901934981136348,-0.05286574736237526,0.00013720989227294922,3.094264822733402,-0.0018615424633026123
1745973726638907600,2.44090771484375,-0.3000663332054088,-0.02581562101840973,-0.14637988683551753,-0.008265279233455658,0.016972430386825055,0.9760711157504929,-0.014426536215479383,left,0.0070146918296813965,-0.3226994448974723,-2.749062853558361,-8.884884698927403,-0.15990585633107451,-0.025185994803905487,-0.002512305974960327,3.1099618658199906,-0.0040708184242248535
1745973726678907600,2.48090771484375,-0.30028288501428485,-0.027659213170409203,-0.1464012312765689,0.01865995302796364,0.01638574066713065,0.9761060259038676,-0.015584500790429542,left,-0.005765378475189209,-0.3221770323915408,-2.7514669920906423,-8.88583980769515,-0.15973395118125977,0.02297792211174965,-0.0028703808784484863,3.105102735351026,-0.0027521252632141113
1745973726718907600,2.52090771484375,-0.30005895781943326,-0.02359362691640854,-0.14625212396604997,0.006080275401473045,0.01581370652633536,0.9762712112460126,-0.016444253925094392,left,0.003864884376525879,-0.3203692231418043,-2.751131768786907,-8.891803684535622,-0.15891662016707656,0.04001103341579437,-0.006104141473770142,3.0882813644096254,0.001794278621673584
1745973726758907600,2.56090771484375,-0.3000278344868585,-0.003136606886982918,-0.14624736605527747,0.005540420301258564,0.015602387490316373,0.9763986119949988,-0.01663064445539327,left,-0.0013955235481262207,-0.3187856568538772,-2.7522970131739974,-8.896550586801768,-0.15815775007125268,0.0279983039945364,-0.004854708909988403,3.0735382610470054,0.00636717677116394
1745973726798907400,2.600907470703125,-0.2996276020155839,0.00827813521027565,-0.1461132133187331,0.014666450209915638,0.0157548771934624,0.9765114625825541,-0.016081336559201354,left,0.0021533966064453125,-0.31765476018446326,-2.7497604804337024,-8.900966649678349,-0.15756882187568735,0.03633531183004379,-0.0036461949348449707,3.0630045920729634,-0.002539128065109253
1745973726838907400,2.640907470703125,-0.2988897247019189,-0.006876642815768719,-0.14582279215009153,0.007226443383842707,0.0159024927317611,0.9766637345498107,-0.015457423899124557,left,0.0029684901237487793,-0.31632037262601,-2.7443928159207105,-8.906891363552212,-0.15687779922873865,0.04080011695623398,-0.000974118709564209,3.0505706424355505,-0.006713896989822388
1745973726878907600,2.68090771484375,-0.2982222428942224,-0.010416023433208466,-0.14552346969024688,0.015362545847892761,0.015796551878751935,0.9768111954597192,-0.015371725502065156,left,0.002253115177154541,-0.31502983324231093,-2.7396014899909495,-8.912476470208167,-0.1562468262905976,0.019238952547311783,-0.00012055039405822754,3.0385403051629662,-0.002492457628250122
1745973726918907600,2.72090771484375,-0.29805502013678203,-0.003063141368329525,-0.1454182797504688,0.010507787577807903,0.015562184489531622,0.9768599344516172,-0.015758927293070917,left,-0.0023593902587890625,-0.3145944636792966,-2.7384993739679455,-8.914198471695185,-0.15606373050435174,-0.010534163564443588,0.0011893808841705322,3.034480508378148,0.002120286226272583
1745973726958907600,2.76090771484375,-0.29805502013678203,0.004048970527946949,-0.1454182797504688,-0.003426920622587204,0.015562184489531622,0.9768599344516172,-0.015758927293070917,left,0.009305775165557861,-0.3145944636792966,-2.7384993739679455,-8.914198471695185,-0.15606373050435174,-0.01643042080104351,-0.0007919371128082275,3.034480508378148,0.0016377270221710205
1745973726998907600,2.80090771484375,-0.2981390256596124,0.013203786686062813,-0.14543194655420866,-0.008406420238316059,0.015639887047006657,0.9767451683847199,-0.015827788174184516,left,0.0005766153335571289,-0.3160113553730011,-2.7379823643565175,-8.909849628835916,-0.1567598372234578,-0.02928035706281662,0.0003053247928619385,3.04769041082412,0.004035860300064087
1745973727038907600,2.84090771484375,-0.2981243660593802,0.00917834136635065,-0.14541512862303088,-0.002359624020755291,0.015800764319022925,0.9766445910468932,-0.015692961808414795,left,0.0017853379249572754,-0.3173122877473293,-2.7366850180223583,-8.90609232212901,-0.15738520353702412,-0.025393866002559662,-0.001309037208557129,3.0598139793381094,0.00008943676948547363
1745973727078907400,2.880907470703125,-0.29840328216527756,0.005089832004159689,-0.14553806209992595,-0.010503901168704033,0.015938643097433886,0.9765335252874,-0.015631606509127684,left,0.0050702691078186035,-0.318474057094397,-2.738122065088153,-8.901924681055545,-0.15794560526908855,-0.027323856949806213,-0.004974693059921265,3.0706361098647115,0.0022941529750823975
1745973727118907600,2.92090771484375,-0.29875775696896295,0.00413134740665555,-0.1456686961959244,0.0023413673043251038,0.015959189044396412,0.9763934357727683,-0.015872897821462822,left,0.003317594528198242,-0.31996368789483876,-2.739927945466339,-8.896572214111686,-0.15868735480911553,-0.04391759634017944,-0.005218803882598877,3.0845065220460293,0.004461109638214111
1745973727158907600,2.96090771484375,-0.2985142308332889,-0.004838004242628813,-0.14547242584596506,0.025015870109200478,0.015762623601819337,0.976279922076334,-0.016499592155733555,left,-0.0004297494888305664,-0.3217020055013095,-2.7361802833706137,-8.892101206177472,-0.15958315176104337,-0.04610300436615944,-0.003826349973678589,3.1006837498649955,0.004173010587692261
1745973727198907600,3.00090771484375,-0.29765350879144703,-0.015938539057970047,-0.14494696252477907,0.03546484559774399,0.015320402191648966,0.976226867543406,-0.017501685306378304,left,-0.00108414888381958,-0.32326763217929055,-2.7270985667705534,-8.889801112541555,-0.1604265088398749,-0.035955339670181274,-0.0021418631076812744,3.1152456514418123,0.0029610395431518555
1745973727238907600,3.04090771484375,-0.2966056626440354,-0.027508297935128212,-0.1443115312211383,0.04066529497504234,0.01465337124999051,0.9762349931797002,-0.018844236184916822,left,-0.0010499358177185059,-0.3242503857645042,-2.7168858003139493,-8.88972161756456,-0.16101093745179654,-0.0280357263982296,0.0028667151927948,3.124382605360448,0.003226250410079956
1745973727278907600,3.08090771484375,-0.29576176202153487,-0.032019808888435364,-0.1437799075179677,0.021041326224803925,0.013921358802337318,0.9762782478334847,-0.020257250408534874,left,0.006682276725769043,-0.3245999181284994,-2.7090643129080534,-8.890966064667701,-0.16128926347197856,-0.006865158677101135,0.003429800271987915,3.1276316702842712,0.0018723011016845703
1745973727318907400,3.120907470703125,-0.29569229666059926,-0.030450046062469482,-0.14363249427089397,0.010642027482390404,0.013177486235837947,0.9763161622865407,-0.021725973276998677,left,-0.000055849552154541016,-0.3243100549390191,-2.708710969425738,-8.892021126678586,-0.1612538359507052,0.005071963183581829,0.0054156482219696045,3.1249373166337606,0.0037612617015838623
1745973727358907600,3.16090771484375,-0.29585197191213986,-0.015044096857309341,-0.1436437727373497,-0.015522677451372147,0.012728070095792174,0.9763364029390839,-0.022623521749966853,left,0.009271502494812012,-0.3239820544719579,-2.7104291715204716,-8.892568239167332,-0.16115723371820476,0.0064940061420202255,0.00007173418998718262,3.1218881581962106,0.003782808780670166
1745973727398907600,3.20090771484375,-0.29585197191213986,0.013852113857865334,-0.1436437727373497,0.008929256349802017,0.012728070095792174,0.9763364029390839,-0.022623521749966853,left,-0.009910106658935547,-0.3239820544719579,-2.7104291715204716,-8.892568239167332,-0.16115723371820476,0.012814899906516075,0.0011492371559143066,3.1218881581962106,0.004292100667953491
1745973727438907600,3.24090771484375,-0.2948826825085958,0.019447308033704758,-0.14327957554276363,0.01663588359951973,0.013261422305643596,0.9764193334176252,-0.02132937827844883,left,0.004585444927215576,-0.3237045829369734,-2.7020602793648836,-8.89601984092593,-0.16093532905814834,0.009075088426470757,-0.0001475811004638672,3.1193086630970237,0.002466529607772827
1745973727478907600,3.28090771484375,-0.29427502648204146,0.013202521950006485,-0.14303483259770253,0.014983351342380047,0.013591220226218965,0.9764295337410202,-0.02060795359159502,left,-0.00015872716903686523,-0.3240665434794627,-2.6963264118880033,-8.896579228374362,-0.16106437250903222,-0.011613862589001656,0.0010648071765899658,3.1226737556159496,0.0031647980213165283
1745973727518907600,3.32090771484375,-0.29427502648204146,0.00144277885556221,-0.14303483259770253,0.012012258172035217,0.013591220226218965,0.9764295337410202,-0.02060795359159502,left,0.005630910396575928,-0.3240665434794627,-2.6963264118880033,-8.896579228374362,-0.16106437250903222,-0.005183287430554628,0.0012602806091308594,3.1226737556159496,0.0025500059127807617
1745973727558907400,3.360907470703125,-0.29427502648204146,0.007196867372840643,-0.14303483259770253,-0.009621763601899147,0.013591220226218965,0.9764295337410202,-0.02060795359159502,left,0.0057032108306884766,-0.3240665434794627,-2.6963264118880033,-8.896579228374362,-0.16106437250903222,-0.007223302964121103,-0.0010474324226379395,3.1226737556159496,0.010102391242980957
1745973727598907600,3.40090771484375,-0.2941119389342688,0.02263227477669716,-0.14299494541463487,-0.003326352220028639,0.014017063379405415,0.9763460760113696,-0.019878987256799204,left,-0.0008497238159179688,-0.32520316701312707,-2.693844824205339,-8.89361628691554,-0.16156800337461732,0.0022248257882893085,-0.003561049699783325,3.133237819728255,0.00676921010017395
1745973727638907600,3.44090771484375,-0.2942386781537063,0.027281848713755608,-0.1431520304582745,-0.01805415190756321,0.014649630641040023,0.9763065539760803,-0.01864483627864309,left,0.0038990378379821777,-0.32547490022756326,-2.694724821910262,-8.892459518095851,-0.16161140133199037,0.018070785328745842,-0.0028626322746276855,3.135762954291701,0.0008879303932189941
1745973727678907600,3.48090771484375,-0.2940492479130851,0.018373221158981323,-0.1431594281593315,0.0018329527229070663,0.015240513845748734,0.9763095638148557,-0.017405433781603433,left,0.0019638538360595703,-0.3254908666029894,-2.693025909037888,-8.892921874910593,-0.16153189657183228,0.00615569856017828,-0.0028054118156433105,3.1359111305907366,-0.0010228455066680908
1745973727718907600,3.52090771484375,-0.2941272704006657,-0.011422183364629745,-0.14319360007975776,0.005717565305531025,0.015282227948508576,0.9762762644570273,-0.017384711302643293,left,0.0017061829566955566,-0.32583744840984596,-2.69340438696146,-8.891670998066664,-0.16169892652803605,-0.011925547383725643,0.0011369287967681885,3.13913126168102,-0.0005950033664703369
1745973727758907600,3.56090771484375,-0.29436512086182465,-0.012467797845602036,-0.14324434913012368,-0.00985209085047245,0.014947818888657262,0.9762460735414199,-0.018144810447001922,left,0.003223896026611328,-0.32607543072762424,-2.6953023295372724,-8.89031490728259,-0.1618676689784791,-0.004769779741764069,0.000632166862487793,3.1413422157287596,0.002997487783432007
1745973727798907400,3.600907470703125,-0.2952679892803042,0.0009480882436037064,-0.14366841609849443,-0.030303796753287315,0.014864143705413096,0.976209468116151,-0.018416715607858836,left,0.004600167274475098,-0.3257476628913033,-2.703627674812078,-8.88886237038672,-0.1617205190961514,0.013380758464336395,0.0000027120113372802734,3.1382971489444373,0.0022923946380615234
1745973727838907400,3.640907470703125,-0.2964272462186146,0.020853683352470398,-0.14429886745893666,-0.02643599919974804,0.015260589377046004,0.9761611386537604,-0.017719794696090415,left,-0.0027638673782348633,-0.32523882465368587,-2.7143963215857743,-8.887248505449294,-0.16141337485122262,0.016193313524127007,0.00019872188568115234,3.1335692436397076,0.0047137439250946045
1745973727878907600,3.68090771484375,-0.2965206487714446,0.025771334767341614,-0.14444242623347636,-0.0005887728184461594,0.015837765956738935,0.9761559051802423,-0.016532318632280073,left,-0.002404510974884033,-0.32510368893663255,-2.715349969048798,-8.887399312096834,-0.16126099974598196,0.009792950935661793,-0.0015094578266143799,3.132313398359716,0.0004169344902038574
1745973727918907600,3.72090771484375,-0.29623056080581406,0.008296510204672813,-0.1443678448673281,0.002658246550709009,0.016206460618625254,0.9761767272758581,-0.015716891342254936,left,0.002254188060760498,-0.32502316564046924,-2.7128455850124356,-8.888428070622682,-0.16116515910010307,0.01220875047147274,-0.0012825429439544678,3.131565210340917,-0.004724293947219849
1745973727958907600,3.76090771484375,-0.2958923904245455,-0.014985455200076103,-0.14421536864108228,0.007096198853105307,0.016150324758042213,0.9762503295027849,-0.015682411809267875,left,0.0020661354064941406,-0.32440002783473515,-2.7104081287324426,-8.8912098102957,-0.1608613614733833,0.011949097737669945,-0.0013917386531829834,3.1257734751969575,-0.0033583641052246094
1745973727998907600,3.80090771484375,-0.2957952508299954,-0.023810993880033493,-0.1441139354508988,0.015730084851384163,0.015726918681287873,0.9763043794708666,-0.01645614316091903,left,-0.0009484291076660156,-0.32388325444436045,-2.7100147455006836,-8.893017151978611,-0.16066575780104217,-0.0008459948003292084,0.000015616416931152344,3.1209695820465684,-0.0004661381244659424
1745973728038907600,3.84090771484375,-0.2954203658361181,-0.017600852996110916,-0.1438575411723878,0.01588478684425354,0.01523343047647215,0.9763467239586097,-0.017389978113853462,left,0.0010814070701599121,-0.3237809225388282,-2.7067738638833165,-8.894338171449304,-0.1606859498924073,-0.0112456064671278,0.00020167231559753418,3.1200182726711034,0.0011518597602844238
1745973728078907400,3.880907470703125,-0.29527979132792276,-0.02015421912074089,-0.14370576584150144,0.011749012395739555,0.014759029379022627,0.9763449758473841,-0.018375170124044493,left,0.0002707242965698242,-0.32402431010787447,-2.7053023300260306,-8.89399154996872,-0.16087659245121985,-0.011515560559928417,0.0008258521556854248,3.12228095690608,-0.00012406706809997559
1745973728118907600,3.92090771484375,-0.29527979132792276,-0.017126625403761864,-0.14370576584150144,-0.010148929432034492,0.014759029379022627,0.9763449758473841,-0.018375170124044493,left,0.011208832263946533,-0.32402431010787447,-2.7053023300260306,-8.89399154996872,-0.16087659245121985,-0.004673618823289871,0.0004900693893432617,3.12228095690608,-0.0012871921062469482
1745973728158907600,3.96090771484375,-0.29571434789134954,0.00010280124843120575,-0.14383378565736696,0.006918605417013168,0.014251681388379756,0.9763360344470896,-0.019458536995852375,left,-0.009407222270965576,-0.32384124331032327,-2.709333485238254,-8.893361435371636,-0.16086199702703458,0.009033539332449436,0.001289665699005127,3.1205791214242575,0.0007110834121704102
1745973728198907600,4.00090771484375,-0.29571434789134954,0.014535760506987572,-0.14383378565736696,0.005636035930365324,0.014251681388379756,0.9763360344470896,-0.019458536995852375,left,0.006749212741851807,-0.32384124331032327,-2.709333485238254,-8.893361435371636,-0.16086199702703458,0.0020954380743205547,-0.000516355037689209,3.1205791214242575,0.002994924783706665
1745973728238907600,4.04090771484375,-0.29536063148113595,0.018202507868409157,-0.14371077268884994,-0.011566346511244774,0.014578705152038435,0.9763320144986627,-0.018777159596678868,left,0.0008854866027832031,-0.3241526700222607,-2.7059046798333526,-8.893389492422342,-0.16096750891366016,-0.008419455960392952,0.0003122091293334961,3.123474258343875,0.0015307068824768066
1745973728278907600,4.08090771484375,-0.295399079799858,0.016592781990766525,-0.14377253868551126,-0.009917156770825386,0.014942174616145882,0.9762786005742932,-0.018125790455395,left,0.003665328025817871,-0.32473078796463345,-2.705720555438101,-8.891556431776285,-0.16120250221964852,-0.00632809940725565,-0.0005032718181610107,3.128847768075764,0.00037986040115356445
1745973728318907400,4.120907470703125,-0.29587508400557166,0.014009680598974228,-0.1440392868562091,-0.01662193424999714,0.015279812076375672,0.9761982028009851,-0.017592425775302338,left,0.0039000511169433594,-0.3252608408247652,-2.7094685097947715,-8.888679415035247,-0.1614191532082771,-0.007959021255373955,-0.0010245144367218018,3.1337738263010975,0.0016259849071502686
1745973728358907600,4.16090771484375,-0.2963145957115246,0.013131792657077312,-0.1442883952240598,-0.011936701834201813,0.015599036534277943,0.9761279402863562,-0.017076696112305025,left,-0.0004603862762451172,-0.32569661998022564,-2.7129759333938357,-8.886181168478727,-0.16159118484367394,-0.009827852249145508,-0.001852869987487793,3.1378231016919016,0.002681046724319458
1745973728398907600,4.20090771484375,-0.29682007164856394,0.003864279016852379,-0.14453848405162886,-0.019076835364103317,0.015770540732158184,0.9760387643672486,-0.016906188701510175,left,0.0031946301460266113,-0.32634103848065404,-2.716875278919935,-8.8828727745831,-0.1618892844646436,-0.00932097528129816,-0.0027507543563842773,3.1438097748860714,-0.00005891919136047363
1745973728438907600,4.24090771484375,-0.29722219108839276,-0.004787559621036053,-0.1447224247330416,0.0016415826976299286,0.015747657999453216,0.9760020065069376,-0.01703627929172057,left,-0.0004127025604248047,-0.32645026480891975,-2.7203464621618387,-8.881451217347383,-0.16194880413785137,0.0046346671879291534,-0.002431422472000122,3.1448242126256227,-0.0012036561965942383
1745973728478907600,4.28090771484375,-0.29722219108839276,-0.010531047359108925,-0.1447224247330416,-0.008542398922145367,0.015747657999453216,0.9760020065069376,-0.01703627929172057,left,0.0027747154235839844,-0.32645026480891975,-2.7203464621618387,-8.881451217347383,-0.16194880413785137,0.011959986761212349,-0.0014753937721252441,3.1448242126256227,0.0016183257102966309
1745973728518907600,4.32090771484375,-0.2978802371910135,-0.004126111511141062,-0.14503568047085377,-0.0021645743399858475,0.015564683481944452,0.976044218965717,-0.017354095297976564,left,0.0001245737075805664,-0.32535193407922613,-2.7272026116669177,-8.882955776691436,-0.16143090733903012,0.023312635719776154,-0.0017789602279663086,3.134620213997364,0.0007527768611907959
1745973728558907400,4.360907470703125,-0.298305415543813,0.003037473652511835,-0.1452874165042165,-0.01540361251682043,0.015687515533229536,0.9760933366286808,-0.01701469584428056,left,0.0044231414794921875,-0.324309807905978,-2.731937531234324,-8.884913340499997,-0.16089457832708418,0.029855668544769287,-0.003288954496383667,3.124934978546202,-0.0013822317123413086
1745973728598907600,4.40090771484375,-0.29902230148145237,-0.004609677940607071,-0.14567180994797932,-0.014170344918966293,0.015842678219274486,0.9760904693513355,-0.01671581609334068,left,0.0006352663040161133,-0.3236576940878703,-2.738906201203167,-8.884898142930865,-0.16054905155997046,0.006533529609441757,-0.0012225210666656494,3.1188726097673176,-0.002441585063934326
1745973728638907600,4.44090771484375,-0.2999090343949413,-0.023106111213564873,-0.1460652422862746,-0.03286193311214447,0.01569776066550826,0.9760189921541861,-0.01717881134165448,left,0.00997394323348999,-0.32379009327699787,-2.746661637635529,-8.882071395072341,-0.16064041352097272,-0.007290821522474289,-0.005991071462631226,3.1201036128669974,-0.012731343507766724
1745973728678907600,4.48090771484375,-0.30203928465031893,-0.05134003981947899,-0.14695945263425791,-0.033268094062805176,0.015010001929062421,0.9758660968560857,-0.018959422719612245,left,0.00030034780502319336,-0.3239230466726213,-2.7654528473451734,-8.875803566849232,-0.16081934957865715,-0.027301786467432976,-0.002567589282989502,3.12133958440274,-0.007519811391830444
1745973728718907600,4.52090771484375,-0.30390521868666504,-0.05596691742539406,-0.14763399227151122,-0.010865096002817154,0.01385194249679162,0.9756957046784266,-0.021744650871257137,left,-0.001908719539642334,-0.3245945559750933,-2.781381945621967,-8.86862622256577,-0.16133847040905586,-0.049293868243694305,-0.004502058029174805,3.127581693662703,0.0014957189559936523
1745973728758907600,4.56090771484375,-0.3045271729914051,-0.03387345373630524,-0.147707611658066,0.029066354036331177,0.012734997819532419,0.9755724723226202,-0.02432252653074927,left,-0.004990696907043457,-0.32578768647609024,-2.7857763811886307,-8.86332811615765,-0.16210637094222966,-0.054853346198797226,-0.0011549592018127441,3.1386691971272227,0.009666770696640015
1745973728798907400,4.600907470703125,-0.3034470356746474,-0.014565274119377136,-0.14704066434594118,0.05470646545290947,0.012008539516234054,0.9755748965397596,-0.025800761235459928,left,-0.004225313663482666,-0.32687524110325566,-2.7751795838505027,-8.86306917296052,-0.16275214278767988,-0.014708515256643295,0.0007276535034179688,3.148771488946676,0.0024072229862213135
1745973728838907400,4.640907470703125,-0.3017514168355617,-0.01253416109830141,-0.14618973448460734,0.021965987980365753,0.011686018494278168,0.975719195774695,-0.026144278295217448,left,0.010970830917358398,-0.3266498929955566,-2.76035786229372,-8.868439760082959,-0.16267750103399714,0.01991450786590576,0.0013739168643951416,3.146678608320653,-0.003148317337036133
1745973728878907600,4.68090771484375,-0.3010907304418033,-0.009348219260573387,-0.14586668660035515,0.028446394950151443,0.011492088083923756,0.9758262849826124,-0.026319563116624294,left,-0.0105743408203125,-0.32592140019374716,-2.7551772447854277,-8.87244841120243,-0.16233893009813158,0.009181925095617771,0.005215585231781006,3.139911306142807,0.00032025575637817383
1745973728918907600,4.72090771484375,-0.2997518814494011,-0.012286356650292873,-0.14517942149393095,0.022883495315909386,0.011222762444392714,0.9759070930621457,-0.026684689254278665,left,0.010498583316802979,-0.32615573003065507,-2.74307851845175,-8.875425965708494,-0.16248737953651993,-0.016957327723503113,0.0021700263023376465,3.1420883579209447,-0.0028739869594573975
1745973728958907600,4.76090771484375,-0.300444242581397,-0.034713394939899445,-0.1454141290300997,-0.023102877661585808,0.010748816343878444,0.9758258170839897,-0.02784371548100079,left,0.005098462104797363,-0.3266271511297328,-2.748784328877926,-8.872108803984522,-0.16279763679464598,-0.02533925324678421,-0.00128975510597229,3.1464673036575315,-0.003591775894165039
1745973728998907600,4.80090771484375,-0.30154654392828967,-0.0363282784819603,-0.14577056615654704,-0.007051210850477219,0.009959874359551908,0.9756698274732787,-0.029811739692603978,left,0.001568436622619629,-0.3277094425506468,-2.757549234613776,-8.865816425842047,-0.16346283027916794,-0.052516162395477295,-0.0023202598094940186,3.1565178652897474,0.0013547837734222412
1745973729038907600,4.84090771484375,-0.3025462401501393,-0.03033921681344509,-0.14605168072782942,-0.0019371500238776207,0.009126024229415726,0.9754780340393862,-0.03193965375882889,left,-0.0003999471664428711,-0.3293287327884386,-2.764884399807453,-8.858164449784159,-0.1644025568404929,-0.053552865982055664,-0.0042098164558410645,3.171548553422093,0.001498401165008545
1745973729078907400,4.880907470703125,-0.302826291693628,-0.013822410255670547,-0.1460304667939575,0.015738513320684433,0.008482190293649747,0.9753555715893175,-0.033518403957745906,left,-0.0018494129180908203,-0.33069051712146175,-2.7660744863748548,-8.853259142085909,-0.16518021862714188,-0.03851277753710747,-0.002142101526260376,3.184182409545779,0.008047997951507568
1745973729118907600,4.92090771484375,-0.30284301225372606,0.007304251194000244,-0.14597197374226129,0.00234104972332716,0.008308317069037344,0.9752682804257535,-0.03404883851053264,left,0.0028606653213500977,-0.3317916561469143,-2.765175199447572,-8.849860731819271,-0.1657553790997758,-0.020230259746313095,-0.0013092458248138428,3.194394006958604,0.005286365747451782
1745973729158907600,4.96090771484375,-0.30284301225372606,0.012501517310738564,-0.14597197374226129,0.008699835278093815,0.008308317069037344,0.9752682804257535,-0.03404883851053264,left,0.00221860408782959,-0.3317916561469143,-2.765175199447572,-8.849860731819271,-0.1657553790997758,0.004468504339456558,-0.0003040730953216553,3.194394006958604,0.0008303821086883545
1745973729198907600,5.00090771484375,-0.30284301225372606,0.00023072585463523865,-0.14597197374226129,-0.0050436221063137054,0.008308317069037344,0.9752682804257535,-0.03404883851053264,left,0.001900792121887207,-0.3317916561469143,-2.765175199447572,-8.849860731819271,-0.1657553790997758,0.009318748489022255,0.002754122018814087,3.194394006958604,0.0008202791213989258
1745973729238907600,5.04090771484375,-0.30282809610789807,-0.012540468946099281,-0.14600279200293548,-0.010095441713929176,0.008522941552692266,0.9752708185423038,-0.03359966222074438,left,0.0008876323699951172,-0.3317497428076183,-2.7650831372499463,-8.850029658645392,-0.16570223860953864,0.007561543956398964,0.0005584657192230225,3.194005299901962,0.0007110834121704102
1745973729278907600,5.08090771484375,-0.30345638705153977,-0.007646865677088499,-0.1462924135840622,-0.01763838715851307,0.008417418286975722,0.9752500454260917,-0.03387639142445744,left,0.002727210521697998,-0.33145148773133026,-2.7709274793639778,-8.849199637562036,-0.1655744842351132,0.005564908962696791,-0.0005881190299987793,3.19123963458091,0.004575163125991821
1745973729318907400,5.120907470703125,-0.3041828447973421,0.006386424880474806,-0.14666202483357296,-0.018729858100414276,0.008516820227810517,0.9752171805565736,-0.033755404451037335,left,0.0024719834327697754,-0.3311921666238019,-2.7776030116051436,-8.847973895159363,-0.16543620036299492,0.008227132260799408,-0.0012389421463012695,3.1888349115267394,0.003573685884475708
1745973729358907600,5.16090771484375,-0.30476600957579436,0.008183794096112251,-0.14699981175020052,-0.01239650696516037,0.008845406914854729,0.9751857993856542,-0.03315301103621897,left,0.003115832805633545,-0.3310166849110852,-2.782930344107747,-8.846886099922656,-0.16530395624725147,0.014412306249141693,-0.001945793628692627,3.187207602585852,-0.0006151497364044189
1745973729398907600,5.20090771484375,-0.30509748794636077,-0.01053992472589016,-0.14719857817594062,-0.003694530576467514,0.008997637916564875,0.9751982287769129,-0.032822216911864245,left,-0.001411139965057373,-0.33053868722070834,-2.7863199865460393,-8.847415092232822,-0.16504527682648706,0.014369008131325245,-0.0035749077796936035,3.1827740040525794,-0.005637496709823608
1745973729438907600,5.24090771484375,-0.30509748794636077,-0.025131933391094208,-0.14719857817594062,0.025981947779655457,0.008997637916564875,0.9751982287769129,-0.032822216911864245,left,-0.007293105125427246,-0.33053868722070834,-2.7863199865460393,-8.847415092232822,-0.16504527682648706,-0.005256994627416134,-0.00024309754371643066,3.1827740040525794,-0.0014664828777313232
1745973729478907600,5.28090771484375,-0.3040986375058978,-0.02652643248438835,-0.14654845175940345,0.042252879589796066,0.007929952468728513,0.9752889020700126,-0.0348254190990177,left,-0.0037113428115844727,-0.33042805659299224,-2.777586937253177,-8.850529424861072,-0.16514271471764408,-0.02751455083489418,0.0028252005577087402,3.181747875875234,-0.0006139576435089111
1745973729518907600,5.32090771484375,-0.3028640014746209,-0.02547582983970642,-0.14578948608278744,0.037476275116205215,0.007075725684941627,0.9753164146051834,-0.03650206478882837,left,0.0033360719680786133,-0.3312901281293622,-2.7658383395314217,-8.851330804371834,-0.16568989128005762,-0.04790963977575302,0.005536317825317383,3.1897435508042573,0.004179656505584717
1745973729558907400,5.360907470703125,-0.3019759612543532,-0.02625216357409954,-0.14517673136004342,0.029716650024056435,0.0062607714948712,0.9752622904337834,-0.03826307383727757,left,0.006694674491882324,-0.3328410884065303,-2.7565023559093476,-8.849049415436387,-0.16657655761725854,-0.04516265168786049,0.0024243593215942383,3.2041222047686575,-0.0021114349365234375
1745973729598907600,5.40090771484375,-0.3025341806414103,-0.0346534326672554,-0.1452871696411824,-0.012646125629544258,0.005476206196203797,0.9751819502980875,-0.04005470890448916,left,0.0014452338218688965,-0.33340172274509094,-2.760906143826246,-8.845793628510831,-0.16697810905126448,-0.007481086999177933,-0.004962623119354248,3.2093180198460813,0.0014173388481140137
1745973729638907600,5.44090771484375,-0.30261877418533517,-0.013372223824262619,-0.1453210862485411,0.004638673737645149,0.0051824283237218455,0.975277351622279,-0.04047697947115798,left,-0.007318854331970215,-0.3321518819435179,-2.76284763328284,-8.849382008391618,-0.1663997504084307,0.06682784855365753,-0.009748518466949463,3.197733672775328,-0.012228578329086304
1745973729678907600,5.48090771484375,-0.3019938688376024,0.005462693050503731,-0.14521530583042086,-0.015653591603040695,0.005474962949212658,0.9756401483342342,-0.039145017128229376,left,0.012359619140625,-0.3281260161393408,-2.7611235859692096,-8.863325778070092,-0.1643431218308892,0.1329641044139862,-0.014941602945327759,3.160385354372859,-0.00917157530784607
1745973729718907600,5.52090771484375,-0.30263849275012294,0.045119114220142365,-0.14582897624019245,-0.0409570187330246,0.006435508890074157,0.9759257338123143,-0.03661349702114823,left,0.0074530839920043945,-0.3238098424319057,-2.770876041437685,-8.87448254737854,-0.16205318088663975,0.0996171087026596,-0.010604143142700195,3.1202871527403593,0.00799095630645752
1745973729758907600,5.56090771484375,-0.3032207512605371,0.06694329530000687,-0.14639955735327057,-0.022683678194880486,0.007882666197007697,0.9760007202663942,-0.033488387356163406,left,0.001891016960144043,-0.3221634698055959,-2.7775732009887695,-8.877758208048343,-0.16102007959051912,0.017341233789920807,-0.0026844143867492676,3.1049767708837983,0.01237034797668457
1745973729798907400,5.600907470703125,-0.3033626650645365,0.0404636487364769,-0.14660038298208494,-0.00043389201164245605,0.009013419956048221,0.9758532970179576,-0.03144949328223915,left,0.005545377731323242,-0.323803929988893,-2.7773075357899066,-8.872491081300378,-0.16166997664639657,-0.05085952579975128,0.005739003419876099,3.1202322076827285,0.008513092994689941
1745973729838907400,5.640907470703125,-0.30363463859289047,-0.012262195348739624,-0.14663836924622284,0.006687916815280914,0.009101303853146779,0.9755793176770959,-0.031818672213092376,left,0.002629876136779785,-0.3270461498971346,-2.7766812205851075,-8.862035153737663,-0.16327629390468287,-0.09348248690366745,0.009581923484802246,3.15035875813812,0.007626384496688843
1745973729878907600,5.68090771484375,-0.3041127338742435,-0.04142310470342636,-0.14662095390401136,-0.00628656055778265,0.008312852005823193,0.975286966007462,-0.03403800311818314,left,0.010426044464111328,-0.3303985303018599,-2.77773978972733,-8.850580278265475,-0.16507057093612182,-0.07619009912014008,0.002439171075820923,3.1814740273699162,0.008309036493301392
1745973729918907600,5.72090771484375,-0.3054669561972174,-0.0496404729783535,-0.1470423314534001,-0.024601981043815613,0.007329668123026786,0.9750725910761237,-0.03652779174681817,left,0.0007281303405761719,-0.3319547611277968,-2.78823049634248,-8.842077822858094,-0.16600617989902852,-0.028942465782165527,-0.001576453447341919,3.195906165087223,0.009924381971359253
1745973729958907600,5.76090771484375,-0.30704080974206943,-0.04126201570034027,-0.1476282561065413,-0.00793498195707798,0.006408479898302308,0.9749591348425598,-0.03869519777087321,left,-0.0042337775230407715,-0.3320164249934525,-2.802083665128052,-8.837490495067835,-0.1661904764773126,0.00035576149821281433,0.0035316050052642822,3.1964778274953365,0.01120731234550476
1745973729998907600,5.80090771484375,-0.30788558356104717,-0.03779563680291176,-0.1479758457932006,-0.024760745465755463,0.005827030738201256,0.9750058398977934,-0.03982277471865451,left,0.0073722004890441895,-0.3306955218800243,-2.8108251899883148,-8.839136508709192,-0.1656279430814053,0.06272721290588379,-0.0032001137733459473,3.184228879036009,-0.005280971527099609
1745973730038907600,5.84090771484375,-0.3093205854996378,-0.02771810069680214,-0.14871522346985444,-0.0342610739171505,0.00552062632905051,0.9751505619103535,-0.040193798842069264,left,-0.0016462206840515137,-0.3275459443234006,-2.8265456139504908,-8.844602957421541,-0.1641174319799976,0.08300960063934326,-0.0022384822368621826,3.1549998619422315,0.00007736682891845703
1745973730078907400,5.880907470703125,-0.3101598879880887,-0.014383167959749699,-0.14921001417875945,-0.04045528918504715,0.005507583645298901,0.9753083741859859,-0.039913366436317425,left,0.012734532356262207,-0.32473534826447437,-2.8366631033390757,-8.850636976888776,-0.16272515052766792,0.07195863127708435,-0.010963678359985352,3.1288901459127665,-0.0023221075534820557
1745973730118907600,5.92090771484375,-0.3123204503478719,-0.03192495182156563,-0.1503257657087178,-0.0363670289516449,0.0054014720421700566,0.9753878757141747,-0.03999463083505444,left,-0.0066648125648498535,-0.3216421082789781,-2.858739033807814,-8.853655447927117,-0.16121838815420084,0.07830629497766495,-0.0058817267417907715,3.100126408243179,-0.006207674741744995
1745973730158907600,5.96090771484375,-0.31296388657621454,-0.07179093360900879,-0.15061903490967016,0.02479667216539383,0.004622007477527869,0.9755967968903639,-0.041167950277680665,left,-0.007308542728424072,-0.3183422081923178,-2.867569113734364,-8.861499147164821,-0.15969720829436626,0.0659710094332695,0.0041973888874053955,3.069408321635425,-0.010594069957733154
1745973730198907600,6.00090771484375,-0.31280062344149084,-0.0953802764415741,-0.15038068523925904,0.016310423612594604,0.0029597407702772562,0.9758513886270027,-0.0440485703212855,left,0.014151036739349365,-0.31523752447578324,-2.86904123211354,-8.87099178265333,-0.1584012318935176,0.04256168007850647,0.0011249184608459473,3.040476533922553,-0.013283491134643555
1745973730238907600,6.04090771484375,-0.3146951557281113,-0.08861653506755829,-0.1511088265639763,-0.0533047616481781,0.001205154700102998,0.975944887653876,-0.04745127726037115,left,0.007232546806335449,-0.31214893192604043,-2.8887352358818053,-8.874427602320909,-0.15715037568721466,0.03307493403553963,-0.001476198434829712,3.0116660345017907,-0.005631893873214722
1745973730278907600,6.08090771484375,-0.3182254634803174,-0.053206805139780045,-0.15268733570030718,-0.07828075438737869,0.00010110845057643415,0.9758344730965609,-0.04993709791191382,left,-0.004581332206726074,-0.3100433003958667,-2.922024342021346,-8.870176959139108,-0.15631185668717662,0.02507089078426361,0.00005790591239929199,2.9920079788297413,-0.0006974339485168457
1745973730318907400,6.120907470703125,-0.3205330343167535,-0.024776434525847435,-0.1537718372209196,-0.01463349163532257,-0.00033498578661435085,0.9757706340973672,-0.050948009788893696,left,-0.019532859325408936,-0.308516439771349,-2.9439208242699504,-8.867735995727777,-0.1556454299755672,0.02460971660912037,0.008070260286331177,2.977745060199499,-0.0028078854084014893
1745973730358907600,6.16090771484375,-0.3202860849771085,-0.038237038999795914,-0.1536086866999564,0.021648675203323364,-0.0008810326241667982,0.9758701711119434,-0.05184636810123352,left,-0.0012396574020385742,-0.30741982420693065,-2.942757333448529,-8.871557015320658,-0.15518001943613668,0.014067559503018856,0.007116347551345825,2.967496930168569,-0.007584244012832642
1745973730398907600,6.20090771484375,-0.3197367330760783,-0.05490604788064957,-0.15324239889205366,0.013641941361129284,-0.0018391471401892404,0.9760026346802078,-0.053516546123224325,left,0.002208232879638672,-0.3061735208495829,-2.9390435736224054,-8.876676258030534,-0.15470040109177707,0.017262371256947517,0.00475117564201355,2.955845655341446,-0.007857531309127808
1745973730438907600,6.24090771484375,-0.3193335734532467,-0.04589048773050308,-0.15296647937893226,-0.0015080934390425682,-0.0027603726193781066,0.9761495669034708,-0.0550732123008906,left,0.014137506484985352,-0.3045562281861947,-2.936961506651342,-8.882387621414662,-0.1540308751960435,0.03761447221040726,-0.002198725938796997,2.940719105619192,-0.00922057032585144
1745973730478907600,6.28090771484375,-0.3212708635793202,-0.06342379003763199,-0.15387782123324245,-0.059725794941186905,-0.0035817440711755845,0.9762211661468823,-0.056550034519929335,left,-0.0014819502830505371,-0.3014761909997316,-2.957009730684757,-8.885233073973655,-0.15264596567309507,0.0695342868566513,-0.005412638187408447,2.9118901937589046,-0.004319310188293457
1745973730518907600,6.32090771484375,-0.3231699404511141,-0.058451369404792786,-0.15471499237442277,-0.0025656819343566895,-0.0046075395650424095,0.9762416444524441,-0.05854873810582623,left,-0.017970502376556396,-0.2990846879637745,-2.976081218640506,-8.886179414913057,-0.15163835951029583,-0.0018925443291664124,0.006188541650772095,2.889487223292887,0.01208585500717163
1745973730558907400,6.360907470703125,-0.32441566858403287,-0.06199512630701065,-0.15506159684039145,-0.025497891008853912,-0.005986532363207194,0.9760789974263604,-0.061704178443744526,left,0.02198004722595215,-0.2998965145552433,-2.9863997835591434,-8.880238918948173,-0.15228168261843358,-0.06575896590948105,0.0012658238410949707,2.8970938989043233,0.0008823871612548828
1745973730598907600,6.40090771484375,-0.32801390090783805,-0.05236179009079933,-0.15654869663924412,-0.11047332733869553,-0.0070580846851677325,0.9756868995309956,-0.06470542103112632,left,0.01630634069442749,-0.30132628059812216,-3.016995997352898,-8.865505460196733,-0.15322377429035053,-0.03779201582074165,-0.008813023567199707,2.9104864644408224,-0.006481468677520752
1745973730638907600,6.44090771484375,-0.33296303893594675,-0.024913012981414795,-0.1587941317728751,-0.10461872071027756,-0.007543194227080403,0.9752342639206915,-0.06661230669076718,left,-0.004037082195281982,-0.3021040357031224,-3.060094842106104,-8.848323439249397,-0.1537708703350511,-0.029570627957582474,-0.006381899118423462,2.9177690226644275,0.005768954753875732
1745973730678907600,6.48090771484375,-0.3372137878320856,0.014102969318628311,-0.16075519847094363,-0.08103650063276291,-0.007552757398658276,0.9747933387468464,-0.06754207125019018,left,-0.005120456218719482,-0.30347171896223757,-3.0963559497937556,-8.831461736297607,-0.15452678887505505,-0.047107063233852386,0.0040250420570373535,2.930571221092343,0.015365004539489746
1745973730718907600,6.52090771484375,-0.34078308894218734,0.022240912541747093,-0.1624837457793973,-0.1053289845585823,-0.006900758048189477,0.974388404712946,-0.06706130433760465,left,0.0069904327392578125,-0.3051173695535537,-3.126242261752486,-8.815796549654006,-0.15530133892221287,-0.013608407229185104,-0.005273312330245972,2.9459684044495225,-0.0036287903785705566
1745973730758907600,6.56090771484375,-0.34568033289756256,-0.010499859228730202,-0.16492957522400878,-0.1497785449028015,-0.006253344890924188,0.9740193851650444,-0.06643863318657375,left,0.011251866817474365,-0.30470428795377646,-3.1697897270560262,-8.801524863195418,-0.15506561044038017,0.04662191495299339,-0.008419573307037354,2.9421041302368045,-0.010288715362548828
1745973730798907400,6.600907470703125,-0.351826953946986,-0.017240487039089203,-0.16801591626558338,-0.17310398817062378,-0.005818360179872113,0.973673825822301,-0.06610271097081026,left,0.00920015573501587,-0.3023972027502293,-3.2261595567926764,-8.7882240675956,-0.1539348377740699,0.07322519272565842,-0.008975386619567871,2.920513645197451,-0.005595684051513672
1745973730838907400,6.640907470703125,-0.35936897673435536,0.00400543212890625,-0.17186248088370845,-0.21226270496845245,-0.0050658751330226095,0.9732775695701857,-0.06511225076722676,left,0.012033283710479736,-0.29898031653227825,-3.2958383654356003,-8.77293239043951,-0.1522110389532244,0.09628929197788239,-0.009554415941238403,2.8885090259104964,-0.006655961275100708
1745973730878907600,6.68090771484375,-0.36697943772874375,0.018295183777809143,-0.17580057811635547,-0.17547214031219482,-0.003868693526524015,0.9728450058916096,-0.06323099741030139,left,-0.00878286361694336,-0.29576975549312234,-3.3658184951126575,-8.756207465609908,-0.15050522075166006,0.07957040518522263,-0.007553517818450928,2.8584061485916377,-0.004195898771286011
1745973730918907600,6.72090771484375,-0.37186548431610844,0.022296883165836334,-0.17833300396849253,-0.09345421940088272,-0.0028856754732556503,0.9725132291422341,-0.06169246230573679,left,-0.010811924934387207,-0.2943518186587145,-3.410030561804771,-8.743424556404351,-0.14968887899014952,0.01327458769083023,-0.009737610816955566,2.8451018458604813,-0.0005160868167877197
1745973730958907600,6.76090771484375,-0.3747330168954311,0.013900958001613617,-0.17973767909301253,-0.06281699240207672,-0.0023629694049122772,0.9721977611746231,-0.061225018534621464,left,-0.000929415225982666,-0.29520924841599633,-3.4341944044634696,-8.731336643725633,-0.15006693803251822,-0.04444976896047592,-0.009820759296417236,2.853147497411072,-0.00039389729499816895
1745973730998907600,6.80090771484375,-0.3768979648835939,0.0015300270169973373,-0.1806787209710678,-0.04301159083843231,-0.0022831889023012496,0.9718442664253188,-0.06183701006039901,left,0.0019312500953674316,-0.29747376243834517,-3.4507024716719985,-8.717851723730563,-0.15122325498799777,-0.07246291637420654,-0.00564730167388916,2.8743869770556687,0.0004754960536956787
1745973731038907600,6.84090771484375,-0.37897916277876514,-0.009393451735377312,-0.18152461496222125,-0.03964681923389435,-0.0025022722636646416,0.9714849501909738,-0.06308611303708211,left,0.004040122032165527,-0.2998891814851788,-3.4662598140269516,-8.704175665077567,-0.1525102287154355,-0.06189374625682831,-0.005800306797027588,2.8970252175822853,0.0004846155643463135
1745973731078907400,6.880907470703125,-0.38100520581042474,-0.015323232859373093,-0.18235622185045441,-0.04078258201479912,-0.0028410383122766105,0.9711810781966503,-0.06443165396887282,left,0.003605961799621582,-0.30155918006648813,-3.4820839906245467,-8.692631357756257,-0.15344489157283758,-0.04030755162239075,-0.00363236665725708,2.9126673156112433,0.00422099232673645
1745973731118907600,6.92090771484375,-0.3829157016478687,0.0005468688905239105,-0.18319469022602877,-0.041447822004556656,-0.002965895006150518,0.9709331390356953,-0.06519329647266221,left,0.004550516605377197,-0.30257911916863195,-3.497572943918407,-8.683203019675611,-0.15401154215098814,-0.020787466317415237,-0.0029541850090026855,2.922216649723053,0.006145119667053223
1745973731158907600,6.96090771484375,-0.3845207698747043,0.018215812742710114,-0.1839647573638785,-0.027752157300710678,-0.002710731070872561,0.9707393711313819,-0.06505340170130706,left,-0.0007975101470947266,-0.30323674448578686,-3.510784015408158,-8.675794789245725,-0.15431958373342064,-0.004409017041325569,-0.0037588775157928467,2.9283722497433424,0.00803712010383606
1745973731198907600,7.00090771484375,-0.3846725069079271,0.01890060305595398,-0.1840925367356389,0.008162446320056915,-0.0022090120096444027,0.9706893072314828,-0.06414819492133297,left,-0.0045868754386901855,-0.3037600097156454,-3.5115248969033357,-8.673840148046612,-0.15448996229347267,0.0013903495855629444,-0.000978916883468628,2.9332690818741916,0.004160284996032715
1745973731238907600,7.04090771484375,-0.3846725069079271,-0.002216147258877754,-0.1840925367356389,0.00056436937302351,-0.0022090120096444027,0.9706893072314828,-0.06414819492133297,left,0.0037004947662353516,-0.3037600097156454,-3.5115248969033357,-8.673840148046612,-0.15448996229347267,-0.002165986690670252,0.00011590123176574707,2.9332690818741916,0.0017211735248565674
1745973731278907600,7.08090771484375,-0.3846725069079271,-0.022050773724913597,-0.1840925367356389,0.0007912680739536881,-0.0022090120096444027,0.9706893072314828,-0.06414819492133297,left,0.004101574420928955,-0.3037600097156454,-3.5115248969033357,-8.673840148046612,-0.15448996229347267,-0.015680432319641113,0.0002461671829223633,2.9332690818741916,0.0028983354568481445
1745973731318907400,7.120907470703125,-0.38518531191042454,-0.020912684500217438,-0.18421583481040144,-0.011234820820391178,-0.0027437014788344915,0.9705874391060748,-0.0654804012312207,left,0.008641600608825684,-0.30450500493450205,-3.515150393924117,-8.670010945147276,-0.15497411325387977,-0.01918548159301281,-0.0003342926502227783,2.940239797669649,0.005794018507003784
1745973731358907600,7.16090771484375,-0.3861535216215717,-0.011836211197078228,-0.184606272418732,-0.016917679458856583,-0.003068047132792657,0.9704727054516787,-0.06637122583589396,left,0.002651214599609375,-0.30484331464905196,-3.523168280684948,-8.665681391510367,-0.15522151085566838,-0.00505868811160326,-0.002682209014892578,2.9434046914413567,0.0033708810806274414
1745973731398907600,7.20090771484375,-0.38698000406573413,-0.005367577541619539,-0.18498306505322928,-0.017469605430960655,-0.003142020867055471,0.9703926317261833,-0.06666512570474607,left,0.0032695531845092773,-0.30488931622169124,-3.5302781126901506,-8.662641293162107,-0.15527222148742492,0.0057898713275790215,-0.003896355628967285,2.943835191813111,0.0018975436687469482
1745973731438907600,7.24090771484375,-0.38772237979465896,-0.003170665120705962,-0.18535558525451304,-0.011972732841968536,-0.0031234635260517576,0.9703524739369147,-0.06666502482464515,left,0.0003222227096557617,-0.30448859180830495,-3.5371538436785337,-8.661109845811128,-0.15507933545786037,0.021229024976491928,-0.005037426948547363,2.940086360673606,-0.002575010061264038
1745973731478907600,7.28090771484375,-0.38816450158789423,-0.011672764085233212,-0.18560941400864833,-0.020453644916415215,-0.003135059109729114,0.9703831324882196,-0.06655681390833892,left,0.005143702030181885,-0.3034820539367258,-3.5421009446918963,-8.66227947411239,-0.15458262025646918,0.02482549101114273,-0.007369339466094971,2.930667959465086,-0.004635483026504517
1745973731518907600,7.32090771484375,-0.3888519034817392,-0.007256110664457083,-0.1859820930679918,-0.011909060180187225,-0.0031527554881897886,0.9703964954621612,-0.0664828810107073,left,0.003242969512939453,-0.30239220329896077,-3.5492633836671708,-8.662793268853425,-0.15404910855145582,0.023431871086359024,-0.007467359304428101,2.920466883446276,-0.005293786525726318
1745973731558907400,7.360907470703125,-0.38913410532370113,-0.007240976672619581,-0.18614825344049388,0.0012769317254424095,-0.0031965908691146774,0.9704309041876379,-0.06644470291202999,left,-0.00030040740966796875,-0.30153383282108226,-3.5526577022805808,-8.664107274061442,-0.1536303425880466,0.012850995175540447,-0.006690233945846558,2.91242999972403,-0.004623860120773315
1745973731598907600,7.40090771484375,-0.38913410532370113,-0.010597212240099907,-0.18614825344049388,0.01005691196769476,-0.0031965908691146774,0.9704309041876379,-0.06644470291202999,left,-0.0010651946067810059,-0.30153383282108226,-3.5526577022805808,-8.664107274061442,-0.1536303425880466,-0.0030160052701830864,-0.004454076290130615,2.91242999972403,-0.0033020377159118652
1745973731638907600,7.44090771484375,-0.38899981584959564,-0.015753932297229767,-0.18603222595354166,0.012493851594626904,-0.0036368338381781258,0.9704682337838567,-0.06725568890268264,left,0.0021675825119018555,-0.3011620962045988,-3.5519045458257197,-8.665585529920458,-0.1535255487968013,-0.007704589050263166,-0.003339439630508423,2.908948879610002,-0.003907889127731323
1745973731678907600,7.48090771484375,-0.3888153712196536,-0.02442033961415291,-0.18586311064641103,0.014184675179421902,-0.004193358883460449,0.9704925756253735,-0.06834650519638408,left,0.0036045312881469727,-0.30102878777350756,-3.550453177973628,-8.666599090877174,-0.1535620557724813,-0.008821330964565277,-0.0019637346267700195,2.9077003408536313,-0.0027910172939300537
1745973731718907600,7.52090771484375,-0.38903407150476743,-0.023723049089312553,-0.18588224923747498,0.004153096117079258,-0.004814869126115767,0.9704904912496347,-0.06960134319477816,left,0.004754066467285156,-0.3007288592611871,-3.5526790373295545,-8.666629486015438,-0.15353392642417962,-0.0006072791293263435,-0.0024888813495635986,2.9048911286517978,-0.00004503130912780762
1745973731758907600,7.56090771484375,-0.38942842893023355,-0.018315479159355164,-0.18602095361073182,-0.000450952909886837,-0.005269991116784694,0.9704875656170528,-0.07049784547094225,left,0.0027750730514526367,-0.300215666754681,-3.5566619694858788,-8.666605520617962,-0.15336976082954484,0.007663305848836899,-0.003999888896942139,2.9000840206310152,0.000023484230041503906
1745973731798907400,7.600907470703125,-0.38942842893023355,-0.010615837760269642,-0.18602095361073182,0.0001844155485741794,-0.005269991116784694,0.9704875656170528,-0.07049784547094225,left,0.0017147660255432129,-0.300215666754681,-3.5566619694858788,-8.666605520617962,-0.15336976082954484,0.010836037807166576,-0.004159361124038696,2.9000840206310152,0.0008992850780487061
1745973731838907400,7.640907470703125,-0.38982845190023147,-0.007322649471461773,-0.18619805874196638,0.0018098677974194288,-0.0056205826979196915,0.9705126064020795,-0.07109804255837479,left,0.002857208251953125,-0.2992996855445789,-3.5611364845514295,-8.667635448187589,-0.15298316555151925,0.007249969989061356,-0.0026222169399261475,2.8915017779856917,-0.0008783340454101562
1745973731878907600,7.68090771484375,-0.38982845190023147,-0.004783812444657087,-0.18619805874196638,-0.005896073766052723,-0.0056205826979196915,0.9705126064020795,-0.07109804255837479,left,0.006736159324645996,-0.2992996855445789,-3.5611364845514295,-8.667635448187589,-0.15298316555151925,0.007980842143297195,-0.0031233131885528564,2.8915017779856917,-0.004292339086532593
1745973731918907600,7.72090771484375,-0.3903471134637828,0.00317776994779706,-0.1864637746265156,-0.007003619335591793,-0.005685099663583493,0.9705089771710255,-0.07118186150496693,left,-0.0013682842254638672,-0.29865434498574134,-3.566341067457199,-8.667511529546976,-0.15267994599028847,0.008762232959270477,-0.004944026470184326,2.8854540222540495,-0.003503769636154175
1745973731958907600,7.76090771484375,-0.3903471134637828,0.007999958470463753,-0.1864637746265156,0.015912093222141266,-0.005685099663583493,0.9705089771710255,-0.07118186150496693,left,-0.0027490854263305664,-0.29865434498574134,-3.566341067457199,-8.667511529546976,-0.15267994599028847,0.0007955292239785194,-0.002780616283416748,2.8854540222540495,-0.0026845037937164307
1745973731998907600,7.80090771484375,-0.3903471134637828,-0.0005333665758371353,-0.1864637746265156,0.006290393881499767,-0.005685099663583493,0.9705089771710255,-0.07118186150496693,left,0.001189589500427246,-0.29865434498574134,-3.566341067457199,-8.667511529546976,-0.15267994599028847,-0.009424545802175999,-0.003574162721633911,2.8854540222540495,-0.00011536478996276855
1745973732038907600,7.84090771484375,-0.38954055952228867,-0.0018809125758707523,-0.1860577812556817,0.013873499818146229,-0.005701179611866528,0.9705519794534798,-0.07118156491567527,left,0.002094566822052002,-0.29911599861110805,-3.558842820656299,-8.669151697969436,-0.15290117194191222,-0.01656349003314972,-0.002595067024230957,2.88978065328151,0.0005206763744354248
1745973732078907400,7.880907470703125,-0.3890287373648572,-0.0028717764653265476,-0.18577871628911086,0.009195985272526741,-0.005813264544362647,0.9705705874184579,-0.07141410974732632,left,0.004612743854522705,-0.29952266249858606,-3.5539591402679678,-8.669884103897214,-0.15311823816863845,-0.011324262246489525,-0.004233330488204956,2.8935911514803765,0.0007795095443725586
1745973732118907600,7.92090771484375,-0.3890287373648572,0.0007395343855023384,-0.18577871628911086,0.01142680924385786,-0.005813264544362647,0.9705705874184579,-0.07141410974732632,left,0.00019115209579467773,-0.29952266249858606,-3.5539591402679678,-8.669884103897214,-0.15311823816863845,-0.017124049365520477,-0.004007548093795776,2.8935911514803765,0.0022127926349639893
1745973732158907600,7.96090771484375,-0.388547313008365,0.00413957005366683,-0.18548519470764716,0.0015954431146383286,-0.005898420597734629,0.9705370140718252,-0.07173694872411052,left,0.004555702209472656,-0.30062840127535734,-3.5485704329669474,-8.668627381834387,-0.15368224910651226,-0.019485361874103546,-0.0022373199462890625,2.903950340670347,-0.0006313920021057129
1745973732198907600,8.00090771484375,-0.38858313697433466,0.008581103757023811,-0.18545401154857943,-0.0018370260950177908,-0.0059099195101216,0.9704647124870173,-0.07196343245006895,left,0.0039421916007995605,-0.3016042197139005,-3.5478058783352373,-8.665874283733963,-0.154175843841302,-0.02404889278113842,0.00020071864128112793,2.913089340415597,-0.0009719133377075195
1745973732238907600,8.04090771484375,-0.3890951662248681,0.01749594509601593,-0.18565166644414377,-0.021090926602482796,-0.005777850636922908,0.9703200271829505,-0.07205098932280267,left,0.004550755023956299,-0.30298034242261196,-3.5507185509115455,-8.660338861438632,-0.15485172243334053,-0.03422928228974342,-0.00032255053520202637,2.925972495125234,0.0003934204578399658
1745973732278907600,8.08090771484375,-0.3897166823181859,0.02081315964460373,-0.18592598163812987,-0.010784615762531757,-0.005454456202015737,0.9701574915329096,-0.0717856882430878,left,-0.0012694597244262695,-0.30447129327044414,-3.5544387404784556,-8.654085061740874,-0.1555505579459093,-0.025852009654045105,-0.00018310546875,2.939924448110163,-0.0014551281929016113
1745973732318907400,8.120907470703125,-0.38993850712316586,0.018779318779706955,-0.186043806207004,-0.007494693156331778,-0.005093354233590585,0.9700715066124768,-0.0712674406659323,left,0.0030221939086914062,-0.30541159458244244,-3.555306170962751,-8.65073575131297,-0.15595805049081538,-0.009228765964508057,-0.0023680925369262695,2.948720333506167,-0.0033434629440307617
1745973732358907600,8.16090771484375,-0.39003441999453575,0.014344017952680588,-0.18611728768037866,-0.004021638073027134,-0.00476833159821992,0.9700279495143009,-0.07071516238429423,left,0.0012025237083435059,-0.3059166673495401,-3.5555689135521646,-8.649016087913513,-0.15615134972089992,-0.00930138397961855,-0.0015442073345184326,2.953443854896724,-0.001137077808380127
1745973732398907600,8.20090771484375,-0.39003441999453575,0.005834382027387619,-0.18611728768037866,0.0011940598487854004,-0.00476833159821992,0.9700279495143009,-0.07071516238429423,left,0.0022687315940856934,-0.3059166673495401,-3.5555689135521646,-8.649016087913513,-0.15615134972089992,-0.015755733475089073,-0.0027527213096618652,2.953443854896724,-0.001201629638671875
1745973732438907600,8.24090771484375,-0.3901371585935275,-0.00043932395055890083,-0.1861303616068553,0.004318528342992067,-0.004695712770221043,0.9699478039183841,-0.07078213804980266,left,0.00225985050201416,-0.30690359555364977,-3.5553473797559736,-8.645950855123996,-0.1566354380371439,-0.01626775600016117,-0.00368499755859375,2.9626714097082614,-0.0014682412147521973
1745973732478907600,8.28090771484375,-0.3901371585935275,-0.002239758614450693,-0.1861303616068553,0.002400809433311224,-0.004695712770221043,0.9699478039183841,-0.07078213804980266,left,0.002354860305786133,-0.30690359555364977,-3.5553473797559736,-8.645950855123996,-0.1566354380371439,-0.01126629114151001,-0.004674345254898071,2.9626714097082614,-0.0007916688919067383
1745973732518907600,8.32090771484375,-0.3901371585935275,0.011142756789922714,-0.1861303616068553,-0.0015134070999920368,-0.004695712770221043,0.9699478039183841,-0.07078213804980266,left,0.0017996430397033691,-0.30690359555364977,-3.5553473797559736,-8.645950855123996,-0.1566354380371439,0.00020571332424879074,-0.0041578710079193115,2.9626714097082614,0.003855675458908081
1745973732558907400,8.360907470703125,-0.39011953254675763,0.02765258215367794,-0.18615152148488856,0.004677848424762487,-0.004325170901444265,0.9699052938853013,-0.07014426150914921,left,0.00016355514526367188,-0.3075398014666336,-3.5544773189231753,-8.644268601125479,-0.15688390514342565,0.0036096544936299324,-0.002503126859664917,2.968618335413933,0.0036244988441467285
1745973732598907600,8.40090771484375,-0.3893954424055295,0.035662706941366196,-0.1858664380891811,0.019098687916994095,-0.0037504182178343497,0.9699202766928308,-0.06899587750779004,left,0.0038713812828063965,-0.30829999885102816,-3.5473595958724617,-8.64474966264069,-0.1571435247443252,-0.008355009369552135,-0.0016450881958007812,2.9757226144611835,0.0023702681064605713
1745973732638907600,8.44090771484375,-0.3883138651001872,0.026713870465755463,-0.18537660389011856,0.025253424420952797,-0.0032608853204675005,0.9699331822216951,-0.06806070331872564,left,0.0014547109603881836,-0.3095362675627719,-3.536611991886794,-8.645169933879375,-0.1576531069300143,-0.018077880144119263,-0.0026110708713531494,2.9872724747404455,-0.0033431053161621094
1745973732678907600,8.48090771484375,-0.3867636538343131,0.012077152729034424,-0.18462652044506667,0.04513140395283699,-0.003064731706664784,0.9700002028770063,-0.06761773553974995,left,0.0013856291770935059,-0.31059830886815415,-3.522007127951085,-8.64769916009605,-0.15812369524287329,-0.021688561886548996,-0.0018245577812194824,2.9971909344255923,-0.003717571496963501
1745973732718907600,8.52090771484375,-0.3855689641284818,-0.006842626258730888,-0.18400007051808964,0.023607341572642326,-0.0032293327864865652,0.9700550059914235,-0.06791347012189468,left,0.007256567478179932,-0.31135271446704443,-3.5108220093309876,-8.64980285437703,-0.1585142004142916,-0.023196814581751823,-0.002195119857788086,3.004234130935371,-0.0025850236415863037
1745973732758907600,8.56090771484375,-0.38504075666972604,-0.008831555023789406,-0.18366861939430326,0.015051879920065403,-0.003595834346742455,0.9700681507616131,-0.06867652694893772,left,0.0062288641929626465,-0.3118213288886893,-3.5057235171481964,-8.650350551387668,-0.15881024738782437,-0.016031358391046524,-0.0021378397941589355,3.0086084004968403,0.0013445913791656494
1745973732798907400,8.600907470703126,-0.38504075666972604,0.003008534200489521,-0.18366861939430326,0.0006363438442349434,-0.003595834346742455,0.9700681507616131,-0.06867652694893772,left,0.006191611289978027,-0.3118213288886893,-3.5057235171481964,-8.650350551387668,-0.15881024738782437,-0.01564875803887844,-0.0035295486450195312,3.0086084004968403,0.005006760358810425
1745973732838907400,8.640907470703125,-0.3851760361613928,0.013934374786913395,-0.1836757215412677,-0.00635450379922986,-0.0036035464739430866,0.9699696947767384,-0.06894864067115097,left,0.002176225185394287,-0.31299031924568393,-3.505569787891209,-8.646610780337452,-0.1594012778681105,-0.01930503360927105,-0.0038005709648132324,3.019517332524061,0.004438936710357666
1745973732878907600,8.68090771484375,-0.3854783697082412,0.015736548230051994,-0.1838067297904447,-0.013490408658981323,-0.0033465000977166404,0.9698593990749776,-0.06869529666821103,left,0.007001161575317383,-0.3141232420474237,-3.5068951912760733,-8.642375334724784,-0.1599267650257037,-0.017363963648676872,-0.005372554063796997,3.0300857805505395,0.0006013214588165283
1745973732918907600,8.72090771484375,-0.385945642437511,0.012505372986197472,-0.18403860383706916,-0.005770024843513966,-0.003051114595347508,0.9697593602417823,-0.06832026806514957,left,0.0017756819725036621,-0.31490620224837695,-3.5100390422597525,-8.638535025909542,-0.16027189104176431,-0.005469762720167637,-0.002840101718902588,3.037387335735559,0.0006079375743865967
1745973732958907600,8.76090771484375,-0.385945642437511,0.002219298854470253,-0.18403860383706916,-0.003913042135536671,-0.003051114595347508,0.9697593602417823,-0.06832026806514957,left,0.002314329147338867,-0.31490620224837695,-3.5100390422597525,-8.638535025909542,-0.16027189104176431,0.008328820578753948,-0.004054665565490723,3.037387335735559,-0.003806203603744507
1745973732998907600,8.80090771484375,-0.38599032572485253,-0.009147120639681816,-0.184092025218912,0.006870524026453495,-0.0029496038080433387,0.9697798585811708,-0.06805258101823902,left,0.00017768144607543945,-0.3145786772427971,-3.510799505238235,-8.639299580541252,-0.1600888314595733,0.012673206627368927,-0.0015580356121063232,3.034333208861947,-0.0025186538696289062
1745973733038907600,8.84090771484375,-0.38570953847884265,-0.011878874152898788,-0.18396645589995808,0.013679403811693192,-0.003116739417971556,0.9698587175278633,-0.06820563963808449,left,0.001393735408782959,-0.313854061989624,-3.5091996688261626,-8.642319805145263,-0.15975185856613167,0.012101597152650356,-0.001789867877960205,3.0275752590343354,-0.001835167407989502
1745973733078907400,8.880907470703125,-0.38570953847884265,-0.010123235173523426,-0.18396645589995808,0.014713702723383904,-0.003116739417971556,0.9698587175278633,-0.06820563963808449,left,0.0014603734016418457,-0.313854061989624,-3.5091996688261626,-8.642319805145263,-0.15975185856613167,0.0023038936778903008,-0.0009710788726806641,3.0275752590343354,-0.00028765201568603516
1745973733118907600,8.92090771484375,-0.38495881285368105,-0.0056665316224098206,-0.1835698833955174,0.014198185876011848,-0.0034754438619706445,0.9699525662068657,-0.06875139052737551,left,0.0024706125259399414,-0.31350301290921156,-3.503109535257518,-8.645936242076754,-0.1596308825540256,-0.0073916055262088776,0.0003796815872192383,3.0243004751473666,0.0007257163524627686
1745973733158907600,8.96090771484375,-0.38495881285368105,-0.0008258461020886898,-0.1835698833955174,0.004543201066553593,-0.0034754438619706445,0.9699525662068657,-0.06875139052737551,left,0.002625584602355957,-0.31350301290921156,-3.503109535257518,-8.645936242076754,-0.1596308825540256,-0.009549245238304138,0.0007418990135192871,3.0243004751473666,0.0024380385875701904
1745973733198907600,9.00090771484375,-0.38470099994172036,0.004436399322003126,-0.18338870899330825,-0.0017828266136348248,-0.0036343757724901617,0.9699240795682535,-0.06917669917224509,left,0.0025898218154907227,-0.31420313717721254,-3.500084926739335,-8.644874750325084,-0.16000825845882255,-0.012006429955363274,-0.00010758638381958008,3.0308310459598897,0.002878904342651367
1745973733238907600,9.04090771484375,-0.38470099994172036,0.007073381450027227,-0.18338870899330825,-0.005787611939013004,-0.0036343757724901617,0.9699240795682535,-0.06917669917224509,left,0.0013200044631958008,-0.31420313717721254,-3.500084926739335,-8.644874750325084,-0.16000825845882255,-0.006265294272452593,-0.0005905032157897949,3.0308310459598897,0.0020885169506073
1745973733278907600,9.08090771484375,-0.3850699646516546,0.005706401541829109,-0.18355510389800514,-0.004779242444783449,-0.0034638717640608834,0.9698353513536746,-0.06903611301706607,left,0.0018346309661865234,-0.31495307237732156,-3.5024197994276878,-8.641473417448998,-0.16035890758245813,-0.0049598789773881435,0.0003752410411834717,3.037824558109045,0.002997368574142456
1745973733318907400,9.120907470703125,-0.3850699646516546,0.008004287257790565,-0.18355510389800514,-0.01802409440279007,-0.0034638717640608834,0.9698353513536746,-0.06903611301706607,left,0.008254706859588623,-0.31495307237732156,-3.5024197994276878,-8.641473417448998,-0.16035890758245813,0.002195863053202629,-0.002267122268676758,3.037824558109045,0.0030759572982788086
1745973733358907600,9.16090771484375,-0.38565820441069176,0.013006458058953285,-0.18392814158106774,-0.011097000911831856,-0.002967237170553338,0.9698037180480112,-0.06805233048391329,left,-0.00043320655822753906,-0.31466951429451173,-3.507826334646344,-8.640209681123494,-0.16013227252006895,0.042394690215587616,-0.0017678141593933105,3.0351804733410477,-0.003837287425994873
1745973733398907600,9.20090771484375,-0.3856826302654672,0.013179653324186802,-0.18409546004504565,-0.0046318271197378635,-0.00245119298078411,0.9699132821418414,-0.06669217782880459,left,-0.0011293292045593262,-0.31317232504409753,-3.5097426896616812,-8.644324715226889,-0.1592826496442491,0.04721355810761452,0.0018023550510406494,3.0212153686136007,-0.003451794385910034
1745973733438907600,9.24090771484375,-0.3850438140593424,0.013523424044251442,-0.1839117235549055,0.017466703429818153,-0.0020363957718811956,0.9700512479903917,-0.06551945676440263,left,-0.006052494049072266,-0.31210913021471015,-3.5054245342016217,-8.649536896917223,-0.1586594454135212,0.01876680552959442,0.006111562252044678,3.011294570840895,-0.0069665610790252686
1745973733478907600,9.28090771484375,-0.3850438140593424,-0.013002900406718254,-0.1839117235549055,-0.019626962020993233,-0.0020363957718811956,0.9700512479903917,-0.06551945676440263,left,0.005875229835510254,-0.31210913021471015,-3.5054245342016217,-8.649536896917223,-0.1586594454135212,-0.011455485597252846,0.0029982328414916992,3.011294570840895,-0.008273959159851074
1745973733518907600,9.32090771484375,-0.3865324330238861,-0.02817273885011673,-0.18452843643286373,-0.03607335686683655,-0.0024094642226904057,0.9698740798344897,-0.0666385599088745,left,0.0023590922355651855,-0.3126386664678436,-3.5176948177099225,-8.64283067727685,-0.15902048417171863,-0.050218865275382996,0.0028432607650756836,3.0162361188963054,0.0014424920082092285
1745973733558907400,9.360907470703125,-0.38866834948272455,-0.018018970265984535,-0.18536581455254347,-0.04206949099898338,-0.0030028103006092192,0.9695617133026534,-0.0685219547328342,left,0.0049343109130859375,-0.31416984141255966,-3.5343928545325993,-8.631013398233055,-0.15993839550477684,-0.061807915568351746,-0.0018441081047058105,3.030520372575521,0.005395859479904175
1745973733598907600,9.40090771484375,-0.39086243875493365,-0.004646439105272293,-0.18628510849798322,-0.05645648017525673,-0.003265054918526981,0.9692464852807602,-0.06972762631007672,left,0.01133573055267334,-0.3156585241839709,-3.5515988408774137,-8.619057002979517,-0.1607738554473729,-0.02763376384973526,-0.009982764720916748,3.0444015984117985,0.00019669532775878906
1745973733638907600,9.44090771484375,-0.3933662871867426,0.00014629727229475975,-0.1874454953567524,-0.0484788678586483,-0.0032116632528011524,0.9689691053077164,-0.07015168683803226,left,-0.0009148120880126953,-0.3162392964841865,-3.5724902377367016,-8.608503460261225,-0.16109831238551447,-0.014762663282454014,-0.010595321655273438,3.049815147893131,0.005628794431686401
1745973733678907600,9.48090771484375,-0.39498050068618623,-0.0007991254678927362,-0.18816225551885343,-0.013796530663967133,-0.003189918577806387,0.9687456740171286,-0.0705729773869776,left,-0.0019808411598205566,-0.31720159952145927,-3.58525035058856,-8.600012110769748,-0.16160559189589818,-0.028677426278591156,-0.006926447153091431,3.0587825904637573,0.004975378513336182
1745973733718907600,9.52090771484375,-0.3953598949006481,-0.008223187178373337,-0.1882674395183417,0.014438983052968979,-0.0034087336381019547,0.9686536105409793,-0.07124191382738644,left,0.00041544437408447266,-0.31794951219687595,-3.5876308159843084,-8.596537712657451,-0.16203057972829257,-0.004079833626747131,-0.009307622909545898,3.065750383649766,-0.0021453499794006348
1745973733758907600,9.56090771484375,-0.3953598949006481,0.0027996767312288284,-0.1882674395183417,0.02526736631989479,-0.0034087336381019547,0.9686536105409793,-0.07124191382738644,left,0.0003961324691772461,-0.31794951219687595,-3.5876308159843084,-8.596537712657451,-0.16203057972829257,0.014918524771928787,-0.007182419300079346,3.065750383649766,0.002253919839859009
1745973733798907400,9.600907470703126,-0.3935485599172257,0.029956573620438576,-0.18747376283416162,0.03748208284378052,-0.0032579797494480408,0.9688760833344345,-0.07048630175759078,left,0.0005349516868591309,-0.3172586034658111,-3.5728652085289356,-8.604976455178857,-0.16162269251963632,0.021096274256706238,-0.003710627555847168,3.0593139208614826,0.007230669260025024
1745973733838907400,9.640907470703125,-0.39170089730276314,0.048111580312252045,-0.1867117715479704,0.03933654725551605,-0.0026186887785204036,0.9690538954539765,-0.06885158484396461,left,0.0007911324501037598,-0.3172235284949161,-3.557000992181897,-8.611662216553091,-0.16145010507595875,0.010622533038258553,-0.0016793906688690186,3.058986880864203,0.007439613342285156
1745973733878907600,9.68090771484375,-0.390010030392799,0.039126887917518616,-0.18600942358139386,0.023164700716733932,-0.0018215504015034218,0.9691539763169277,-0.06708756571354209,left,0.0075106024742126465,-0.31802571250536943,-3.541500640711188,-8.615392050731181,-0.1616716971173092,-0.011533798649907112,0.00040969252586364746,3.0664602854847907,0.0044997334480285645
1745973733918907600,9.72090771484375,-0.38922355233888223,0.024811841547489166,-0.18564719746268846,0.02007516287267208,-0.001344347331433972,0.9691160619804029,-0.06627379829632403,left,0.00021606683731079102,-0.3195197548024735,-3.5329812341690063,-8.613926069831848,-0.1623179202054344,-0.03015756793320179,0.0027993619441986084,3.0803736600250002,0.004021257162094116
1745973733958907600,9.76090771484375,-0.3890306045476505,0.007535193115472794,-0.185533445232163,-0.00410073809325695,-0.0011395415905134196,0.969044441750332,-0.06606061565384116,left,0.004856407642364502,-0.3207160634900552,-3.529918923988938,-8.611191676431893,-0.16287645090984867,-0.014296555891633034,0.00018468499183654785,3.0915093865454195,-0.0005183815956115723
1745973733998907600,9.80090771484375,-0.3890306045476505,-0.0056516071781516075,-0.185533445232163,-0.004534854553639889,-0.0011395415905134196,0.969044441750332,-0.06606061565384116,left,0.0013021230697631836,-0.3207160634900552,-3.529918923988938,-8.611191676431893,-0.16287645090984867,0.01725761778652668,-0.0011734962463378906,3.0915093865454195,-0.005255997180938721
1745973734038907600,9.84090771484375,-0.38945621005904896,-0.008415833115577698,-0.18577185981063124,0.0008217855356633663,-0.0012005750952463784,0.9690806061264121,-0.06605405443515891,left,-0.0018867254257202148,-0.31970760924698843,-3.5347654872372742,-8.612568810003996,-0.16238848639717454,0.03160649910569191,-0.0031874477863311768,3.082122549518943,-0.00270688533782959
1745973734078907400,9.880907470703125,-0.38909750015636607,-0.003766377456486225,-0.18563120907838834,0.028413768857717514,-0.0013414016828073763,0.9691950373589993,-0.0660650360665373,left,-0.009454607963562012,-0.31862157811963093,-3.5329435325071215,-8.616927589735388,-0.16186413221968707,0.018144890666007996,0.0008021295070648193,3.07201002856642,0.00004738569259643555
1745973734118907600,9.92090771484375,-0.3879573096097098,-0.0025367559865117073,-0.18509965687215973,0.01963631436228752,-0.0014386815626105877,0.9693351049257505,-0.06598273403116273,left,0.003011167049407959,-0.3181620404776408,-3.5236499267220496,-8.62225667580366,-0.16163345954348438,0.006678488105535507,0.0004023611545562744,3.067730159290135,-0.005015134811401367
1745973734158907600,9.96090771484375,-0.3874140660326874,0.002969146240502596,-0.18486249836171442,0.006161695346236229,-0.001447622411813832,0.9694174259980789,-0.06582438970698623,left,0.002202153205871582,-0.31773366963397237,-3.519461827382445,-8.625385621479154,-0.16141121840678269,0.014257535338401794,0.0009621977806091309,3.0637396283492446,-0.004853546619415283
1745973734198907600,10.00090771484375,-0.38759867902743084,0.02094077505171299,-0.18502728617299613,-0.029657339677214622,-0.0011270086379458135,0.9694392072693079,-0.06508965324322996,left,0.009987413883209229,-0.31721687691827155,-3.521652030903101,-8.626199860471486,-0.16109342344629293,0.018999852240085602,-0.0014167428016662598,3.058924921543896,-0.0019770562648773193
1745973734238907600,10.04090771484375,-0.3881367955276814,0.04801875725388527,-0.1854436230093946,-0.019506560638546944,-0.0002683824843340159,0.9694219516190883,-0.06332104698068326,left,-0.0032549500465393066,-0.31678714530197066,-3.5267905628353353,-8.62552006151378,-0.16072192607428004,0.02407161332666874,-0.001867055892944336,3.054920654338598,0.0003432333469390869
1745973734278907600,10.08090771484375,-0.38818118692747977,0.05315640568733215,-0.18567501637921252,-0.031099088490009308,0.0009728830922132106,0.9694251121211556,-0.060746510738336014,left,0.009280264377593994,-0.3166825125555505,-3.527294420704245,-8.625659177723527,-0.16043244327956546,0.022753586992621422,-0.005729705095291138,3.0539456718266007,-0.003630518913269043
1745973734318907400,10.120907470703125,-0.38917937197068725,0.03678980469703674,-0.18630275004234953,-0.027298681437969208,0.0020171728926595,0.9693054941686463,-0.05882578663047286,left,-0.00045937299728393555,-0.31702346032549744,-3.5355072455152867,-8.621170049610733,-0.16041801401457134,-0.00604097917675972,-0.002439051866531372,3.057122840557992,-0.0004711747169494629
1745973734358907600,10.16090771484375,-0.3896744216556084,0.021997662261128426,-0.1865726957585906,-0.009626742452383041,0.0026009308729673776,0.9691598187389724,-0.057969115796531516,left,0.0012745261192321777,-0.31834137101419296,-3.538241054393351,-8.615684311676025,-0.16097508783547138,-0.035016536712646484,-0.004139304161071777,3.0694004305899143,-0.0010075271129608154
1745973734398907600,10.20090771484375,-0.3896306880748089,0.008488107472658157,-0.18648909552473703,0.020664867013692856,0.0027169520260330307,0.9690286642076492,-0.05808582490648454,left,-0.004405498504638672,-0.3201421821638413,-3.5357588821887966,-8.610711783960461,-0.16185700666886652,-0.050173647701740265,-0.0015735626220703125,3.0861680255174635,0.0007424056529998779
1745973734438907600,10.24090771484375,-0.38868066697736625,0.003341629635542631,-0.18593150564296262,0.037152260541915894,0.002546874406552494,0.9689834352136957,-0.0586363753804291,left,-0.0024518966674804688,-0.3219211503024629,-3.5254908784136174,-8.608972831338644,-0.16276981785828165,-0.04566632956266403,-0.00010186433792114258,3.102722562216222,0.0030549466609954834
1745973734478907600,10.28090771484375,-0.3871658437249363,0.007708402816206217,-0.18512864298270332,0.03435807675123215,0.002379641318536678,0.9690230024805505,-0.05899500157625017,left,0.006413459777832031,-0.32325655032142614,-3.5108784156933424,-8.610459270504116,-0.16345073321506046,-0.019823579117655754,0.0012001395225524902,3.1151427755892276,0.002046346664428711
1745973734518907600,10.32090771484375,-0.3854189198394998,0.021049069240689278,-0.18430030477611511,0.04091151803731918,0.0024661720248449724,0.9691496740283372,-0.05861118725646968,left,0.0025606155395507812,-0.32370392700880213,-3.495306752552092,-8.615286836791038,-0.1636337861370083,0.0072996169328689575,0.0016459524631500244,3.119302525617182,0.004660487174987793
1745973734558907400,10.360907470703125,-0.38392899805177993,0.029928937554359436,-0.18368851927564347,0.018428785726428032,0.002954788326883489,0.9692971398121892,-0.0573199068984945,left,0.003848552703857422,-0.3235452793448694,-3.482652145901322,-8.620943839639425,-0.16344026356637265,0.025388406589627266,0.001314789056777954,3.117827484628558,0.009583652019500732
1745973734598907600,10.40090771484375,-0.3824865989530852,0.02972051315009594,-0.18316592345591107,0.023616600781679153,0.0036445635843787337,0.9694950106489375,-0.055475466356879326,left,0.005389690399169922,-0.32264508547501636,-3.4712598142713307,-8.628558406296372,-0.16283794289793319,0.0640299841761589,0.0011198818683624268,3.1094562543854116,0.007312357425689697
1745973734638907600,10.44090771484375,-0.3809001547963926,0.0060319919139146805,-0.18266562652984075,0.024039508774876595,0.0043052836112979645,0.969870421311534,-0.053237155838483756,left,0.0041634440422058105,-0.3195527376275893,-3.461124789226055,-8.64293939834833,-0.16113962770537643,0.1362323760986328,-0.0006872415542602539,3.0806808262780305,-0.0016338527202606201
1745973734678907600,10.48090771484375,-0.3796925736524443,-0.024332761764526367,-0.1824015922685198,0.012724229134619236,0.00467960447988503,0.9703994340483697,-0.05115679738346614,left,0.003350555896759033,-0.3139038986588566,-3.457079897749424,-8.66313755224645,-0.15821679750980638,0.1739785075187683,-0.003144770860671997,3.028039953936636,-0.002008795738220215
1745973734718907600,10.52090771484375,-0.3789964310514321,-0.04185657203197479,-0.18231673559146047,0.01667514070868492,0.004563976987089206,0.9709190093129353,-0.05006295087461114,left,0.000913083553314209,-0.3076742811552712,-3.4579607722371817,-8.682899068292976,-0.15509984438673777,0.14009028673171997,-0.001970916986465454,2.969875057476759,0.0006147325038909912
1745973734758907600,10.56090771484375,-0.37859534546583573,-0.05061733350157738,-0.18222679136143263,0.011019335128366947,0.004009109556869656,0.9712832535502733,-0.05025803112451233,left,0.003945887088775635,-0.30315014991339495,-3.459408632957935,-8.696680925408005,-0.15292503660858844,0.07693015038967133,-0.0017955601215362549,2.927561810143292,-0.0013645291328430176
1745973734798907400,10.600907470703126,-0.3788341787195302,-0.04889925569295883,-0.18230766234410178,-0.0018706079572439194,0.003166586882922107,0.971436185408117,-0.051558711800606664,left,0.006768286228179932,-0.3007367677040978,-3.4640886074677106,-8.702393457835912,-0.15187276621409895,0.027860861271619797,-0.0017260909080505371,2.904965362931788,-0.0010568797588348389
1745973734838907600,10.64090771484375,-0.379516377816725,-0.03080143593251705,-0.18255833149160527,-0.00578265031799674,0.0024289235412069724,0.9714486833274086,-0.05298365253690736,left,0.0012524127960205078,-0.2997134120269018,-3.4711239129319784,-8.702785087502003,-0.15150546352837854,0.004501333460211754,-0.0010461211204528809,2.8953786194190383,-0.0001958310604095459
1745973734878907600,10.68090771484375,-0.37987021014388894,-0.00940934382379055,-0.18268515800764001,-0.0010204869322478771,0.002080026037231051,0.9714400774536252,-0.05369372405223994,left,-0.0003260970115661621,-0.29939000360499857,-3.4745500879883764,-8.702425606539846,-0.1514130551947076,0.0016591912135481834,0.0019089281558990479,2.892348165681958,-0.0061435699462890625
1745973734918907600,10.72090771484375,-0.37987021014388894,0.013125769793987274,-0.18268515800764001,-0.008230619132518768,0.002080026037231051,0.9714400774536252,-0.05369372405223994,left,0.00046509504318237305,-0.29939000360499857,-3.4745500879883764,-8.702425606539846,-0.1514130551947076,-0.004847533069550991,0.002377748489379883,2.892348165681958,-0.0065360963344573975
1745973734958907600,10.76090771484375,-0.38020547079995354,0.04391620308160782,-0.18289591432006896,-0.02097667008638382,0.0026481012208016824,0.9713461634712386,-0.0527486192691622,left,0.0033208131790161133,-0.300267579930056,-3.476524310670793,-8.698899770501255,-0.1517518585280843,-0.02826341614127159,0.0001703798770904541,2.9005703428432343,-0.0024781525135040283
1745973734998907600,10.80090771484375,-0.3806257200488523,0.06455972790718079,-0.18316283389135493,-0.027921665459871292,0.0036737347045731157,0.9711465465111887,-0.05113948702550117,left,-0.0020033717155456543,-0.3024934000640102,-3.4777725571662184,-8.691421981966496,-0.1526832069640571,-0.04844652861356735,-0.0031052827835083008,2.921414393429458,-0.003634154796600342
1745973735038907600,10.84090771484375,-0.38085143769898766,0.06283506751060486,-0.18331580470648293,-0.011943619698286057,0.004780812875988528,0.9708996502426467,-0.04950280206975661,left,-0.0037946701049804688,-0.30558840016500105,-3.476356552888453,-8.682201733678578,-0.15403320503020748,-0.06972935795783997,-0.0033423304557800293,2.95037394593209,-0.0014251172542572021
1745973735078907400,10.880907470703125,-0.3809905085405881,0.040793079882860184,-0.18335304441914604,-0.0077626365236938,0.00553149834190143,0.9706251181307142,-0.04867867341414127,left,0.0024196505546569824,-0.3091529167844507,-3.4736315118387338,-8.671900119894742,-0.15568491971932877,-0.08470311015844345,-0.0007934868335723877,2.9836914013832807,0.00035825371742248535
1745973735118907600,10.92090771484375,-0.38126539826881706,0.010343991219997406,-0.18339332014919535,0.0027314540930092335,0.005740216833103404,0.9703834862490432,-0.048872018316058495,left,-0.0006656646728515625,-0.3120991368534934,-3.472729010041058,-8.66274826066792,-0.15712942915973319,-0.06220775842666626,0.0015277266502380371,3.01120133959949,-0.0014364123344421387
1745973735158907600,10.96090771484375,-0.3810232207362818,0.0015607988461852074,-0.1831907383573888,0.007469454780220985,0.0056646200625111946,0.9702735204243843,-0.04934250646159416,left,0.005899488925933838,-0.31389943315095203,-3.468609592023492,-8.658542625671625,-0.15804536067013752,-0.03795195370912552,-0.002542853355407715,3.0279984528824686,0.0057968199253082275
1745973735198907600,11.00090771484375,-0.3808916505093066,-0.00005923479329794645,-0.18305851309503152,0.0030843662098050117,0.005588449567672279,0.9701851982546565,-0.04974545631668713,left,0.004243731498718262,-0.3152595920465404,-3.4659359889000654,-8.655167011758685,-0.15874147223700324,-0.03466254845261574,-0.005184382200241089,3.0406822856277227,0.008686572313308716
1745973735238907600,11.04090771484375,-0.3808493554108806,-0.009456293657422066,-0.18293413204881095,0.011575940996408463,0.00536048184920149,0.9700735999521148,-0.050517172316462404,left,0.0029485225677490234,-0.3168295703309516,-3.4637910858258603,-8.650871360391378,-0.15957256769006392,-0.05198533833026886,-0.0021341443061828613,3.055316083396971,0.008834660053253174
1745973735278907600,11.08090771484375,-0.38070943155200787,-0.024279635399580002,-0.18268507881223625,0.030232394114136696,0.004759890520506688,0.9699441068501089,-0.05211480858769295,left,0.00022846460342407227,-0.3187739080768541,-3.4603666643351314,-8.645824598395825,-0.1606604702443486,-0.05069192498922348,0.0011487007141113281,3.073428663192689,0.006232321262359619
1745973735318907400,11.120907470703125,-0.3801018839264194,-0.03787483274936676,-0.18220978781478675,0.027237150818109512,0.003885141887294354,0.9699283914349294,-0.054013693178339164,left,0.0049926042556762695,-0.31977068988649965,-3.4539752097323535,-8.645076410377024,-0.16131761069769918,-0.019155140966176987,0.00007128715515136719,3.0827097017571328,0.0036824941635131836
1745973735358907600,11.16090771484375,-0.3797731199075619,-0.038485221564769745,-0.18193097909072753,0.01993226818740368,0.0030164567125838247,0.969996418598514,-0.055658261240405606,left,0.0031718015670776367,-0.31930285058989477,-3.451666932789981,-8.64754952249229,-0.16124139505654445,0.01620761677622795,0.0017039179801940918,3.078354136896133,0.004997044801712036
1745973735398907600,11.20090771484375,-0.3791271114419175,-0.02398991398513317,-0.1815959257933376,0.015355009585618973,0.002452022543686745,0.9701636402206646,-0.05643440772991714,left,0.005108535289764404,-0.317875084800341,-3.4477029975950715,-8.65385183750689,-0.16062148675870405,0.040221717208623886,0.00011894106864929199,3.065057140688598,0.0023607611656188965
1745973735438907600,11.24090771484375,-0.37873897910989673,-0.005995331332087517,-0.18147721063233613,0.0055766962468624115,0.002341783455510202,0.9703386601913422,-0.05623094472968135,left,0.0026653409004211426,-0.3160055357251905,-3.4464567969262596,-8.660498435914516,-0.1596980653357181,0.053119346499443054,-0.00037989020347595215,3.047636342549324,0.000010401010513305664
1745973735478907600,11.28090771484375,-0.37855549386245496,0.0012046373449265957,-0.18150510533797354,-0.006379811093211174,0.0025598504165723606,0.9704877029447011,-0.055400010044832096,left,0.0026993155479431152,-0.31421159203076227,-3.4468826211228967,-8.66619693981707,-0.15875394752558872,0.04914412274956703,-0.002113252878189087,3.0309099564149973,-0.005028188228607178
1745973735518907600,11.32090771484375,-0.3789472825624751,-0.009852664545178413,-0.18178238142372863,-0.014815261587500572,0.0026936523249478485,0.9705710644437197,-0.05487171377783788,left,0.0021634697914123535,-0.31259576113716275,-3.452084865941107,-8.669384337681532,-0.15792265531137797,0.03507552668452263,-0.003954023122787476,3.0158357214018703,-0.008736222982406616
1745973735558907400,11.360907470703125,-0.37958526315056884,-0.017978627234697342,-0.18212009549632555,-0.008762745186686516,0.0025669961522968836,0.9706096996448401,-0.05497951414745396,left,-0.0012240409851074219,-0.3112862939014196,-3.459075455480814,-8.67084096623063,-0.15729719244717674,0.02305563911795616,-0.004572540521621704,3.003614245471358,-0.009561300277709961
1745973735598907600,11.40090771484375,-0.38010384709168565,-0.023116756230592728,-0.1823552165797193,-0.0013668453320860863,0.002183064206370898,0.9706512519924821,-0.055618712206933624,left,-0.001080155372619629,-0.3100857067764577,-3.464906938113272,-8.672388195672632,-0.15677313033195392,0.01153055764734745,-0.004283815622329712,2.992403992410004,-0.007659405469894409
1745973735638907600,11.44090771484375,-0.38032234103930984,-0.01974165439605713,-0.1824187825106132,0.006059695966541767,0.0017356015570495265,0.9706865775490702,-0.05642929585577516,left,0.0002988576889038086,-0.30933994295616785,-3.4676290565535424,-8.673701031836867,-0.15648550723555962,0.0014632567763328552,-0.0033951997756958008,2.9854385373115537,-0.003955572843551636
1745973735678907600,11.48090771484375,-0.38037624615230714,-0.011981280520558357,-0.18239480614023543,0.0056471871212124825,0.0013366587010736016,0.9707070614495211,-0.05719314308068875,left,0.002307593822479248,-0.30900041758449875,-3.468472813901305,-8.674454480552672,-0.1563906152321455,-0.0015075162518769503,-0.0022440850734710693,2.9822669215381143,-0.003405541181564331
1745973735718907600,11.52090771484375,-0.3803208142461685,-0.0001921011134982109,-0.18236392989417646,-0.0014767139218747616,0.0011983417096121448,0.9707415317664321,-0.05739009419346834,left,0.005559027194976807,-0.30859848485733044,-3.4684368658050895,-8.675759133410454,-0.15621385756389042,0.007049243897199631,-0.002552330493927002,2.978511660657823,-0.0020363330841064453
1745973735758907600,11.56090771484375,-0.3803208142461685,0.010334436781704426,-0.18236392989417646,-0.0032366050872951746,0.0011983417096121448,0.9707415317664321,-0.05739009419346834,left,0.000863194465637207,-0.30859848485733044,-3.4684368658050895,-8.675759133410454,-0.15621385756389042,0.010590423829853535,-0.0024289190769195557,2.978511660657823,-0.0015281438827514648
1745973735798907400,11.600907470703126,-0.37975970496897526,0.013647854328155518,-0.18217086763107632,0.024188384413719177,0.0015617899810276019,0.9708149814029181,-0.05648894179076067,left,-0.004087328910827637,-0.3082823154375544,-3.463917050293088,-8.67857828248441,-0.15597892444889994,0.006497647147625685,-0.0007528364658355713,2.975557487027347,-0.0024508237838745117
1745973735838907600,11.64090771484375,-0.3789042360651792,0.0015873908996582031,-0.18178492392568882,0.014138495549559593,0.001694100754661405,0.9708880523133656,-0.05609092028103724,left,0.003127872943878174,-0.3083433991598154,-3.4564243564501402,-8.681369374507666,-0.15597300703599842,-0.011388245970010757,-0.000046253204345703125,2.976128272652626,-0.001891106367111206
1745973735878907600,11.68090771484375,-0.37833645382371184,0.004665029235184193,-0.18147353806471497,0.017116796225309372,0.0016079174176596074,0.970891059513812,-0.05630816248332618,left,0.001116931438446045,-0.30901252233072724,-3.450758293512463,-8.681478095579147,-0.15631748167283555,-0.026241322979331017,0.0008280277252197266,2.9823800265237685,0.0018583238124847412
1745973735918907600,11.72090771484375,-0.3778187927855341,0.017191553488373756,-0.18119302452936664,0.0024803103879094124,0.0017015629507219675,0.9708524844113406,-0.05626064858861973,left,0.007655322551727295,-0.3101830655812065,-3.44497357263118,-8.680012699201702,-0.1568808614312756,-0.026630740612745285,-0.0016039609909057617,2.9933132162094114,0.002691298723220825
1745973735958907600,11.76090771484375,-0.37789627860935543,0.026348840445280075,-0.18123787748240727,-0.011646609753370285,0.0020867808298290417,0.9707535593038789,-0.05572297938634059,left,0.00287705659866333,-0.3114284761549424,-3.4442680547103284,-8.676274097195266,-0.15743558194966636,-0.0225034411996603,-0.0019817352294921875,3.0049414024218914,0.0028348565101623535
1745973735998907600,11.80090771484375,-0.3780793896853234,0.019013796001672745,-0.18132761386219842,-0.002602316439151764,0.0024737660675430155,0.9706351096228034,-0.05522382008684788,left,0.000493466854095459,-0.31280159098418553,-3.44433030629158,-8.671800166651606,-0.1580554616609813,-0.021213458850979805,-0.0013695955276489258,3.01775646033138,0.0007694363594055176
1745973736038907600,11.84090771484375,-0.3781662142994824,0.0016698352992534637,-0.18135326697901408,0.006289836019277573,0.002625832160546438,0.970558794021218,-0.05510511562310434,left,-0.0022490620613098145,-0.3137246001628232,-3.4440532429158686,-8.668909121385216,-0.15849177269957257,-0.009675594978034496,-0.00003746151924133301,3.026367636810243,-0.003604114055633545
1745973736078907400,11.880907470703125,-0.3781662142994824,-0.006171902641654015,-0.18135326697901408,0.00823341403156519,0.002625832160546438,0.970558794021218,-0.05510511562310434,left,0.0028551816940307617,-0.3137246001628232,-3.4440532429158686,-8.668909121385216,-0.15849177269957257,0.0009977258741855621,-0.0016764700412750244,3.026367636810243,-0.0010238289833068848
1745973736118907600,11.92090771484375,-0.3781662142994824,-0.004281605593860149,-0.18135326697901408,0.012805886566638947,0.002625832160546438,0.970558794021218,-0.05510511562310434,left,-0.00199282169342041,-0.3137246001628232,-3.4440532429158686,-8.668909121385216,-0.15849177269957257,-0.004006922245025635,-0.001144498586654663,3.026367636810243,0.0017289817333221436
1745973736158907600,11.96090771484375,-0.3771216309271103,0.004395253024995327,-0.18079866105025574,0.025577150285243988,0.002329455979582276,0.9706321706692056,-0.0556024752863252,left,-0.002123534679412842,-0.31401806717490544,-3.4346687439769505,-8.671675663489102,-0.1586802849247048,-0.014110695570707321,-0.00037854909896850586,3.029104952819645,0.0020096898078918457
1745973736198907600,12.00090771484375,-0.37604686078041416,0.007794320583343506,-0.18023426710623522,0.025552181527018547,0.0022020208965768677,0.9706684230053129,-0.05584931400653146,left,0.0016059279441833496,-0.31484046128551085,-3.4244308430790897,-8.67304227566719,-0.15910222888069112,-0.023342018947005272,0.0013921558856964111,3.036774464534223,0.002535700798034668
1745973736238907600,12.04090771484375,-0.3751772809273035,0.009810523129999638,-0.17977370895444697,0.01898159459233284,0.0021655180187647918,0.9706719892650035,-0.05597699215589863,left,0.002955496311187744,-0.3158450855861505,-3.41576793641299,-8.673173793092369,-0.15960142140236522,-0.023693516850471497,0.0020329654216766357,3.046140551033616,0.002725958824157715
1745973736278907600,12.08090771484375,-0.3745387452250385,0.011524862609803677,-0.17943826792188233,0.009656923823058605,0.0022340950816891396,0.9706518601539292,-0.055931176452601386,left,0.004213094711303711,-0.31687950537346854,-3.4090745762541887,-8.672415668201445,-0.16009920668483812,-0.019672146067023277,0.0015505552291870117,3.0557813628211616,0.0030324161052703857
1745973736318907400,12.120907470703125,-0.3745387452250385,-0.002557438798248768,-0.17943826792188233,-0.003215647302567959,0.0022340950816891396,0.9706518601539292,-0.055931176452601386,left,0.0021550655364990234,-0.31687950537346854,-3.4090745762541887,-8.672415668201445,-0.16009920668483812,0.010277669876813889,0.0018115043640136719,3.0557813628211616,0.003293633460998535
1745973736358907600,12.16090771484375,-0.3746436611377376,-0.018678128719329834,-0.17950880485379317,-0.0049440315924584866,0.0021358003230346877,0.9707061561818278,-0.055986134842927374,left,0.003921806812286377,-0.3160289755274248,-3.410934232646227,-8.674473769775032,-0.15969192187763837,0.03727976232767105,0.002579987049102783,3.047854661475122,0.0065641701221466064
1745973736398907600,12.20090771484375,-0.3748999542060272,-0.03048645332455635,-0.17966156669075675,-0.006193678826093674,0.001809006695166257,0.9708288960250411,-0.056322615377593144,left,0.002301454544067383,-0.31407530498784547,-3.415331298561394,-8.67912364140749,-0.15877521030534572,0.054547011852264404,0.0008128881454467773,3.029638913565874,0.002447068691253662
1745973736438907600,12.24090771484375,-0.3751734323037173,-0.025787338614463806,-0.17983743536805355,-0.01031029224395752,0.0014523165838460283,0.9709821815863339,-0.05663542829413901,left,0.00492936372756958,-0.3116710670216079,-3.4203637397706506,-8.68494138777554,-0.15763793971616,0.06074776500463486,0.0015519559383392334,3.0072058402225372,0.0027779340744018555
1745973736478907600,12.28090771484375,-0.3757053296252927,-0.0053651221096515656,-0.18016942292863114,-0.020179439336061478,0.00141713048875845,0.9710798594193824,-0.05640825087006604,left,0.004302859306335449,-0.3096850336514678,-3.4271675745666026,-8.688659531515837,-0.15665448015109068,0.04386292025446892,-0.00012770295143127441,2.9886618832722305,0.0021715760231018066
1745973736518907600,12.32090771484375,-0.37637562054875945,0.012025294825434685,-0.18057441680633832,-0.02061852440237999,0.0017108182855816215,0.9710876710257293,-0.05572817004868906,left,0.0031095147132873535,-0.30874319931443384,-3.434023724071681,-8.688974588814377,-0.15613607883570657,0.02255518175661564,-0.0020181238651275635,2.979863659788668,-0.00038239359855651855
1745973736558907400,12.360907470703125,-0.37733693740306296,0.015809910371899605,-0.18113100426189097,-0.034303583204746246,0.002192987133760329,0.9710413213886173,-0.05477866160308551,left,0.005249381065368652,-0.3081743956977054,-3.442999057687819,-8.687243819499015,-0.15577355062300696,0.027739286422729492,-0.0031100809574127197,2.9745488945066927,-0.0011939704418182373
1745973736598907600,12.40090771484375,-0.3781266594645326,0.030468791723251343,-0.1816419161798222,-0.008705023676156998,0.002860130910638551,0.9710197433911827,-0.05339184072108242,left,-0.008419454097747803,-0.3074610438567438,-3.4506408046126364,-8.686491539826989,-0.1553010046186122,0.028430601581931114,-0.0021021366119384766,2.9678821300938725,0.0012648999691009521
1745973736638907600,12.44090771484375,-0.37773884778526945,0.023150131106376648,-0.18161408430965134,0.0014518871903419495,0.003631789742834337,0.9711079670748082,-0.05159051395663802,left,-0.0005001425743103027,-0.30669193232660363,-3.4481127474397417,-8.689948402282596,-0.1547651913960352,0.03764515742659569,-0.000844806432723999,2.9606925108507274,-0.008213162422180176
1745973736678907600,12.48090771484375,-0.3773561458769435,0.01910524256527424,-0.18158288789651203,-0.0038682473823428154,0.004263776746433132,0.9712255949159856,-0.04999692110580018,left,0.004093050956726074,-0.30550494644965326,-3.446079195785522,-8.694528131288289,-0.15404573474711142,0.0408746637403965,-0.0020703375339508057,2.949593316948414,-0.006132215261459351
1745973736718907600,12.52090771484375,-0.3773889336918545,0.018080156296491623,-0.18172616848610693,-0.011435205116868019,0.004800651231544206,0.9712948576040457,-0.04869435344404012,left,0.0036011934280395508,-0.30446579985481814,-3.4474919851928947,-8.697259602078795,-0.15342343108443468,0.020494511350989342,-0.004583090543746948,2.9398730101838706,-0.002842813730239868
1745973736758907600,12.56090771484375,-0.37746026321933873,0.022109255194664,-0.18181764927473917,0.004308339208364487,0.005234816132070802,0.9712669620296926,-0.04786349927966396,left,-0.0020348429679870605,-0.30473242858327515,-3.447823409104347,-8.696284619566798,-0.1534770511148376,-0.020858610048890114,-0.0031330883502960205,2.9423674573481082,0.0007866024971008301
1745973736798907400,12.600907470703126,-0.37717519854317955,0.014888947829604149,-0.18166414670087241,0.01505484338849783,0.00546766014270801,0.9711937671307729,-0.04760298569178753,left,-0.0006300806999206543,-0.30609056380312005,-3.443869410781562,-8.693544380947946,-0.1541127434566099,-0.03446895256638527,-0.003911882638931274,2.9550697025328874,-0.0019816160202026367
1745973736838907600,12.64090771484375,-0.37681571629670746,0.006725559011101723,-0.18144175915773936,0.009505292400717735,0.005517709134316166,0.9711195647942134,-0.0477288240730492,left,0.004877686500549316,-0.3075629152212766,-3.4391391673892735,-8.690726400917768,-0.15483908488859968,-0.03268842771649361,-0.0025245845317840576,2.9688343162521718,-0.0013070106506347656
1745973736878907600,12.68090771484375,-0.3764604362893894,-0.000762545969337225,-0.18121251154992546,0.021503763273358345,0.005418571675667171,0.9710720635438452,-0.048090560813898266,left,-0.0007205605506896973,-0.30866672320306987,-3.434844685065746,-8.68889509383738,-0.15540804168619426,-0.02787112444639206,-0.0002830624580383301,2.979149081778526,0.00019973516464233398
1745973736918907600,12.72090771484375,-0.3755953997533269,-0.006385856308043003,-0.18072679195647368,0.027960898354649544,0.005182497715702474,0.971082859828715,-0.048620049502837465,left,0.0031261444091796875,-0.3096050715386063,-3.4263001440823078,-8.689258666452766,-0.15591320225362357,-0.021029680967330933,-0.001719057559967041,2.987915156558156,-0.003023386001586914
1745973736958907600,12.76090771484375,-0.37476440597605143,-0.00825926847755909,-0.18027294319727788,0.02650025300681591,0.004896179837627065,0.9711329119130455,-0.04914534997661621,left,0.0013696551322937012,-0.30996238937126686,-3.4186870387300847,-8.691108678233624,-0.15613595067356348,-0.0068046534433960915,-0.0003256499767303467,2.9912524842873216,-0.0039685070514678955
1745973736998907600,12.80090771484375,-0.3739292541944847,-0.003969685640186071,-0.1798470288229876,0.017329324036836624,0.004668898785246294,0.9712189473358412,-0.04945263373030598,left,0.0044574737548828125,-0.30982507161324974,-3.4115774989858267,-8.694343422371148,-0.15609902755955204,-0.000010694842785596848,-0.0032893121242523193,2.989969751000404,-0.00316542387008667
1745973737038907600,12.84090771484375,-0.3734712738230664,-0.0040612174198031425,-0.17959803140318994,0.016621988266706467,0.0045124794640432194,0.9712479873299522,-0.04973458625778389,left,-0.0015515685081481934,-0.3099987483159186,-3.4074057662591337,-8.695421280735731,-0.15620963107456742,-0.02466033585369587,-0.002361387014389038,2.9915917992442846,-0.00037735700607299805
1745973737078907400,12.880907470703125,-0.37285797581367375,-0.016375508159399033,-0.17918943123505013,0.033222295343875885,0.004090154135304232,0.9712157894807268,-0.05073887893124907,left,-0.002832174301147461,-0.31121116235674906,-3.400748646457493,-8.694124811184405,-0.15688893318010985,-0.05212019756436348,0.001457512378692627,3.0029128192037344,-0.000025928020477294922
1745973737118907600,12.92090771484375,-0.3721546873184564,-0.025499362498521805,-0.1786673249894599,0.031434085220098495,0.0033232383388377383,0.9711671579021907,-0.05250303750311095,left,0.0037484169006347656,-0.3127644563862551,-3.392933004270494,-8.69215906406939,-0.15780117837852017,-0.049046844244003296,0.0011099278926849365,3.017409838850796,0.00024881958961486816
1745973737158907600,12.96090771484375,-0.3716076531709623,-0.010256551206111908,-0.17826626394669456,0.01713418960571289,0.002710188291060946,0.9711435192634605,-0.05386939371175246,left,0.004710078239440918,-0.3137682610264704,-3.3870760949358343,-8.69118700416684,-0.15841058873307734,-0.025989994406700134,0.0004220902919769287,3.0267747563064096,0.003686964511871338
1745973737198907600,13.00090771484375,-0.3715094081204363,0.011188233271241188,-0.17818185364765202,-0.0007537808269262314,0.0026254733489411244,0.9711106933101169,-0.05413623249411291,left,0.003719627857208252,-0.3143327290391633,-3.385601346208155,-8.689926774972676,-0.15870813811228593,-0.014983118511736393,-0.00034540891647338867,3.0320395449668167,0.004722088575363159
1745973737238907600,13.04090771484375,-0.3714144236978422,0.015930548310279846,-0.17814887819835076,-0.00020213582320138812,0.0029173204719734613,0.9710560278980822,-0.05368047319411784,left,0.001237630844116211,-0.315170399103922,-3.3838530412361023,-8.687878025749326,-0.15907374959082982,-0.014128954149782658,-0.0012587010860443115,3.039850803239643,0.0021901726722717285
1745973737278907600,13.08090771484375,-0.37116502387730527,0.0019789887592196465,-0.1780174336397538,0.01277666725218296,0.003065457630251235,0.9710117308100825,-0.05350451580703752,left,-0.0026891231536865234,-0.31605652784737887,-3.3807077289476988,-8.68620804671049,-0.15948799656458326,-0.01711677387356758,0.000348895788192749,3.048111558845639,-0.002116590738296509
1745973737318907400,13.120907470703125,-0.37073497936028976,-0.018334701657295227,-0.17774966230858227,0.019122213125228882,0.002779319988326687,0.9710202072630422,-0.05410180123575278,left,0.0013390183448791504,-0.3164665370447241,-3.3765190450862046,-8.686495631480216,-0.1597404806689033,-0.008863978087902069,0.0005586743354797363,3.0519328706994653,-0.004090934991836548
1745973737358907600,13.16090771484375,-0.37065741014321385,-0.020209062844514847,-0.17763658811935007,0.005479848012328148,0.002255948467922156,0.9710451176957996,-0.0551240517590055,left,0.0034475326538085938,-0.3162424115679022,-3.376092928628623,-8.687395210668445,-0.15972277116628203,-0.005670497193932533,0.0004368126392364502,3.04984408172667,0.0005734562873840332
1745973737398907600,13.20090771484375,-0.37071692591008726,-0.005051172338426113,-0.17762428782688205,0.009832079522311687,0.0019476293448683324,0.9710582624398446,-0.0557232454949751,left,-0.003829777240753174,-0.3160045357069081,-3.3768726808294653,-8.68786984244287,-0.15966062135817818,-0.003929127939045429,-0.0023527443408966064,3.0476269901990887,0.0015164017677307129
1745973737438907600,13.24090771484375,-0.3702731685409744,0.011649700812995434,-0.1774022877992215,0.006445823237299919,0.0019641687417306652,0.9710716598397411,-0.05568289719998558,left,0.0054138898849487305,-0.31635265469244,-3.3726328513026234,-8.688378376486897,-0.1598262020033002,-0.006792128086090088,-0.002987205982208252,3.050871671208739,0.0017164349555969238
1745973737478907600,13.28090771484375,-0.369979730425439,0.021262262016534805,-0.17728967797611972,0.0024701645597815514,0.0023076461560496376,0.9710438112004534,-0.05506265137406468,left,0.00367814302444458,-0.31706036597715037,-3.3693016610532998,-8.687351956048607,-0.16011458673411785,-0.010599466040730476,-0.00170937180519104,3.057466831690073,0.0017376840114593506
