time,seconds_elapsed,roll,rotationRateZ,quaternionY,rotationRateY,quaternionZ,quaternionW,yaw,devicelocation,accelerationZ,pitch,gravityX,gravityZ,quaternionX,rotationRateX,accelerationX,gravityY,accelerationY
1745973789836305000,0.270304931640625,-0.3144813569614762,-0.11064845323562622,-0.1462956661379057,0.031763069331645966,2.930688504271864e-17,0.9668838332454935,-0.0669526578314052,left,0.004587233066558838,-0.4163207788350802,-2.774319752150774,-8.529127725729346,-0.20912452495502687,0.004405288491398096,-0.0016144216060638428,3.9657928054749965,-0.0007219016551971436
1745973789876305000,0.310304931640625,-0.3190456805476498,-0.09063837677240372,-0.14766634720374458,0.01866540126502514,-0.0034950357169551962,0.9665891064249257,-0.07509089017896081,left,-0.0002949237823486328,-0.41583841208630207,-2.813819987890124,-8.51819132117331,-0.2094939973947942,0.01505297888070345,0.0015354156494140625,3.9614658821865913,-0.0005254745483398438
1745973789916305000,0.350304931640625,-0.31883958641538707,-0.08349739015102386,-0.1473595693025476,0.011945601552724838,-0.004457791073683491,0.9665946391434457,-0.077048229722377,left,-0.00005692243576049805,-0.4158975492951725,-2.8119910188972947,-8.518549048569797,-0.20966644641463839,0.02380869910120964,-0.0004335939884185791,3.961996335801482,-0.0022373199462890625
1745973789956305200,0.39030517578125,-0.31907051929680497,-0.0741555467247963,-0.14733663508773834,-0.005727047100663185,-0.0052961573143999,0.9666715095304875,-0.07866553362786664,left,0.0027413368225097656,-0.41490627534004443,-2.815188645894825,-8.52162421823144,-0.20930832845206368,0.037275172770023346,-0.001748114824295044,3.9531022507280107,-0.004222750663757324
1745973789996305000,0.430304931640625,-0.3207415427692419,-0.0385434627532959,-0.14800014192938785,-0.03547978401184082,-0.006665540972480363,0.966887576446855,-0.0812587489641613,left,0.0022725462913513184,-0.41136537819429114,-2.8338199888676403,-8.530138364076613,-0.20779777536793345,0.059753358364105225,-0.006567597389221191,3.9212992914929985,-0.004281401634216309
1745973790036305000,0.470304931640625,-0.32170963911160244,-0.02817966230213642,-0.1485095326673517,-0.015474740415811539,-0.006823251864111038,0.9669906046294958,-0.08148539718295254,left,-0.012761116027832031,-0.4095610524572279,-2.844308941917121,-8.534089147529006,-0.20694790396092158,0.07452710717916489,-0.003370940685272217,3.905074717400968,-0.00790819525718689
1745973790076305000,0.510304931640625,-0.3221803764127475,-0.024640008807182312,-0.14879766454757262,0.006354965269565582,-0.0069972440868769975,0.9671505352985541,-0.08160159362982648,left,-0.005974173545837402,-0.40754374720379044,-2.850814670549333,-8.540204415538907,-0.20598540756531877,0.07890169322490692,-0.0020071864128112793,3.886919759768247,-0.009034842252731323
1745973790116305000,0.550304931640625,-0.3223088899620983,-0.031570617109537125,-0.1490197118577323,0.010746209882199764,-0.00768815726167127,0.9676942171261487,-0.08206904078349167,left,-0.0006333589553833008,-0.4017551512182456,-2.8589912550032137,-8.561036191165448,-0.20322830807020534,0.05450255796313286,0.002817898988723755,3.834737737110257,-0.009067773818969727
1745973790156305000,0.590304931640625,-0.32191647044609634,-0.03396046161651611,-0.14887556724584516,-0.008273464627563953,-0.008054700391622685,0.9679262603314244,-0.08237754383583694,left,0.006776392459869385,-0.3996050810584769,-2.858233422373235,-8.569958917811512,-0.20221213109963823,0.03883247822523117,-0.00034111738204956055,3.8153225502833723,-0.008509069681167603
1745973790196305000,0.630304931640625,-0.32236153425132474,-0.017886746674776077,-0.14909098313554697,-0.007412209641188383,-0.00837926598608101,0.9680281996529946,-0.08289321524578006,left,-0.0010616183280944824,-0.39815286085868307,-2.8637998243287206,-8.573932497617601,-0.20155141000931534,0.014894941821694374,0.0014271736145019531,3.802199157077074,0.00022175908088684082
1745973790236305000,0.670304931640625,-0.3225196800565256,-0.0015734508633613586,-0.1491821646707304,-0.007237171288579702,-0.00841268874435385,0.9680605729143742,-0.08291505142184273,left,-0.0006298422813415527,-0.3976836859703718,-2.8657208555191755,-8.575170514979957,-0.2013272155588548,0.005351373925805092,0.0003114938735961914,3.797957866245508,0.00026148557662963867
1745973790276305000,0.710304931640625,-0.3225196800565256,0.01473984494805336,-0.1491821646707304,-0.007062133401632309,-0.00841268874435385,0.9680605729143742,-0.08291505142184273,left,-0.0003243088722229004,-0.3976836859703718,-2.8657208555191755,-8.575170514979957,-0.2013272155588548,-0.004192193038761616,-0.0010000765323638916,3.797957866245508,-0.00013133883476257324
1745973790316305000,0.750304931640625,-0.32321455204204813,0.02444664016366005,-0.14969893816399596,-0.02442878484725952,-0.007557125182523204,0.968045794970943,-0.0812364792429314,left,0.00001239776611328125,-0.3973595162001023,-2.872069640024006,-8.57434400102794,-0.20104809618132297,0.014952306635677814,-0.0026975274085998535,3.79502648896873,-0.00495031476020813
1745973790356305000,0.790304931640625,-0.32392984019229304,0.008851474151015282,-0.1502202804909401,-0.011969242244958878,-0.006804425200666348,0.9680582161277679,-0.07971948058874496,left,-0.00006181001663208008,-0.3967146914882269,-2.8789801500648258,-8.574605282312632,-0.20062564189757667,0.01937014050781727,-0.002597987651824951,3.7891950063362714,-0.00781393051147461
1745973790396305000,0.830304931640625,-0.32401335056572844,-0.0016669975593686104,-0.15032204756077308,-0.0015925467014312744,-0.00674597968453077,0.9681444866748053,-0.07944901314373619,left,-0.0016907453536987305,-0.39573910246701904,-2.8808719551607966,-8.577865160891413,-0.2001345961116766,0.01963377185165882,-0.0018246471881866455,3.780369018062949,-0.006327956914901733
1745973790436305000,0.870304931640625,-0.3241896818313752,-0.0075621590949594975,-0.15042475336859562,-0.001995751867070794,-0.006854322690133524,0.9682087553047501,-0.07956691049017103,left,-0.0011287927627563477,-0.3949079384281528,-2.8833842302426693,-8.58033242778778,-0.1997427373716283,0.01988060399889946,-0.0016005933284759521,3.7728465136036275,-0.005371004343032837
1745973790476305000,0.910304931640625,-0.3246817174508086,-0.006398000288754702,-0.15070122302527303,-0.007028382271528244,-0.007143291721482573,0.9683633880775607,-0.07991074089048898,left,0.002091050148010254,-0.39284079259605126,-2.8900875272735953,-8.586285783234239,-0.1987721565360231,0.015120700933039188,-0.001398235559463501,3.7541272000864145,-0.0031224191188812256
1745973790516305000,0.950304931640625,-0.3249177292809393,-0.001231411937624216,-0.15083946113505886,-0.009842008352279663,-0.007122229671392555,0.968389589776809,-0.07983512704425437,left,0.0024867653846740723,-0.3923714581554695,-2.892676082462072,-8.58727245618403,-0.19854062754149004,0.010883951559662819,-0.0013321936130523682,3.749874803338945,-0.0027230381965637207
1745973790556305000,0.990304931640625,-0.3249177292809393,0.004035202320665121,-0.15083946113505886,-0.014595959335565567,-0.007122229671392555,0.968389589776809,-0.07983512704425437,left,0.0027493834495544434,-0.3923714581554695,-2.892676082462072,-8.58727245618403,-0.19854062754149004,0.004271404352039099,-0.0023818910121917725,3.749874803338945,-0.0027683377265930176
1745973790596305000,1.030304931640625,-0.3249177292809393,0.009301817044615746,-0.15083946113505886,-0.01934991031885147,-0.007122229671392555,0.968389589776809,-0.07983512704425437,left,0.0030120015144348145,-0.3923714581554695,-2.892676082462072,-8.58727245618403,-0.19854062754149004,-0.002341141924262047,-0.003431558609008789,3.749874803338945,-0.0028136372566223145
1745973790636305000,1.070304931640625,-0.32656379084904646,0.015313609503209591,-0.15169726497730918,-0.011263608932495117,-0.006577103607529882,0.9682363376698503,-0.07910439607557396,left,-0.0030625462532043457,-0.39270623229905016,-2.9064044558241964,-8.581309748387337,-0.19865268475248662,-0.021306265145540237,-0.002225726842880249,3.7529078874245285,-0.0021989941596984863
1745973790676305000,1.110304931640625,-0.3265848424028712,0.00850431527942419,-0.15169026445840417,0.008639363572001457,-0.006443480265118472,0.9681563000831342,-0.07897886258657971,left,-0.003744781017303467,-0.3935541292111652,-2.905563328824937,-8.578231656116246,-0.19905261149030687,-0.024592101573944092,-0.00031495094299316406,3.760588797315955,-0.003941267728805542
1745973790716305000,1.150304931640625,-0.32627181898236796,-0.008729314431548119,-0.1514431398675978,0.006471586413681507,-0.0067213900755601986,0.9680977895251651,-0.07963641415821708,left,-0.00043529272079467773,-0.3944119575366966,-2.901842846997082,-8.576081784605979,-0.19951557691198668,-0.013120015151798725,0.0006537437438964844,3.768356508708,-0.003286123275756836
1745973790756305000,1.190304931640625,-0.32627181898236796,-0.010952270589768887,-0.1514431398675978,0.0015952601097524166,-0.0067213900755601986,0.9680977895251651,-0.07963641415821708,left,-0.0005512237548828125,-0.3944119575366966,-2.901842846997082,-8.576081784605979,-0.19951557691198668,-0.008432146161794662,0.0004439055919647217,3.768356508708,-0.0023831725120544434
1745973790796305000,1.230304931640625,-0.3267017972671348,0.010700107552111149,-0.15162374629861244,-0.01111305970698595,-0.006923543925520346,0.9681046681006867,-0.08006707576332751,left,0.00003409385681152344,-0.3939739513128144,-2.906059587909281,-8.576396257382632,-0.1993382053902333,0.008077647536993027,-0.0025731921195983887,3.764390819947421,-0.0019381046295166016
1745973790836305000,1.270304931640625,-0.32636846315816315,0.01598627306520939,-0.1515262878416674,0.006026004441082478,-0.00669471010213788,0.9681496524119422,-0.0794929182835096,left,-0.003034055233001709,-0.39378371932029904,-2.903430116188526,-8.578042271023989,-0.19920170902533693,0.00968455895781517,-0.0023457109928131104,3.76266794167757,-0.003970444202423096
1745973790876305000,1.310304931640625,-0.32636846315816315,0.021272439509630203,-0.1515262878416674,0.02316506952047348,-0.00669471010213788,0.9681496524119422,-0.0794929182835096,left,-0.006269991397857666,-0.39378371932029904,-2.903430116188526,-8.578042271023989,-0.19920170902533693,0.011291470378637314,-0.0018500685691833496,3.76266794167757,-0.006178498268127441
1745973790916305000,1.350304931640625,-0.3253191785882949,-0.001778139267116785,-0.15109027866626504,0.008623380213975906,-0.006417022917232058,0.9682194674535796,-0.07872554394763377,left,0.0008434653282165527,-0.39391233672501497,-2.894272996264696,-8.580625273254514,-0.1992023319361804,-0.020316967740654945,0.00148734450340271,3.7638326015427706,-0.002681165933609009
1745973790956305200,1.39030517578125,-0.3251091051071407,0.01512365136295557,-0.15093988929892085,-0.013168212957680225,-0.0064553104840439565,0.9681536031728595,-0.07891031733382885,left,0.007159829139709473,-0.39477974548300665,-2.8914263746619224,-8.578135794526338,-0.19963444423817686,-0.0090062590315938,-0.001036524772644043,3.7716862376525997,0.003890007734298706
1745973790996305000,1.430304931640625,-0.3253719842532871,0.02956382930278778,-0.15112421493790612,-0.016816435381770134,-0.006047101623181922,0.9680969979461401,-0.07819290004202252,left,0.0012248754501342773,-0.39519708267989345,-2.893177894504368,-8.575883631685375,-0.19978257125152857,-0.01112850196659565,-0.003035604953765869,3.7754637103646993,0.0018546581268310547
1745973791036305000,1.470304931640625,-0.3254916851316211,0.026110045611858368,-0.1512362827643726,-0.00987289845943451,-0.005627665452795233,0.9680358532118962,-0.07745041983059231,left,0.00017464160919189453,-0.3957755135426975,-2.8935058112844825,-8.573466633671522,-0.20000606510531796,-0.012546558864414692,-0.0016684234142303467,3.780698396147787,-0.00026544928550720215
1745973791076305000,1.510304931640625,-0.32603929570845597,-0.007888223975896835,-0.15152297141825483,0.0019278965191915631,-0.00521141793552748,0.9678996169700063,-0.07687981906192161,left,-0.005531013011932373,-0.396800502752439,-2.8969574130430815,-8.568205352142453,-0.20045917690522252,-0.004840349778532982,-0.0007206499576568604,3.7899709591448305,-0.006804615259170532
1745973791116305000,1.550304931640625,-0.32603929570845597,-0.015496681444346905,-0.15152297141825483,0.0003776233643293381,-0.00521141793552748,0.9678996169700063,-0.07687981906192161,left,0.0016674399375915527,-0.396800502752439,-2.8969574130430815,-8.568205352142453,-0.20045917690522252,0.005637209862470627,-0.003918260335922241,3.7899709591448305,-0.004521757364273071
1745973791156305000,1.590304931640625,-0.3262967647118749,-0.010192403569817543,-0.15162312473744743,-0.0026892165187746286,-0.005479814220936477,0.9679448347525382,-0.07736680945613447,left,0.0007139444351196289,-0.39609804558122624,-2.9000159238308667,-8.569978791555762,-0.20015767847481106,0.011181730777025223,-0.004210323095321655,3.7836166216820475,-0.0008777379989624023
1745973791196305000,1.630304931640625,-0.3262755222815035,0.009739134460687637,-0.15161733786866316,0.016085239127278328,-0.0056704960858220185,0.9680242363029732,-0.07761230744866272,left,-0.0015396475791931152,-0.3952610375820629,-2.9008479907408353,-8.573037010082603,-0.19977216944762075,-0.004963757935911417,-0.0011579394340515137,3.7760426792964337,0.0014956295490264893
1745973791236305000,1.670304931640625,-0.3259052798839314,0.010210871696472168,-0.15143690443842867,0.01607181504368782,-0.00562131588322713,0.9680183663090881,-0.07749729686196859,left,-0.0004742145538330078,-0.3956274955536358,-2.89723067702651,-8.5727991096735,-0.1999393049119133,-0.00771097419783473,-0.0009609758853912354,3.7793589642375705,-0.0013592243194580078
1745973791276305000,1.710304931640625,-0.3259052798839314,0.015366468578577042,-0.15143690443842867,0.009109166450798512,-0.00562131588322713,0.9680183663090881,-0.07749729686196859,left,0.0003361701965332031,-0.3956274955536358,-2.89723067702651,-8.5727991096735,-0.1999393049119133,0.003517345990985632,-0.0009572207927703857,3.7793589642375705,-0.001026540994644165
1745973791316305000,1.750304931640625,-0.32526760393247534,0.02783912420272827,-0.15131755726460147,-0.014536546543240547,-0.004772317932576479,0.9680730218946557,-0.07560876349032412,left,0.0006448626518249512,-0.39561094405182634,-2.8917832252755757,-8.574704066511988,-0.19978673016097864,0.004467323422431946,0.00011768937110900879,3.779209326633811,0.0005458295345306396
1745973791356305000,1.790304931640625,-0.325305415290812,0.020684247836470604,-0.1513885716660109,-0.007130635902285576,-0.004422104861626397,0.9680372635958625,-0.07495591427907716,left,-0.000536799430847168,-0.39597781139705623,-2.8916642750710246,-8.573280755710602,-0.1999145322690583,-0.008822008967399597,0.00023737549781799316,3.7825288264453407,-0.003936946392059326
1745973791396305000,1.830304931640625,-0.325305415290812,0.0028265248984098434,-0.1513885716660109,0.0007494920864701271,-0.004422104861626397,0.9680372635958625,-0.07495591427907716,left,-0.0011789798736572266,-0.39597781139705623,-2.8916642750710246,-8.573280755710602,-0.1999145322690583,-0.0123825054615736,0.0011031925678253174,3.7825288264453407,-0.005586355924606323
1745973791436305000,1.870304931640625,-0.3252742431220374,-0.01774296537041664,-0.1512478726859859,0.009111498482525349,-0.004764206805569863,0.9679357140856295,-0.07584172667067772,left,-0.0011120438575744629,-0.3970592199860462,-2.890088111795485,-8.569489546734093,-0.2005035929608644,-0.014414333738386631,0.0015406608581542969,3.792311092530191,0.0009878277778625488
1745973791476305000,1.910304931640625,-0.3252742431220374,-0.00565533060580492,-0.1512478726859859,0.0032166955061256886,-0.004764206805569863,0.9679357140856295,-0.07584172667067772,left,0.002036750316619873,-0.3970592199860462,-2.890088111795485,-8.569489546734093,-0.2005035929608644,-0.005687272176146507,0.0008631348609924316,3.792311092530191,0.0027136802673339844
1745973791516305000,1.950304931640625,-0.325302970882564,0.0018137763254344463,-0.15124446063275496,-0.0000627497211098671,-0.004834980167214636,0.9679295193138164,-0.07600071284227115,left,0.0008538365364074707,-0.39709892953138465,-2.8902862647160887,-8.569263921284675,-0.20053483476022685,-0.004256378393620253,0.0014968514442443848,3.7926699889704585,0.0013847947120666504
1745973791556305000,1.990304931640625,-0.325302970882564,0.009282883256673813,-0.15124446063275496,-0.0033421951811760664,-0.004834980167214636,0.9679295193138164,-0.07600071284227115,left,-0.00030612945556640625,-0.39709892953138465,-2.8902862647160887,-8.569263921284675,-0.20053483476022685,-0.0028254841454327106,0.0021103620529174805,3.7926699889704585,0.00009250640869140625
1745973791596305000,2.030304931640625,-0.32594285995884625,0.01155038271099329,-0.15157745527876237,-0.0011476222425699234,-0.004523192493364811,0.9678308092297878,-0.07558238467194221,left,-0.005316555500030518,-0.3976422846099184,-2.895108570306003,-8.565459268304705,-0.2007669556478261,0.00037138722836971283,-0.0012970268726348877,3.7975834799751635,-0.004149198532104492
1745973791636305000,2.070304931640625,-0.32541081911843756,0.0225985087454319,-0.1513648824069049,0.008279826492071152,-0.004277444041064004,0.9678407984253473,-0.07502150070755396,left,-0.0005445480346679688,-0.39797632806928285,-2.8901453949406744,-8.565795952913165,-0.200884552077123,-0.008369910530745983,-0.001198112964630127,3.8006034123182295,-0.0010713040828704834
1745973791676305000,2.110304931640625,-0.3245011589811879,0.021008288487792015,-0.151024714165823,-0.0005703896167688072,-0.003532211502214156,0.9677756213784094,-0.07353963683832966,left,0.0013599395751953125,-0.39942042144124323,-2.8805992756992578,-8.56321061259508,-0.20146785245513596,-0.02402980625629425,-0.0010656118392944336,3.813654324810207,-0.002499014139175415
1745973791716305000,2.150304931640625,-0.3245011589811879,0.013994838111102581,-0.151024714165823,-0.0012346352450549603,-0.003532211502214156,0.9677756213784094,-0.07353963683832966,left,0.001552283763885498,-0.39942042144124323,-2.8805992756992578,-8.56321061259508,-0.20146785245513596,-0.012906081974506378,-0.0007195770740509033,3.813654324810207,-0.0011274218559265137
1745973791756305000,2.190304931640625,-0.3246438060678611,0.007933434098958969,-0.1511010642909117,-0.004309499636292458,-0.003351611158901734,0.967714516967268,-0.07328757717244497,left,0.0009337663650512695,-0.39995548655291635,-2.881169476802647,-8.560864341729879,-0.2017073214799381,-0.008703235536813736,-0.001468658447265625,3.81848802857697,-0.0005433857440948486
1745973791796305000,2.230304931640625,-0.32499051203650864,-0.0032293498516082764,-0.1512434222152192,0.00479813851416111,-0.0032859634711360085,0.9676288890618353,-0.07333079249530092,left,-0.0007851123809814453,-0.40057834795711666,-2.8833772159799933,-8.557609139326214,-0.20201181260513718,-0.010363082401454449,-0.0025027692317962646,3.8241134672433135,0.001474529504776001
1745973791836305000,2.270304931640625,-0.32496090005965567,-0.003231627168133855,-0.15119565927620024,0.0031279379036277533,-0.003381727377129659,0.9676046014463615,-0.07356959203362909,left,0.00486224889755249,-0.40085320729221124,-2.882788310176134,-8.556698454222083,-0.20216246431895443,-0.01092024426907301,-0.0037879645824432373,3.826595347186923,0.0005034506320953369
1745973791876305000,2.310304931640625,-0.32496090005965567,0.0007354726549237967,-0.15119565927620024,0.0074726128950715065,-0.003381727377129659,0.9676046014463615,-0.07356959203362909,left,0.0014477372169494629,-0.40085320729221124,-2.882788310176134,-8.556698454222083,-0.20216246431895443,-0.006047357805073261,-0.0018331408500671387,3.826595347186923,0.0014908015727996826
1745973791916305000,2.350304931640625,-0.32496090005965567,0.004702572710812092,-0.15119565927620024,0.011817287653684616,-0.003381727377129659,0.9676046014463615,-0.07356959203362909,left,-0.0019667744636535645,-0.40085320729221124,-2.882788310176134,-8.556698454222083,-0.20216246431895443,-0.001174471341073513,0.00012171268463134766,3.826595347186923,0.0024781525135040283
1745973791956305200,2.39030517578125,-0.3247019105330847,0.00867548119276762,-0.15105392446959937,-0.0017994623631238937,-0.0033430476144051522,0.9675683442056849,-0.07353580160674887,left,0.0013859272003173828,-0.40143936489726845,-2.8798560561165214,-8.555317228996753,-0.2024423621291474,0.004690846893936396,-0.0007538795471191406,3.8318873161152003,-0.00018540024757385254
1745973791996305000,2.430304931640625,-0.3246357365621286,0.00853507500141859,-0.15104885942069546,0.00034408015199005604,-0.003231629794091642,0.967577989451742,-0.07328414457069868,left,0.001574873924255371,-0.40139549539919894,-2.879343430419266,-8.555667357608675,-0.20240206544168873,0.0034823864698410034,-0.0008159875869750977,3.8314913025349377,-0.0006683468818664551
1745973792036305000,2.470304931640625,-0.3246357365621286,0.008394667878746986,-0.15104885942069546,0.002487622667104006,-0.003231629794091642,0.967577989451742,-0.07328414457069868,left,0.0017281174659729004,-0.40139549539919894,-2.879343430419266,-8.555667357608675,-0.20240206544168873,0.002273926045745611,-0.0008257925510406494,3.8314913025349377,-0.0011916756629943848
1745973792076305000,2.510304931640625,-0.3246357365621286,0.008254261687397957,-0.15104885942069546,0.004631164949387312,-0.003231629794091642,0.967577989451742,-0.07328414457069868,left,0.001881420612335205,-0.40139549539919894,-2.879343430419266,-8.555667357608675,-0.20240206544168873,0.0010654655052348971,-0.0008355677127838135,3.8314913025349377,-0.0017150342464447021
1745973792116305000,2.550304931640625,-0.3244321650422642,-0.006727191619575024,-0.15095430484578737,0.0032048276625573635,-0.003188592458931518,0.9675759834751945,-0.0731839934111622,left,0.0017520785331726074,-0.40157916753145506,-2.8773773910433054,-8.55558610906601,-0.2024828209715076,-0.008655553683638573,-0.0004106760025024414,3.8331492988750338,-0.00020551681518554688
1745973792156305000,2.590304931640625,-0.3244321650422642,-0.004117892123758793,-0.15095430484578737,-0.0066834804601967335,-0.003188592458931518,0.9675759834751945,-0.0731839934111622,left,0.0048520565032958984,-0.40157916753145506,-2.8773773910433054,-8.55558610906601,-0.2024828209715076,-0.001607685349881649,-0.0006638765335083008,3.8331492988750338,0.000996917486190796
1745973792196305000,2.630304931640625,-0.3249863026552846,0.005930331069976091,-0.15119379103978958,-0.0034542991779744625,-0.00327083563613579,0.967534366537563,-0.07346874933417623,left,0.0011704564094543457,-0.40157206751209396,-2.882126631397009,-8.55401608327031,-0.20250179435787533,0.006923372391611338,-0.004040360450744629,3.8330850014671682,-0.001786559820175171
1745973792236305000,2.670304931640625,-0.3249863026552846,-0.0007718219421803951,-0.15119379103978958,-0.0007261494174599648,-0.00327083563613579,0.967534366537563,-0.07346874933417623,left,0.000213623046875,-0.40157206751209396,-2.882126631397009,-8.55401608327031,-0.20250179435787533,0.0006265435367822647,-0.004055976867675781,3.8330850014671682,-0.000276714563369751
1745973792276305000,2.710304931640625,-0.3250094961780004,-0.014040090143680573,-0.15116752358549151,0.02323990687727928,-0.003421660201764938,0.9675218722032956,-0.07380352676237624,left,-0.001076042652130127,-0.401678007723946,-2.882195312719047,-8.553564247849582,-0.20257827748478607,-0.011005586013197899,-0.0013028085231781006,3.8340412792786953,-0.0044512152671813965
1745973792316305000,2.750304931640625,-0.32467568901042654,-0.012085175141692162,-0.1509484815929896,0.013884082436561584,-0.0037328022686697587,0.9675470811018971,-0.07437505379422399,left,0.006089150905609131,-0.4016678819690277,-2.8793521982476116,-8.554562611237168,-0.2026159503243469,-0.0013114940375089645,-0.0019434690475463867,3.8339500938639044,-0.0027174651622772217
1745973792356305000,2.790304931640625,-0.32467568901042654,0.010290632024407387,-0.1509484815929896,0.003006306476891041,-0.0037328022686697587,0.9675470811018971,-0.07437505379422399,left,-0.000916600227355957,-0.4016678819690277,-2.8793521982476116,-8.554562611237168,-0.2026159503243469,0.0009347556624561548,-0.0023286938667297363,3.8339500938639044,0.0012916028499603271
1745973792396305000,2.830304931640625,-0.32349850213725373,0.01507662981748581,-0.1504360666093548,0.027032114565372467,-0.003588720662991171,0.9676404387885585,-0.07382420993177057,left,-0.0068833231925964355,-0.4016294526731578,-2.869326771056652,-8.5580861091882,-0.2025537484254823,-0.0009600662160664797,0.0004246234893798828,3.8336031801223753,-0.00339663028717041
1745973792436305000,2.870304931640625,-0.32274982802995306,-0.003140566870570183,-0.15008236670536484,0.002842346206307411,-0.0035354276311730373,0.9676624178622876,-0.07361898544793692,left,0.006712555885314941,-0.4019917793538952,-2.862477928075194,-8.558913792183995,-0.20271187677166405,-0.010653567500412464,-0.001566767692565918,3.836873287834227,-0.007142573595046997
1745973792476305000,2.910304931640625,-0.32291330346841757,-0.00825532153248787,-0.15011308760723113,-0.0009309998713433743,-0.0037300938291672347,0.9676417047617829,-0.07406924658858402,left,0.005357563495635986,-0.4020721046543927,-2.863779366062581,-8.558153329205512,-0.20278472371612066,-0.006946959532797337,-0.001746833324432373,3.837598094977438,-0.004282951354980469
1745973792516305000,2.950304931640625,-0.3232180089609125,0.0011470383033156395,-0.1501994476140398,-0.008724424988031387,-0.0039062264759712594,0.9675849862946133,-0.07455579839927799,left,0.007397115230560303,-0.4024161806222064,-2.865967231495678,-8.556028007614612,-0.20298789504442388,-0.020416606217622757,-0.0025600194931030273,3.8407030752554534,0.003953993320465088
1745973792556234800,2.99023486328125,-0.32352258719855503,0.016947465017437935,-0.1502940141347829,0.009436160326004028,-0.0037915718318144147,0.9674310536678437,-0.07461592636716921,left,-0.005388228222727776,-0.4037833670179652,-2.8669012974753976,-8.550168175670503,-0.20365273491635089,-0.041448891162872314,-0.0013955754693597555,3.8530359026059506,0.005568499211221933
1745973792596234800,3.03023486328125,-0.32305054875765055,0.014186037704348564,-0.15003249439687735,0.005370757542550564,-0.0036767986392059826,0.9673407376227176,-0.07450252000797292,left,-0.002781510353088379,-0.4050936179165452,-2.8612597844570873,-8.54672592626214,-0.20427552891508965,-0.023264961317181587,0.0000788569450378418,3.864848505474627,0.002743154764175415
1745973792636235000,3.070235107421875,-0.32257812377235795,0.011424609459936619,-0.14977091191428868,0.0013053538277745247,-0.003562036004696781,0.9672500002413861,-0.07438841143093372,left,-0.00017648935317993164,-0.4064038589913304,-2.8556138875246044,-8.543266725718974,-0.20489823753097336,-0.00508103147149086,0.0015528500080108643,3.8766543863415714,-0.00008144974708557129
1745973792676235000,3.110235107421875,-0.32176483841137055,0.012674126774072647,-0.14945369448595947,0.0029354554135352373,-0.0032687338770933183,0.9673053003688997,-0.07362175652599963,left,0.0033835172653198242,-0.4064748549556682,-2.8485777052775023,-8.54532482729256,-0.20487374701022817,0.015508816577494144,0.0010302364826202393,3.8772938532888888,-0.0012502074241638184
1745973792716235000,3.150235107421875,-0.32182582868822607,0.0041210222989320755,-0.14953296988734197,-0.003876281203702092,-0.0031061078437203955,0.9673328030808329,-0.07324324251296394,left,-0.0005248188972473145,-0.4061496073161263,-2.849497742731869,-8.546347156077623,-0.20468862237030735,0.01469053328037262,0.00036790966987609863,3.8743639373168346,-0.003051549196243286
1745973792756235000,3.190235107421875,-0.32206973892759955,-0.008529729209840298,-0.14966534750661634,-0.003131964011117816,-0.0031392430585422556,0.9673648740160555,-0.07327485383757602,left,-0.00017583370208740234,-0.4056283121177693,-2.8522210302159188,-8.54756646873951,-0.20443983865996923,-0.0014909696765244007,-0.00013828277587890625,3.869667303933203,-0.002633810043334961
1745973792796234800,3.23023486328125,-0.32244830833249233,0.00008473731577396393,-0.14979522577080961,-0.004714645445346832,-0.003278442470406007,0.9673065133318698,-0.07369438919198062,left,0.0010513663291931152,-0.40593259112577273,-2.855083433909714,-8.545369250956178,-0.20461866029317557,-0.011023366823792458,-0.0003962218761444092,3.8724090038567778,0.0003367960453033447
1745973792836234800,3.27023486328125,-0.32287440823363617,0.008538409136235714,-0.14997914146242342,-0.012400459498167038,-0.003201150166327704,0.9672195396263671,-0.07372166979369092,left,0.002668142318725586,-0.4065021543415369,-2.858024163536727,-8.542059103494882,-0.20489617105075736,-0.011908124200999737,-0.0016174614429473877,3.8775399370044465,0.0006197988986968994
1745973792876235000,3.310235107421875,-0.3232834502216359,0.01036976370960474,-0.15018423176977944,-0.010954618453979492,-0.0029840414203238298,0.9671331096823305,-0.07345823472425107,left,0.0014008283615112305,-0.4070821833311037,-2.8608029806002975,-8.538754801252484,-0.20515684579055923,-0.010467993095517159,-0.0011338293552398682,3.882763809132576,0.0008414685726165771
1745973792916235000,3.350235107421875,-0.3237605561338765,0.0007528364658355713,-0.15040970040875767,-0.011183753609657288,-0.002859166899623384,0.9670572543736277,-0.07337192196068053,left,0.0007922053337097168,-0.4074965483311635,-2.8643644724741577,-8.535863171464204,-0.20535092659201057,-0.0022246725857257843,-0.0014773905277252197,3.8864948123544454,0.0011122524738311768
1745973792956235000,3.390235107421875,-0.3237605561338765,-0.009885578416287899,-0.15040970040875767,-0.011338502168655396,-0.002859166899623384,0.9670572543736277,-0.07337192196068053,left,0.0014289617538452148,-0.4074965483311635,-2.8643644724741577,-8.535863171464204,-0.20535092659201057,0.021969521418213844,-0.001437842845916748,3.8864948123544454,0.0014629364013671875
1745973792996235000,3.430235107421875,-0.3247868121845277,-0.014632629230618477,-0.15094762574991658,-0.017801335081458092,-0.002973914958799664,0.9671452088228497,-0.0735339790704139,left,0.004607141017913818,-0.4057840310611632,-2.8752427171021697,-8.539214235457777,-0.20453860041766944,0.04332754760980606,-0.0014646649360656738,3.8710704487293954,0.000027418136596679688
1745973793036234800,3.47023486328125,-0.3258504763050757,-0.0146963931620121,-0.1515071177233063,-0.017541242763400078,-0.003091707957162854,0.9672378350216486,-0.07369316033116681,left,0.002023637294769287,-0.4039825584261764,-2.886551462101936,-8.542743578627706,-0.20368323118537118,0.03306923061609268,-0.0016357004642486572,3.8548321383729576,0.0024997293949127197
1745973793076234800,3.51023486328125,-0.32647754088361847,-0.008017893880605698,-0.151820528711386,-0.005040138028562069,-0.0031944730604538314,0.9672740117475084,-0.07388696168233784,left,-0.00006157159805297852,-0.4031063857845783,-2.892989970716834,-8.544127726462483,-0.20327621646873348,0.012220269069075584,-0.001345217227935791,3.8469302792072293,0.00039756298065185547
1745973793116235000,3.550235107421875,-0.32647754088361847,-0.0016371188685297966,-0.151820528711386,-0.002832872560247779,-0.0031944730604538314,0.9672740117475084,-0.07388696168233784,left,0.0035633444786071777,-0.4031063857845783,-2.892989970716834,-8.544127726462483,-0.20327621646873348,-0.0004000794142484665,-0.0019346773624420166,3.8469302792072293,-0.0017514526844024658
1745973793156235000,3.590235107421875,-0.32647754088361847,0.003392549231648445,-0.151820528711386,-0.0010351799428462982,-0.0031944730604538314,0.9672740117475084,-0.07388696168233784,left,0.0002384781837463379,-0.4031063857845783,-2.892989970716834,-8.544127726462483,-0.20327621646873348,-0.005709637887775898,-0.002107948064804077,3.8469302792072293,-0.0006949007511138916
1745973793196235000,3.630235107421875,-0.3260706225590771,0.00963327381759882,-0.1516035380869163,0.025122610852122307,-0.0032229697973977676,0.9672623729364616,-0.07393659223296883,left,-0.001902163028717041,-0.40355001704883575,-2.8889658297672867,-8.543686996957659,-0.20349333443151268,-0.009906853549182415,-0.0012058615684509277,3.850931623803079,-0.0023073554039001465
1745973793236235000,3.670235107421875,-0.32566518172760284,-0.002560400404036045,-0.1513648865277126,0.008313797414302826,-0.003329250209612089,0.967239023412598,-0.07416708287814844,left,0.0025854110717773438,-0.4041094582169075,-2.8848119249582287,-8.542815474820136,-0.20378001650499208,-0.020789410918951035,-0.0004309713840484619,3.855976632232964,-0.002688884735107422
1745973793276234800,3.71023486328125,-0.32571100000180936,-0.004418334923684597,-0.15130641782050855,0.00151488883420825,-0.0035222417076318973,0.967162321930668,-0.07470499672305654,left,0.0017809867858886719,-0.4048617004614452,-2.884274457080662,-8.539932612860202,-0.20418367825173298,-0.02578393556177616,-0.0005806386470794678,3.8627582551971074,-0.00013184547424316406
1745973793316234800,3.75023486328125,-0.325994398510836,0.005635022185742855,-0.15137942068867255,-0.007916051894426346,-0.0035703321869006437,0.967051844977997,-0.07502227487320802,left,0.0036559700965881348,-0.4057805941934861,-2.8855566058456894,-8.535748605173826,-0.2046514041315049,-0.023375481367111206,-0.0018225610256195068,3.8710394690692422,0.002169370651245117
1745973793356235000,3.790235107421875,-0.32634748310921263,0.017813174054026604,-0.15154950565882333,-0.01166442409157753,-0.0033353198484432963,0.966946331642982,-0.07475227160329163,left,0.0005810260772705078,-0.4066016913844015,-2.8875504100114107,-8.531715404134989,-0.20502756559212598,-0.012728455476462841,-0.0037716925144195557,3.878436301322281,0.0023346245288848877
1745973793396235000,3.830235107421875,-0.32645161260788624,0.020936433225870132,-0.1516548335279248,-0.006483953446149826,-0.00289862849034947,0.9668738772187809,-0.07398822234198403,left,0.0007649660110473633,-0.4072822053765563,-2.8875916188046333,-8.52891262167394,-0.20529797332580652,-0.00814892165362835,-0.003294229507446289,3.884565013335645,0.0015473663806915283
1745973793436235000,3.870235107421875,-0.32653663055400717,0.009433596394956112,-0.15172790192068314,0.0006711781024932861,-0.0025884136156546687,0.9668083022057499,-0.07347094285535932,left,-0.002462446689605713,-0.4079001872395388,-2.887546026097238,-8.526392163285612,-0.20555684971057112,-0.008463487029075623,-0.002094835042953491,3.8901287849426267,-0.002923339605331421
1745973793476235000,3.910235107421875,-0.32636541301206873,-0.004803746938705444,-0.1516186989638358,0.009974583983421326,-0.002624350087895158,0.9667790582725421,-0.0735835680418548,left,0.00006604194641113281,-0.4083343279479458,-2.885544623146951,-8.525285663348436,-0.2057744998155847,-0.009730652906000614,-0.0019722282886505127,3.8940366060361264,-0.0021296143531799316
1745973793516234800,3.95023486328125,-0.3263022738616599,-0.009177681058645248,-0.15150881933343452,0.010900713503360748,-0.0029215374742478026,0.9667504163531984,-0.07424263935169705,left,0.0012168288230895996,-0.4086697378858246,-2.8845874685525894,-8.524230601337552,-0.20598607211346867,-0.011518706567585468,-0.0006287097930908203,3.897055077074468,0.00030726194381713867
1745973793556234800,3.99023486328125,-0.3263022738616599,-0.0024518142454326153,-0.15150881933343452,0.006531164515763521,-0.0029215374742478026,0.9667504163531984,-0.07424263935169705,left,0.0023386478424072266,-0.4086697378858246,-2.8845874685525894,-8.524230601337552,-0.20598607211346867,-0.005634779576212168,-0.0008198916912078857,3.897055077074468,0.002673119306564331
1745973793596234800,4.03023486328125,-0.3260182320979624,0.0051061720587313175,-0.15132901036253818,0.003416643710806966,-0.003040819228274432,0.9667281093455712,-0.07450577108049192,left,0.002169191837310791,-0.4091168404119995,-2.8816078682199118,-8.523398242166637,-0.2062211355314762,-0.004400347825139761,-0.00040027499198913574,3.9010783412411807,0.0015631616115570068
1745973793636235000,4.070235107421875,-0.3260182320979624,0.004087680950760841,-0.15132901036253818,-0.0007038454059511423,-0.003040819228274432,0.9667281093455712,-0.07450577108049192,left,0.0025739669799804688,-0.4091168404119995,-2.8816078682199118,-8.523398242166637,-0.2062211355314762,-0.00048610148951411247,-0.0005176067352294922,3.9010783412411807,0.0002689957618713379
1745973793676235000,4.110235107421875,-0.3260182320979624,0.00408606743440032,-0.15132901036253818,-0.0024504715111106634,-0.003040819228274432,0.9667281093455712,-0.07450577108049192,left,0.0015673041343688965,-0.4091168404119995,-2.8816078682199118,-8.523398242166637,-0.2062211355314762,-0.0013257680693641305,-0.0003972649574279785,3.9010783412411807,0.001850724220275879
1745973793716235000,4.150235107421875,-0.3260182320979624,0.0017276080325245857,-0.15132901036253818,-0.001036070636473596,-0.003040819228274432,0.9667281093455712,-0.07450577108049192,left,0.0007936954498291016,-0.4091168404119995,-2.8816078682199118,-8.523398242166637,-0.2062211355314762,-0.0005605408223345876,-0.0007342696189880371,3.9010783412411807,0.0014123320579528809
1745973793756235000,4.190235107421875,-0.3260182320979624,0.0010912824654951692,-0.15132901036253818,-0.0011426052078604698,-0.003040819228274432,0.9667281093455712,-0.07450577108049192,left,0.0012586712837219238,-0.4091168404119995,-2.8816078682199118,-8.523398242166637,-0.2062211355314762,0.0018685056129470468,-0.001251518726348877,3.9010783412411807,0.0005257725715637207
1745973793796234800,4.23023486328125,-0.3260182320979624,-0.00032146391458809376,-0.15132901036253818,-0.0012780230026692152,-0.003040819228274432,0.9667281093455712,-0.07450577108049192,left,0.0011425018310546875,-0.4091168404119995,-2.8816078682199118,-8.523398242166637,-0.2062211355314762,0.0006629644194617867,-0.0007919967174530029,3.9010783412411807,0.00028312206268310547
1745973793836234800,4.27023486328125,-0.3263134678944921,0.0001089401775971055,-0.15147229513982657,-0.00020530633628368378,-0.0028809956760483544,0.9666555521105564,-0.07432725024606786,left,0.001269519329071045,-0.40963475585670517,-2.8834760001793502,-8.52063170006275,-0.20645777577025398,-0.00324078556150198,-0.0004572272300720215,3.9057375652238724,0.000159531831741333
1745973793876235000,4.310235107421875,-0.3263997935978988,0.00047251459909603,-0.1515063674953201,0.0014036098727956414,-0.0028252340512661856,0.9666162107361718,-0.07428849849137671,left,0.0007531642913818359,-0.40997273250122435,-2.8837881348684427,-8.519131816893816,-0.20661788914029114,-0.0033494553063064814,-0.0014295578002929688,3.9087776635721325,0.00006192922592163086
1745973793916235000,4.350235107421875,-0.3263997935978988,0.00020176556427031755,-0.1515063674953201,0.0005993468221276999,-0.0028252340512661856,0.9666162107361718,-0.07428849849137671,left,0.0009046196937561035,-0.40997273250122435,-2.8837881348684427,-8.519131816893816,-0.20661788914029114,-0.001430230331607163,-0.0003266334533691406,3.9087776635721325,-0.00031888484954833984
1745973793956235000,4.390235107421875,-0.3263997935978988,0.002422015182673931,-0.1515063674953201,-0.003375754924491048,-0.0028252340512661856,0.9666162107361718,-0.07428849849137671,left,0.003600776195526123,-0.40997273250122435,-2.8837881348684427,-8.519131816893816,-0.20661788914029114,-0.0022216972429305315,-0.0006819367408752441,3.9087776635721325,0.0001748204231262207
1745973793996235000,4.430235107421875,-0.3263997935978988,0.008226447738707066,-0.1515063674953201,-0.003692016238346696,-0.0028252340512661856,0.9666162107361718,-0.07428849849137671,left,-0.00024968385696411133,-0.40997273250122435,-2.8837881348684427,-8.519131816893816,-0.20661788914029114,-0.0017327157547697425,-0.002941906452178955,3.9087776635721325,0.0011263787746429443
1745973794036234800,4.47023486328125,-0.32611809145800774,0.014516279101371765,-0.15140498546033068,0.01609894074499607,-0.002602048531457539,0.9666023546443266,-0.07382971563761168,left,-0.0014519095420837402,-0.41034026441327803,-2.8809277770012613,-8.51858236631751,-0.20675994259751032,-0.0014732452109456062,-0.002002418041229248,3.912082842597365,0.0011475682258605957
1745973794076234800,4.51023486328125,-0.32562739173530697,0.007503268774598837,-0.15119454902853455,0.006883160211145878,-0.002436630579596557,0.9666033108711555,-0.07344693610606612,left,0.0025734901428222656,-0.41071550420386227,-2.87627761310786,-8.518603993627428,-0.20691127152362648,-0.00799622107297182,-0.001065760850906372,3.915456995205581,-0.00027292966842651367
1745973794116235000,4.550235107421875,-0.32562739173530697,0.005276436917483807,-0.15119454902853455,0.008188707754015923,-0.002436630579596557,0.9666033108711555,-0.07344693610606612,left,0.0030159354209899902,-0.41071550420386227,-2.87627761310786,-8.518603993627428,-0.20691127152362648,-0.00917324423789978,-0.0006113052368164062,3.915456995205581,0.0016046464443206787
1745973794156235000,4.590235107421875,-0.3252367702751161,0.00907284114509821,-0.15101069828957556,0.0004999814555048943,-0.0023172346791974752,0.9665780162990184,-0.07321294372130002,left,0.0037519335746765137,-0.4112791476965353,-2.8722441198080775,-8.517634271812438,-0.20716485490426123,-0.007310320157557726,-0.0016193389892578125,3.920524215467274,0.003211081027984619
1745973794196235000,4.630235107421875,-0.32512092231460843,0.014228121377527714,-0.15097410245992426,-0.0011800306383520365,-0.002094095479284054,0.9665286625861158,-0.0728288714405508,left,0.0017429590225219727,-0.4118769512663084,-2.8705080897957087,-8.515743928021193,-0.20742391809784552,-0.008932607248425484,-0.002193152904510498,3.925897140677273,0.0022984445095062256
1745973794236235000,4.670235107421875,-0.32509805939991127,0.007342438213527203,-0.1509781421414228,-0.004200824070721865,-0.0018733290252500824,0.9664687439922784,-0.07247557598857916,left,0.0034602880477905273,-0.41250977536207134,-2.8695193710193037,-8.5134537712574,-0.20770226836953404,-0.00766503531485796,-0.0017362534999847412,3.9315830773591993,0.000014036893844604492
1745973794276234800,4.71023486328125,-0.32509805939991127,-0.00008029956370592117,-0.1509781421414228,0.002827093005180359,-0.0018733290252500824,0.9664687439922784,-0.07247557598857916,left,-0.001399219036102295,-0.41250977536207134,-2.8695193710193037,-8.5134537712574,-0.20770226836953404,-0.002396566793322563,-0.0006697177886962891,3.9315830773591993,-0.0005769729614257812
1745973794316234800,4.75023486328125,-0.32509805939991127,-0.0023472192697227,-0.1509781421414228,0.003336147405207157,-0.0018733290252500824,0.9664687439922784,-0.07247557598857916,left,0.0012461543083190918,-0.41250977536207134,-2.8695193710193037,-8.5134537712574,-0.20770226836953404,0.00005778716877102852,-0.0015166401863098145,3.9315830773591993,0.000764310359954834
1745973794356235000,4.790235107421875,-0.32509805939991127,0.00010980316437780857,-0.1509781421414228,0.00598299503326416,-0.0018733290252500824,0.9664687439922784,-0.07247557598857916,left,0.00009655952453613281,-0.41250977536207134,-2.8695193710193037,-8.5134537712574,-0.20770226836953404,0.00370459514670074,-0.0012169182300567627,3.9315830773591993,0.0001951158046722412
1745973794396235000,4.830235107421875,-0.32509805939991127,0.0039045584853738546,-0.1509781421414228,0.007975048385560513,-0.0018733290252500824,0.9664687439922784,-0.07247557598857916,left,0.0026177167892456055,-0.41250977536207134,-2.8695193710193037,-8.5134537712574,-0.20770226836953404,0.0027490570209920406,-0.0009805858135223389,3.9315830773591993,-0.0009022951126098633
1745973794436235000,4.870235107421875,-0.32509805939991127,0.002954911906272173,-0.1509781421414228,0.004919138737022877,-0.0018733290252500824,0.9664687439922784,-0.07247557598857916,left,0.0014584064483642578,-0.41250977536207134,-2.8695193710193037,-8.5134537712574,-0.20770226836953404,-0.005591760855168104,-0.00022396445274353027,3.9315830773591993,-0.0006071627140045166
1745973794476235000,4.910235107421875,-0.32465613735923204,0.001772303250618279,-0.15074958351109288,0.0028121257200837135,-0.0018724608388377823,0.9664545986140295,-0.07246156660886437,left,0.0014040470123291016,-0.41299331726296445,-2.8651500698938963,-8.512918349206448,-0.20793388415632405,-0.009351972490549088,-0.00046193599700927734,3.935926951782405,-0.0009649097919464111
1745973794516234800,4.95023486328125,-0.32465613735923204,0.0010117751080542803,-0.15074958351109288,-0.0013871872797608376,-0.0018724608388377823,0.9664545986140295,-0.07246156660886437,left,0.0005676746368408203,-0.41299331726296445,-2.8651500698938963,-8.512918349206448,-0.20793388415632405,-0.00852447934448719,-0.0011056065559387207,3.935926951782405,0.0002911984920501709
1745973794556234800,4.99023486328125,-0.32477339689046997,0.0017946966690942645,-0.15077501189830692,-0.004605746362358332,-0.0018646373377094302,0.966388253413615,-0.0725705644390851,left,0.0009275078773498535,-0.41357710965855454,-2.8654145660489796,-8.510403151515126,-0.2082236060458792,-0.006470538210123777,-0.0011158287525177002,3.941169820871949,0.00033721327781677246
1745973794596234800,5.03023486328125,-0.32498560498818496,0.002139184158295393,-0.150865071943004,-0.004542956594377756,-0.0018209075177332,0.966339854002906,-0.07258226869466429,left,0.0013796091079711914,-0.4139068072891298,-2.866805435885489,-8.508563076606393,-0.2083835786098639,-0.005081442184746265,-0.0018149614334106445,3.9441304242432116,0.00018012523651123047
1745973794636235000,5.070235107421875,-0.32498560498818496,0.0019431249238550663,-0.150865071943004,-0.002361907623708248,-0.0018209075177332,0.966339854002906,-0.07258226869466429,left,0.0017383694648742676,-0.4139068072891298,-2.866805435885489,-8.508563076606393,-0.2083835786098639,-0.006033480167388916,-0.0019584596157073975,3.9441304242432116,0.0011303126811981201
1745973794676235000,5.110235107421875,-0.3250797536637536,0.00033417053055018187,-0.15089624355966288,0.0014535035006701946,-0.0017597242138299885,0.9662846932216933,-0.07255963955591595,left,0.0005907416343688965,-0.41439516903403006,-2.866991021585464,-8.506466981109977,-0.2086173155587506,-0.005237942561507225,-0.0018858611583709717,3.9485146306768057,0.0008391737937927246
1745973794716235000,5.150235107421875,-0.3250797536637536,-0.004600090440362692,-0.15089624355966288,0.0022193805780261755,-0.0017597242138299885,0.9662846932216933,-0.07255963955591595,left,0.0011199712753295898,-0.41439516903403006,-2.866991021585464,-8.506466981109977,-0.2086173155587506,-0.0021399634424597025,-0.0011660754680633545,3.9485146306768057,-0.00009441375732421875
1745973794756235000,5.190235107421875,-0.3250797536637536,-0.0037275238428264856,-0.15089624355966288,0.001244701212272048,-0.0017597242138299885,0.9662846932216933,-0.07255963955591595,left,0.0047681331634521484,-0.41439516903403006,-2.866991021585464,-8.506466981109977,-0.2086173155587506,-0.0017323351930826902,-0.0009795725345611572,3.9485146306768057,0.0007554590702056885
1745973794796234800,5.23023486328125,-0.3250797536637536,-0.0013023437932133675,-0.15089624355966288,-0.00159309315495193,-0.0017597242138299885,0.9662846932216933,-0.07255963955591595,left,0.001632094383239746,-0.41439516903403006,-2.866991021585464,-8.506466981109977,-0.2086173155587506,0.0007875242736190557,-0.0019204020500183105,3.9485146306768057,0.001446753740310669
1745973794836234800,5.27023486328125,-0.3250797536637536,0.006351795978844166,-0.15089624355966288,0.018557360395789146,-0.0017597242138299885,0.9662846932216933,-0.07255963955591595,left,-0.0017139315605163574,-0.41439516903403006,-2.866991021585464,-8.506466981109977,-0.2086173155587506,0.0009502925677224994,-0.0007756352424621582,3.9485146306768057,0.0025446712970733643
1745973794876235000,5.310235107421875,-0.32436878950286485,0.003049967112019658,-0.15053454439620206,0.007089138962328434,-0.0018147174872573698,0.9662958102559811,-0.0725934861756711,left,0.004729747772216797,-0.41482493984084046,-2.860401414062083,-8.506893682089448,-0.20882636292970752,-0.0034823440946638584,-0.0003844797611236572,3.9523721828877925,0.0003223717212677002
1745973794916235000,5.350235107421875,-0.32436878950286485,0.004214166663587093,-0.15053454439620206,0.0036358258221298456,-0.0018147174872573698,0.9662958102559811,-0.0725934861756711,left,0.0035672783851623535,-0.41482493984084046,-2.860401414062083,-8.506893682089448,-0.20882636292970752,-0.003028320614248514,-0.00016418099403381348,3.9523721828877925,0.0021140575408935547
1745973794956235000,5.390235107421875,-0.32436878950286485,0.0078650563955307,-0.15053454439620206,-0.0016617260407656431,-0.0018147174872573698,0.9662958102559811,-0.0725934861756711,left,0.0039754509925842285,-0.41482493984084046,-2.860401414062083,-8.506893682089448,-0.20882636292970752,0.0011772927828133106,-0.0016505420207977295,3.9523721828877925,0.003931283950805664
1745973794996235000,5.430235107421875,-0.3242308329353519,0.0063950978219509125,-0.15051302326957944,-0.003375114407390356,-0.0015557005426314913,0.966280086596198,-0.07207355248410224,left,0.0007516741752624512,-0.4150939354324107,-2.8588889636725185,-8.506280518627166,-0.20891675324702944,0.008413277566432953,-0.002383500337600708,3.9547862582921978,0.0014923512935638428
1745973795036234800,5.47023486328125,-0.3242308329353519,0.0006864657625555992,-0.15051302326957944,-0.0047998796217143536,-0.0015557005426314913,0.966280086596198,-0.07207355248410224,left,0.003606557846069336,-0.4150939354324107,-2.8588889636725185,-8.506280518627166,-0.20891675324702944,0.008798491209745407,-0.0023930370807647705,3.9547862582921978,-0.0001322925090789795
1745973795076234800,5.51023486328125,-0.3242308329353519,0.004503886215388775,-0.15051302326957944,0.007467113900929689,-0.0015557005426314913,0.966280086596198,-0.07207355248410224,left,-0.00203859806060791,-0.4150939354324107,-2.8588889636725185,-8.506280518627166,-0.20891675324702944,0.004108756314963102,-0.0014099478721618652,3.9547862582921978,0.0003247559070587158
1745973795116235000,5.550235107421875,-0.3242308329353519,-0.00024721305817365646,-0.15051302326957944,0.005397817585617304,-0.0015557005426314913,0.966280086596198,-0.07207355248410224,left,0.001078784465789795,-0.4150939354324107,-2.8588889636725185,-8.506280518627166,-0.20891675324702944,0.002908573020249605,-0.0019176602363586426,3.9547862582921978,-0.001933068037033081
1745973795156235000,5.590235107421875,-0.3237847286630684,-0.004212388768792152,-0.15033619898221137,0.009417097084224224,-0.001502182668207925,0.9663463702708035,-0.07181006728776936,left,-0.0006487369537353516,-0.41476422105228383,-2.855508673584461,-8.508790455621481,-0.20873769038399206,0.002032003365457058,-0.0010467469692230225,3.9518271162256595,-0.0020072460174560547
1745973795196235000,5.630235107421875,-0.323329333979116,-0.0067400382831692696,-0.15012530653608952,0.009006869047880173,-0.0015607241194653253,0.9664026453342063,-0.07179482847282302,left,0.0008356571197509766,-0.4145411156783396,-2.8519135717019437,-8.510925714084506,-0.20862865273502385,0.0010321633890271187,-0.001245260238647461,3.9498248364925383,-0.002650827169418335
1745973795236235000,5.670235107421875,-0.323329333979116,-0.005214056000113487,-0.15012530653608952,0.005313050001859665,-0.0015607241194653253,0.9664026453342063,-0.07179482847282302,left,0.0013805627822875977,-0.4145411156783396,-2.8519135717019437,-8.510925714084506,-0.20862865273502385,-0.003338947892189026,-0.0006665289402008057,3.9498248364925383,-0.001621931791305542
1745973795276234800,5.71023486328125,-0.323329333979116,-0.0007793535478413105,-0.15012530653608952,0.001680426299571991,-0.0015607241194653253,0.9664026453342063,-0.07179482847282302,left,0.0013332962989807129,-0.4145411156783396,-2.8519135717019437,-8.510925714084506,-0.20862865273502385,-0.006596451625227928,-0.00022795796394348145,3.9498248364925383,-0.0006381571292877197
1745973795316234800,5.75023486328125,-0.323329333979116,0.006624605972319841,-0.15012530653608952,-0.005068002734333277,-0.0015607241194653253,0.9664026453342063,-0.07179482847282302,left,0.0022065043449401855,-0.4145411156783396,-2.8519135717019437,-8.510925714084506,-0.20862865273502385,-0.009541215375065804,-0.0002065896987915039,3.9498248364925383,0.00010848045349121094
1745973795356235000,5.790235107421875,-0.32340917337951147,0.008691607974469662,-0.1501398440352084,-0.006412755697965622,-0.0014823918004252014,0.9663218430991307,-0.0717791046492511,left,0.0013685226440429688,-0.4152987389460295,-2.8516411845013496,-8.50785872772932,-0.20899270171071763,-0.01352408155798912,-0.00027051568031311035,3.9566239951133726,-0.0002924501895904541
1745973795396235000,5.830235107421875,-0.32362131657197213,0.00519699277356267,-0.1502068869544867,-0.0065833344124257565,-0.0014041674026925314,0.9662148621628043,-0.07181988931993799,left,0.001654207706451416,-0.4162178459096751,-2.852288250233233,-8.503801561293006,-0.20943888821237805,-0.01899673044681549,-0.0009159445762634277,3.9648695531502365,-0.0002681314945220947
1745973795436235000,5.870235107421875,-0.3239011283057401,0.0017260168679058552,-0.1502945124230847,-0.003850898239761591,-0.0013822316081433695,0.9661060032546659,-0.07198626973031338,left,0.0006625056266784668,-0.41710286697569154,-2.853549940732121,-8.49967366770804,-0.20987805048259917,-0.01791660115122795,-0.0009150207042694092,3.972806191368401,0.00004598498344421387
1745973795476235000,5.910235107421875,-0.32408726420634526,0.0023358173202723265,-0.15033862675666784,-0.0024456623941659927,-0.001401990976195588,0.9660207448084902,-0.07218994640726627,left,0.0017938017845153809,-0.41781864932289686,-2.854225648036599,-8.49644418426752,-0.2102383754795109,-0.013174468651413918,-0.00040397047996520996,3.979222780412435,0.0008124113082885742
1745973795516234800,5.95023486328125,-0.32430555534423805,0.0031201415695250034,-0.15041913107649577,-0.004245011135935783,-0.0013832714659666831,0.9659585112163707,-0.07227742231469612,left,0.0018476247787475586,-0.4182789403722105,-2.8554963986247777,-8.494084469398855,-0.21046686047261132,-0.008508497849106789,-0.0004962682723999023,3.983348043648898,0.0016654133796691895
1745973795556234800,5.99023486328125,-0.32430555534423805,0.0018175872974097729,-0.15041913107649577,-0.0033689667470753193,-0.0013832714659666831,0.9659585112163707,-0.07227742231469612,left,0.000689089298248291,-0.4182789403722105,-2.8554963986247777,-8.494084469398855,-0.21046686047261132,-0.0066894530318677425,-0.0005019903182983398,3.983348043648898,0.0007018148899078369
1745973795596234800,6.03023486328125,-0.3248662969930004,-0.003243957180529833,-0.1506446000327868,-0.008912842720746994,-0.0014070098421628758,0.9658642037414985,-0.07253820328586764,left,0.0029144883155822754,-0.4188009653238584,-2.8595947738543153,-8.490510118043423,-0.21073834717013482,-0.007087257690727711,-0.0012238919734954834,3.9880253878101706,-0.0013384819030761719
1745973795636235000,6.070235107421875,-0.3248662969930004,0.0007580267265439034,-0.1506446000327868,-0.0003742501139640808,-0.0014070098421628758,0.9658642037414985,-0.07253820328586764,left,-0.0019269585609436035,-0.4188009653238584,-2.8595947738543153,-8.490510118043423,-0.21073834717013482,-0.0023760907351970673,-0.0010434985160827637,3.9880253878101706,0.0009199976921081543
1745973795676235000,6.110235107421875,-0.3248662969930004,0.006868474651128054,-0.1506446000327868,0.009766281582415104,-0.0014070098421628758,0.9658642037414985,-0.07253820328586764,left,0.003279745578765869,-0.4188009653238584,-2.8595947738543153,-8.490510118043423,-0.21073834717013482,-0.00001105060800909996,-0.0009549260139465332,3.9880253878101706,0.0006184279918670654
1745973795716235000,6.150235107421875,-0.3248662969930004,0.0060952757485210896,-0.1506446000327868,0.001754152588546276,-0.0014070098421628758,0.9658642037414985,-0.07253820328586764,left,0.0031148195266723633,-0.4188009653238584,-2.8595947738543153,-8.490510118043423,-0.21073834717013482,-0.0014109306503087282,0.000029981136322021484,3.9880253878101706,0.0022214651107788086
1745973795756235000,6.190235107421875,-0.324876324867254,0.009377366863191128,-0.15066042068102126,-0.005922187585383654,-0.001231582992463747,0.9658119982661713,-0.07226582860841407,left,0.003561079502105713,-0.4193185520633955,-2.859020773358643,-8.488523912662266,-0.21096716452702652,0.0005203138571232557,-0.0005865693092346191,3.992661815439164,0.002002924680709839
1745973795796234800,6.23023486328125,-0.32516383319744485,0.012012883089482784,-0.15083149678532062,-0.011532027274370193,-0.0009700835947721568,0.9657556965681725,-0.07184700137694519,left,0.003142118453979492,-0.41966786769106523,-2.861015454307198,-8.486379301849007,-0.21110401109042687,-0.0017584252636879683,-0.0021809637546539307,3.995790468853712,0.002737075090408325
1745973795836234800,6.27023486328125,-0.3254641212632271,0.008454510942101479,-0.15101032280980567,-0.007975177839398384,-0.0007005978140087494,0.9656984358611488,-0.0714142173177229,left,0.0008165836334228516,-0.42001561352001665,-2.86311914858818,-8.484202542331815,-0.2112389796834475,-0.002206629142165184,-0.002547323703765869,3.998904509221017,0.001376718282699585
1745973795876235000,6.310235107421875,-0.3254641212632271,0.000516330823302269,-0.15101032280980567,-0.010885527357459068,-0.0007005978140087494,0.9656984358611488,-0.0714142173177229,left,0.0027979612350463867,-0.42001561352001665,-2.86311914858818,-8.484202542331815,-0.2112389796834475,-0.0005946850869804621,-0.00444522500038147,3.998904509221017,-0.00019168853759765625
1745973795916235000,6.350235107421875,-0.3259909786579864,-0.0015635346062481403,-0.15126731005995003,0.002666429616510868,-0.0005913601166708243,0.9656412698606737,-0.07133318930235218,left,-0.00174635648727417,-0.4201900419044739,-2.8673654078558086,-8.482032212555408,-0.2113170234654059,0.0003381700371392071,-0.002084016799926758,4.000466351710259,-0.00007006525993347168
1745973795956235000,6.390235107421875,-0.3259909786579864,-0.006278058513998985,-0.15126731005995003,-0.003970135468989611,-0.0005913601166708243,0.9656412698606737,-0.07133318930235218,left,0.0012996196746826172,-0.4201900419044739,-2.8673654078558086,-8.482032212555408,-0.2113170234654059,0.001618991605937481,-0.003047645092010498,4.000466351710259,-0.0010782480239868164
1745973795996235000,6.430235107421875,-0.3259909786579864,-0.004366736859083176,-0.15126731005995003,-0.0047284942120313644,-0.0005913601166708243,0.9656412698606737,-0.07133318930235218,left,0.001341402530670166,-0.4201900419044739,-2.8673654078558086,-8.482032212555408,-0.2113170234654059,0.0000288989394903183,-0.0022886693477630615,4.000466351710259,0.0002334117889404297
1745973796036234800,6.47023486328125,-0.3259909786579864,0.0029619508422911167,-0.15126731005995003,0.0005210819654166698,-0.0005913601166708243,0.9656412698606737,-0.07133318930235218,left,0.0007852911949157715,-0.4201900419044739,-2.8673654078558086,-8.482032212555408,-0.2113170234654059,-0.001055016997270286,-0.0007667839527130127,4.000466351710259,0.0005070269107818604
1745973796076234800,6.51023486328125,-0.3259909786579864,0.005935474298894405,-0.15126731005995003,-0.0012782149715349078,-0.0005913601166708243,0.9656412698606737,-0.07133318930235218,left,0.0013526082038879395,-0.4201900419044739,-2.8673654078558086,-8.482032212555408,-0.2113170234654059,-0.000649396562948823,0.00022986531257629395,4.000466351710259,-0.0000756978988647461
1745973796116235000,6.550235107421875,-0.3259909786579864,0.00407410878688097,-0.15126731005995003,-0.010257658548653126,-0.0005913601166708243,0.9656412698606737,-0.07133318930235218,left,0.002593100070953369,-0.4201900419044739,-2.8673654078558086,-8.482032212555408,-0.2113170234654059,0.005214677192270756,-0.0007753670215606689,4.000466351710259,-0.0003542304039001465
1745973796156235000,6.590235107421875,-0.32692720947738,0.007330417633056641,-0.15176220562218237,-0.01570083014667034,-0.0003166079392383976,0.9655788179740665,-0.07095449147673033,left,0.0016835927963256836,-0.42010588461519,-2.8754131052330134,-8.479663145336508,-0.21124802216506597,0.00007284944877028465,-0.001709580421447754,3.9997129029944536,0.0010674893856048584
1745973796196235000,6.630235107421875,-0.32752312434075986,0.009081633761525154,-0.1520845713028139,-0.006662174127995968,-0.00006330473926125817,0.9655201498957836,-0.07058325612146281,left,0.00016450881958007812,-0.4202395589574148,-2.8802938630118966,-8.47744137763381,-0.21128426754427115,-0.0018450856441631913,-0.0023249387741088867,4.000909711563587,0.0006167292594909668
1745973796236235000,6.670235107421875,-0.32782582754772766,0.007801401428878307,-0.15226662345135744,-0.007063089869916439,0.0001640033043921711,0.9654840564588131,-0.07020119721519483,left,0.0004742145538330078,-0.4203702355763181,-2.8826915718033908,-8.476074180933832,-0.2113181133995014,0.0016769926296547055,-0.0029169023036956787,4.0020796321257945,0.0016786456108093262
1745973796276234800,6.71023486328125,-0.32795134011237786,0.007610692176967859,-0.15237059659868726,-0.0016526510007679462,0.00037177771111472787,0.9654760251957886,-0.06979555772530424,left,-0.000028371810913085938,-0.4203546031848583,-2.8837755676478145,-8.475771398594976,-0.21127967190923264,0.0028783176094293594,-0.002590179443359375,4.001939639133215,0.001971423625946045
1745973796316234800,6.75023486328125,-0.32795134011237786,0.002819354645907879,-0.15237059659868726,0.002695085946470499,0.00037177771111472787,0.9654760251957886,-0.06979555772530424,left,0.00041681528091430664,-0.4203546031848583,-2.8837755676478145,-8.475771398594976,-0.21127967190923264,0.0026197535917162895,-0.0008105933666229248,4.001939639133215,0.00044399499893188477
1745973796356235000,6.790235107421875,-0.32795134011237786,-0.0031226291321218014,-0.15237059659868726,-0.0051970151253044605,0.00037177771111472787,0.9654760251957886,-0.06979555772530424,left,0.0031576156616210938,-0.4203546031848583,-2.8837755676478145,-8.475771398594976,-0.21127967190923264,0.004275822080671787,-0.0008128881454467773,4.001939639133215,-0.0012783706188201904
1745973796396235000,6.830235107421875,-0.32838788012026,-0.00314733712002635,-0.15259804965578885,-0.00840133149176836,0.00042542310762703925,0.9654716875500153,-0.06972993618245543,left,0.0018388628959655762,-0.42006531992503926,-2.8878485161751506,-8.475607147943974,-0.21113527350155678,0.0036251754499971867,-0.00008565187454223633,3.9993496226400134,0.000469207763671875
1745973796436235000,6.870235107421875,-0.3290150198869607,0.0031367293559014797,-0.152912909894402,-0.018954889848828316,0.0005133667579242571,0.9654379480677884,-0.06966039816902614,left,0.004605531692504883,-0.4199238842565588,-2.893345944547653,-8.474329967615008,-0.2110617007757738,0.002558918669819832,-0.00199812650680542,3.9980832559660073,0.001255124807357788
1745973796476235000,6.910235107421875,-0.3294397336500365,0.016024796292185783,-0.15318645454228402,-0.004172486253082752,0.0008502199324345398,0.9654141607276218,-0.06903980293137625,left,-0.004787147045135498,-0.41983384426620574,-2.897061457939446,-8.473440909820795,-0.21097072359474506,0.010275470092892647,-0.002365291118621826,3.997276908019185,0.0010740458965301514
1745973796516234800,6.95023486328125,-0.32879937476039556,0.018556877970695496,-0.15298690072343424,0.008706078864634037,0.0012812851706527002,0.9654637742186236,-0.06800483811703183,left,0.0020189881324768066,-0.41982187087490747,-2.891650246545672,-8.475339436918496,-0.21088608917118873,0.0076016709208488464,-0.0029585659503936768,3.9971696482524273,-0.001206725835800171
1745973796556234800,6.99023486328125,-0.32842588532924794,0.009432540275156498,-0.15286697760603055,0.00620692316442728,0.0015292727704793617,0.9654874093270138,-0.06741750802173022,left,0.0013085603713989258,-0.41986799772900407,-2.8884251470193267,-8.476244276803731,-0.2108636348581419,0.004151179920881987,-0.0015594959259033203,3.997582612967491,-0.0008959770202636719
1745973796596234800,7.03023486328125,-0.32842588532924794,0.00788159016519785,-0.15286697760603055,0.004114337731152773,0.0015292727704793617,0.9654874093270138,-0.06741750802173022,left,0.0033472776412963867,-0.41986799772900407,-2.8884251470193267,-8.476244276803731,-0.2108636348581419,0.000656927702948451,-0.0011330842971801758,3.997582612967491,0.0006293654441833496
1745973796636235000,7.070235107421875,-0.3282062585574393,0.007929223589599133,-0.15279438313251537,-0.0024410467594861984,0.0017312018285225912,0.9654732426906857,-0.06700405695526247,left,0.0029371976852416992,-0.4201740642019743,-2.886168892525136,-8.475719960668682,-0.2109796155577379,-0.00739406980574131,-0.0010074973106384277,4.000323436108231,0.0012235641479492188
1745973796676235000,7.110235107421875,-0.32822004565754503,0.0022482541389763355,-0.1527928379678344,-0.001014920067973435,0.0018267323817155667,0.9654158720930016,-0.06690581623958768,left,0.0008584856986999512,-0.42073410685816326,-2.8855630355864763,-8.473557814198731,-0.2112418267191974,-0.01311570592224598,-0.0012710988521575928,4.005337172617018,0.0012277960777282715
1745973796716235000,7.150235107421875,-0.328397780133466,-0.0022595631889998913,-0.1528307530669493,-0.0031742025166749954,0.0017719362839476597,0.9653406403542976,-0.06716474998843407,left,0.003844022750854492,-0.4213510893993235,-2.8862714761167765,-8.470704178333282,-0.21155855017007977,-0.014235090464353561,-0.0018880665302276611,4.010859150908887,0.001773446798324585
1745973796756235000,7.190235107421875,-0.328397780133466,0.00048111798241734505,-0.1528307530669493,0.0017668851651251316,0.0017719362839476597,0.9653406403542976,-0.06716474998843407,left,0.0012784600257873535,-0.4213510893993235,-2.8862714761167765,-8.470704178333282,-0.21155855017007977,-0.00038875918835401535,-0.0026114583015441895,4.010859150908887,0.0026823580265045166
1745973796796234800,7.23023486328125,-0.328397780133466,0.00546624232083559,-0.1528307530669493,-0.00013255130033940077,0.0017719362839476597,0.9653406403542976,-0.06716474998843407,left,0.0025536417961120605,-0.4213510893993235,-2.8862714761167765,-8.470704178333282,-0.21155855017007977,0.009599804878234863,-0.004988223314285278,4.010859150908887,0.0028032660484313965
1745973796836234800,7.27023486328125,-0.3281983211638182,0.01109696552157402,-0.1527941884289625,0.010143574327230453,0.0019418222005818085,0.9653903481432066,-0.06670912673986334,left,-0.00019693374633789062,-0.4210036253694772,-2.8850308284059167,-8.472598613777755,-0.21135660267378448,0.015290988609194756,-0.004237264394760132,4.007749494455754,0.0015711188316345215
1745973796876235000,7.310235107421875,-0.32738794478791683,0.010917317122220993,-0.1524770594787014,0.02258828841149807,0.0021468673892518584,0.9654719332683149,-0.06607192060920312,left,0.000979602336883545,-0.42079994277059335,-2.8784263155743477,-8.47570651666522,-0.21121072053327206,0.006731805391609669,-0.0029778480529785156,4.005926370681822,-0.0016145408153533936
1745973796916235000,7.350235107421875,-0.32646760509424155,0.0008581699803471565,-0.15205766123991388,0.02585531584918499,0.0021730078215727194,0.9655375960230702,-0.06582346784482838,left,0.0014232397079467773,-0.42084082230000375,-2.870572094942629,-8.478196579915284,-0.21121249502758005,-0.0008825645782053471,-0.0009996592998504639,4.0062922813847655,-0.0039657652378082275
1745973796956235000,7.390235107421875,-0.32568857805966756,-0.0051865666173398495,-0.15165183845440905,0.02013416774570942,0.0019770364727836284,0.9655876180731691,-0.06607519428708468,left,0.0024652481079101562,-0.4209357157982195,-2.8638448325142263,-8.48007055709362,-0.21127809434526104,-0.005605543032288551,-0.000864177942276001,4.007141883951426,-0.002138584852218628
1745973796996235000,7.430235107421875,-0.32534069370615154,-0.0024681133218109608,-0.15144185899467846,0.008199626579880714,0.001762491917060836,0.9656081297287545,-0.06645392371025062,left,0.0018067359924316406,-0.420996936563777,-2.860816132342815,-8.480833942681551,-0.21133661749320007,-0.0031239090021699667,-0.0007711052894592285,4.007689580962062,-0.00013396143913269043
1745973797036234800,7.47023486328125,-0.32534069370615154,0.006451779510825872,-0.15144185899467846,-0.0008180905133485794,0.001762491917060836,0.9656081297287545,-0.06645392371025062,left,0.0020416975021362305,-0.420996936563777,-2.860816132342815,-8.480833942681551,-0.21133661749320007,-0.0010831851977854967,-0.0016620159149169922,4.007689580962062,0.001261204481124878
1745973797076234800,7.51023486328125,-0.32511008702120886,0.015206312760710716,-0.15137662736151242,0.0009004514431580901,0.0019990617378135094,0.9656034664209783,-0.06595037922038788,left,0.0011665821075439453,-0.421213009360488,-2.858583843246102,-8.480672614639998,-0.21140278073855132,-0.002150082029402256,-0.0019184350967407227,4.0096234716340895,0.0005955398082733154
1745973797116235000,7.550235107421875,-0.3247681904099077,0.01713743805885315,-0.1512692157702345,0.00461330683901906,0.0023224346719987266,0.9655868468113776,-0.06527660076527285,left,0.0011880993843078613,-0.42162820514129595,-2.855152699753642,-8.48007055709362,-0.21155216831033968,-0.0067629097029566765,-0.0015029311180114746,4.013338985025882,0.00047919154167175293
1745973797156235000,7.590235107421875,-0.32438578303224086,0.010225273668766022,-0.15111706998638275,0.005308620631694794,0.002555300732789946,0.9655605638777346,-0.06480285374396134,left,0.00048655271530151367,-0.4221702180455544,-2.851215652565658,-8.479099081712961,-0.2117779088830922,-0.007987549528479576,-0.0011955201625823975,4.018188178622722,0.00038820505142211914
1745973797196235000,7.630235107421875,-0.32438578303224086,0.002991249319165945,-0.15111706998638275,0.010257873684167862,0.002555300732789946,0.9655605638777346,-0.06480285374396134,left,0.000985562801361084,-0.4221702180455544,-2.851215652565658,-8.479099081712961,-0.2117779088830922,-0.004184983670711517,-0.0005205273628234863,4.018188178622722,-0.00009748339653015137
1745973797236235000,7.670235107421875,-0.32373026424415435,-0.004016685299575329,-0.15079018941733757,0.013128388673067093,0.0025182260581949416,0.9655750684632256,-0.06479478058640384,left,0.0026035308837890625,-0.4225165961139271,-2.8452140740633007,-8.479646194201708,-0.21194498557773417,-0.0015948223881423473,-0.0005765259265899658,4.021286436899006,0.000059604644775390625
1745973797276234800,7.71023486328125,-0.3234074385285127,-0.004112864378839731,-0.15061098033847975,0.00761006074026227,0.0023834459212309193,0.9655971649394731,-0.06500734784255802,left,0.0011673569679260254,-0.4225417219138377,-2.8424443170890212,-8.480468616500497,-0.21197349174315933,0.004388846457004547,-0.0007523894309997559,4.021511185565591,0.00018742680549621582
1745973797316234800,7.75023486328125,-0.32262456600507594,0.005144012626260519,-0.15024668181848075,0.025803713127970695,0.0023116580496955795,0.965678351263339,-0.06494649266714095,left,-0.0024338960647583008,-0.42231933873442296,-2.8360876415386795,-8.48353910998702,-0.21186271729655623,0.008289758116006851,-0.00019493699073791504,4.019522057574987,0.002309471368789673
1745973797356235000,7.790235107421875,-0.3217303792827439,0.003563453210517764,-0.14984709013262207,0.011746243573725224,0.0023486989128229966,0.9657516669619287,-0.06466263222814587,left,0.004656016826629639,-0.42225434158023883,-2.828583257257938,-8.48631909609437,-0.21181114780884688,0.001413208432495594,-0.00024047493934631348,4.018940750555694,0.0003948211669921875
1745973797396235000,7.830235107421875,-0.32133174287342187,0.0016137228813022375,-0.14966069597288642,0.006591603625565767,0.0023630422293910045,0.9657688461299779,-0.06456664897160416,left,0.0033028721809387207,-0.4223796982076775,-2.8250410546064377,-8.48696849991381,-0.2118648085969168,-0.004399624187499285,0.00006154179573059082,4.020062155801058,0.0012623369693756104
1745973797436235000,7.870235107421875,-0.32133174287342187,0.003433163743466139,-0.14966069597288642,-0.003156519029289484,0.0023630422293910045,0.9657688461299779,-0.06456664897160416,left,0.004110097885131836,-0.4223796982076775,-2.8250410546064377,-8.48696849991381,-0.2118648085969168,-0.005766238085925579,-0.0004099905490875244,4.020062155801058,0.0022240877151489258
1745973797476235000,7.910235107421875,-0.32133174287342187,0.0062056127935647964,-0.14966069597288642,-0.007369089871644974,0.0023630422293910045,0.9657688461299779,-0.06456664897160416,left,0.0022391676902770996,-0.4223796982076775,-2.8250410546064377,-8.48696849991381,-0.2118648085969168,-0.0033477568067610264,-0.0018530786037445068,4.020062155801058,0.003180593252182007
1745973797516234800,7.95023486328125,-0.32163169914969797,0.0059137470088899136,-0.14982497555513477,-0.007063980679959059,0.002614943183602403,0.9656878683524962,-0.06420792805024506,left,0.002763032913208008,-0.42295481559087245,-2.8268554105520245,-8.483925478956102,-0.21211466164956905,0.0021095452830195427,-0.0017511248588562012,4.025205656169355,0.0014428198337554932
1745973797556234800,7.99023486328125,-0.32163169914969797,0.00014795642346143723,-0.14982497555513477,-0.00043035950511693954,0.002614943183602403,0.9656878683524962,-0.06420792805024506,left,-0.0010567903518676758,-0.42295481559087245,-2.8268554105520245,-8.483925478956102,-0.21211466164956905,0.007864559069275856,-0.0015627741813659668,4.025205656169355,-0.00015729665756225586
1745973797596234800,8.03023486328125,-0.32163169914969797,-0.006535749416798353,-0.14982497555513477,0.0019324226304888725,0.002614943183602403,0.9656878683524962,-0.06420792805024506,left,0.0010377764701843262,-0.42295481559087245,-2.8268554105520245,-8.483925478956102,-0.21211466164956905,0.013178883120417595,-0.002440035343170166,4.025205656169355,-0.0008796453475952148
1745973797636235000,8.070235107421874,-0.32163169914969797,-0.011107283644378185,-0.14982497555513477,0.007674591150134802,0.002614943183602403,0.9656878683524962,-0.06420792805024506,left,-0.00013267993927001953,-0.42295481559087245,-2.8268554105520245,-8.483925478956102,-0.21211466164956905,0.013212118297815323,-0.0018693208694458008,4.025205656169355,-0.0011641979217529297
1745973797676235000,8.110235107421875,-0.3215653258245761,-0.0073861596174538136,-0.14981364620086826,0.008756637573242188,0.002482795801880918,0.9657897921924523,-0.06430489610268768,left,0.0016102790832519531,-0.4219948092498035,-2.8275121208950877,-8.48777514012158,-0.21165949813510948,0.01379920169711113,-0.0017595291137695312,4.016619029609859,-0.0006575882434844971
1745973797716235000,8.150235107421874,-0.3213913875551787,-0.0022414634004235268,-0.14975934538095922,0.006401018239557743,0.0024279345157598824,0.9658785226112492,-0.06425341771442475,left,0.0018327832221984863,-0.4212425976571631,-2.8269895583257076,-8.49113146481216,-0.2112934074119908,0.011481010355055332,-0.001353144645690918,4.009888260050118,-0.0012777149677276611
1745973797756235000,8.190235107421875,-0.32126929044979,-0.00023053097538650036,-0.1497257971090196,0.002160833217203617,0.0024255319342551514,0.965934065472695,-0.064153668032125,left,0.0008903741836547852,-0.4207801732268114,-2.8265380151659247,-8.49323515909314,-0.21106325038465834,0.0061903647147119045,-0.0008824467658996582,4.005749552810192,-0.0012944042682647705
1745973797796234800,8.23023486328125,-0.32126929044979,-0.00043536099838092923,-0.1497257971090196,-0.0010106824338436127,0.0024255319342551514,0.965934065472695,-0.064153668032125,left,0.0012801885604858398,-0.4207801732268114,-2.8265380151659247,-8.49323515909314,-0.21106325038465834,0.0002393266186118126,-0.0019594430923461914,4.005749552810192,-0.0014275312423706055
1745973797836234800,8.27023486328125,-0.32126929044979,-0.0009120239410549402,-0.1497257971090196,-0.001199015649035573,0.0024255319342551514,0.965934065472695,-0.064153668032125,left,0.0009862780570983887,-0.4207801732268114,-2.8265380151659247,-8.49323515909314,-0.21106325038465834,-7.967173587530851e-8,-0.001551508903503418,4.005749552810192,-0.001801609992980957
1745973797876235000,8.310235107421875,-0.32126929044979,-0.00044499666546471417,-0.1497257971090196,-0.000585026282351464,0.0024255319342551514,0.965934065472695,-0.064153668032125,left,0.00033342838287353516,-0.4207801732268114,-2.8265380151659247,-8.49323515909314,-0.21106325038465834,-3.8873604779610105e-8,-0.0020003318786621094,4.005749552810192,-0.0007586479187011719
1745973797916235000,8.350235107421875,-0.32126929044979,0.0010164373088628054,-0.1497257971090196,-0.0012442164588719606,0.0024255319342551514,0.965934065472695,-0.064153668032125,left,0.0007226467132568359,-0.4207801732268114,-2.8265380151659247,-8.49323515909314,-0.21106325038465834,-0.001596858841367066,-0.002319127321243286,4.005749552810192,-0.00018927454948425293
1745973797956235000,8.390235107421875,-0.32171139535553883,-0.0012143985368311405,-0.14993874765703824,-0.00005396397318691015,0.002447835068183036,0.9659105293460233,-0.06418804511641156,left,0.0000037550926208496094,-0.4206851681225339,-2.8304128107726574,-8.492345516777037,-0.21101950630961377,-0.002436067909002304,-0.001415550708770752,4.004899073460698,-0.0011141300201416016
1745973797996235000,8.430235107421876,-0.32171139535553883,-0.002843963447958231,-0.14993874765703824,-0.001825039740651846,0.002447835068183036,0.9659105293460233,-0.06418804511641156,left,0.0013082623481750488,-0.4206851681225339,-2.8304128107726574,-8.492345516777037,-0.21101950630961377,-0.0024748367723077536,-0.0006181001663208008,4.004899073460698,-0.0018429160118103027
1745973798036234800,8.47023486328125,-0.32250918612876084,-0.00043314998038113117,-0.15028239335471158,-0.008630693890154362,0.002381945050463259,0.965833383279625,-0.06452863417877079,left,0.000640571117401123,-0.42086143121971203,-2.83696325532943,-8.48941530854404,-0.21112903283526993,-0.011402791365981102,-0.0005256831645965576,4.006476990301906,-0.0015713870525360107
1745973798076234800,8.51023486328125,-0.32296578273816423,0.007037182338535786,-0.1504557169635163,0.005839131772518158,0.0023702764581362396,0.9657311423799247,-0.06476752040877125,left,-0.006597638130187988,-0.4215387785528844,-2.839977342453599,-8.485543435546756,-0.21147281588816125,-0.02471117302775383,-0.0007741153240203857,4.012538774558902,0.0005226731300354004
1745973798116235000,8.550235107421875,-0.3227487582420146,0.00482596643269062,-0.15028171259188278,0.007944505661725998,0.0023329382098681373,0.9656156740644974,-0.06501941489562378,left,0.00238800048828125,-0.4228485873223849,-2.8364661194622514,-8.481167704680562,-0.21212301324984956,-0.03402234613895416,-0.0007670223712921143,4.024255808098614,0.0003777742385864258
1745973798156235000,8.590235107421876,-0.32277954214755433,0.0028046283405274153,-0.15022193028257047,0.0018430966883897781,0.002259548162979879,0.9654983265913236,-0.0653718526041838,left,0.0024843811988830566,-0.4239902750026748,-2.835268141849339,-8.476717739534378,-0.21269938768546676,-0.023854346945881844,-0.0003884732723236084,4.034463021597266,0.0024072229862213135
1745973798196235000,8.630235107421875,-0.32295511529682025,0.006634403020143509,-0.15027776967275613,-0.005045639351010323,0.002291151325699328,0.9654219416490003,-0.06545126025575738,left,0.004608631134033203,-0.42461595358664933,-2.835954662808776,-8.47382435618043,-0.21300647635082876,-0.007213925942778587,-0.0002993941307067871,4.040054850254952,0.004172921180725098
1745973798236235000,8.670235107421876,-0.32339788909881456,0.012217989191412926,-0.15052638903078316,-0.01945463754236698,0.0025396695400559475,0.9653691694062712,-0.06506601257054134,left,0.004266917705535889,-0.42480377129242713,-2.839465301278233,-8.471848672193289,-0.21306741520226954,0.003007601946592331,-0.0009296536445617676,4.041733012600242,0.002315014600753784
1745973798276234800,8.71023486328125,-0.3240881927832158,0.020610615611076355,-0.15092947806147208,-0.02505769208073616,0.0029818359503713102,0.9652931206563202,-0.06434080270343626,left,0.0034897923469543457,-0.4250300707539471,-2.845021181839704,-8.469019001725316,-0.2131207995202095,-0.0008750406559556723,-0.000006467103958129883,4.043754873816669,0.0032023191452026367
1745973798316234800,8.75023486328125,-0.32512062062246616,0.021355729550123215,-0.15149473292318294,-0.028047140687704086,0.003517212392243183,0.9651596329762616,-0.06355032600845001,left,-0.0004259943962097168,-0.4255626424205999,-2.853075016696751,-8.464035368093848,-0.21331581487567913,-0.0065094903111457825,-0.0005899369716644287,4.048512589737773,0.00030744075775146484
1745973798356235000,8.790235107421875,-0.3258272521517985,0.014945922419428825,-0.15190320354494158,-0.01886044815182686,0.003993328869474439,0.9650621593691827,-0.06279124597520501,left,-0.0002917051315307617,-0.4259802697242125,-2.8585139928802845,-8.460414254987239,-0.2134579852118601,0.000694609247148037,-0.0014164745807647705,4.052242423915863,-0.0016802549362182617
1745973798396235000,8.830235107421874,-0.32655777078418363,0.001924893818795681,-0.15229469000819726,-0.015100747346878052,0.004230068867635864,0.9650138139582098,-0.06244898120850017,left,-0.0009130239486694336,-0.4259032594918257,-2.8647938038021326,-8.458619772785902,-0.2133933617331864,0.008830252103507519,-0.0014985501766204834,4.0515547339126465,-0.002034991979598999
1745973798436235000,8.870235107421875,-0.3269917401512841,-0.00803933572024107,-0.15251545993415985,-0.003908585757017136,0.004214944933930148,0.9650310991306197,-0.06249155519784711,left,-0.0009545683860778809,-0.4254093004432251,-2.8691066985651847,-8.459269761127233,-0.2131578700380978,0.011308331042528152,-0.0019430220127105713,4.047142762689292,-0.0017090141773223877
1745973798476235000,8.910235107421874,-0.32724165647733444,-0.008637942373752594,-0.15262796829776534,-0.000506026903167367,0.004074690515946882,0.9650702811320175,-0.06273977549820299,left,-0.00020879507064819336,-0.424840426757515,-2.871960334430635,-8.460731650373338,-0.21290240910641461,0.007930773310363293,-0.0015874505043029785,4.0420606371194125,-0.0010071098804473877
1745973798516234800,8.95023486328125,-0.32724165647733444,-0.005917184054851532,-0.15262796829776534,0.0008989654015749693,0.004074690515946882,0.9650702811320175,-0.06273977549820299,left,0.0005283355712890625,-0.424840426757515,-2.871960334430635,-8.460731650373338,-0.21290240910641461,-0.0016996366903185844,-0.0008362531661987305,4.0420606371194125,-0.00003758072853088379
1745973798556234800,8.99023486328125,-0.3274854121469468,-0.00020676851272583008,-0.152706979853676,-0.004686374217271805,0.003913537931068077,0.9650578348024743,-0.0631184457008614,left,0.0021628141403198242,-0.4247876136349124,-2.8740912089794874,-8.460233053201437,-0.21290539090259455,-0.003024094272404909,-0.0016511380672454834,4.041588635693491,0.00039073824882507324
1745973798596234800,9.03023486328125,-0.3274854121469468,0.004684762097895145,-0.152706979853676,-0.006699838675558567,0.003913537931068077,0.9650578348024743,-0.0631184457008614,left,0.0014203190803527832,-0.4247876136349124,-2.8740912089794874,-8.460233053201437,-0.21290539090259455,-0.0037778255064040422,-0.0021654069423675537,4.041588635693491,0.00033345818519592285
1745973798636235000,9.070235107421874,-0.32798773596690517,0.005531967151910067,-0.15294883246009483,-0.009379666298627853,0.004015094442821731,0.9649969825550879,-0.06305660763255928,left,0.0018399953842163086,-0.425007298344284,-2.878054559652507,-8.457947572612762,-0.21300544469257515,-0.0013035342562943697,-0.0031040608882904053,4.043551460199057,-0.0006208419799804688
1745973798676235000,9.110235107421875,-0.3284689108919644,0.004278330132365227,-0.15318425714806666,-0.007542732637375593,0.004119231002681788,0.9649431907076487,-0.06297553244915093,left,0.0014442801475524902,-0.42517295924425547,-2.8819077279493213,-8.455927464962006,-0.21307800781629846,-0.0008194964611902833,-0.002788841724395752,4.045031469623744,-0.0006262362003326416
1745973798716235000,9.150235107421874,-0.3284689108919644,0.0019802183378487825,-0.15318425714806666,-0.0034602046944200993,0.004119231002681788,0.9649431907076487,-0.06297553244915093,left,0.0021482110023498535,-0.42517295924425547,-2.8819077279493213,-8.455927464962006,-0.21307800781629846,-0.0013249514158815145,-0.0025231242179870605,4.045031469623744,-0.0006282627582550049
1745973798756235000,9.190235107421875,-0.3284689108919644,0.00036695413291454315,-0.15318425714806666,-0.0005078634712845087,0.004119231002681788,0.9649431907076487,-0.06297553244915093,left,0.001120924949645996,-0.42517295924425547,-2.8819077279493213,-8.455927464962006,-0.21307800781629846,-0.004321542102843523,-0.002511829137802124,4.045031469623744,0.00017583370208740234
1745973798796234800,9.23023486328125,-0.3284689108919644,-0.001799243502318859,-0.15318425714806666,0.002207474084571004,0.004119231002681788,0.9649431907076487,-0.06297553244915093,left,0.0011206865310668945,-0.42517295924425547,-2.8819077279493213,-8.455927464962006,-0.21307800781629846,-0.005171726457774639,-0.0017056763172149658,4.045031469623744,0.00003165006637573242
1745973798836234800,9.27023486328125,-0.3284689108919644,-0.003965441137552261,-0.15318425714806666,0.00492281187325716,0.004119231002681788,0.9649431907076487,-0.06297553244915093,left,0.001120448112487793,-0.42517295924425547,-2.8819077279493213,-8.455927464962006,-0.21307800781629846,-0.0060219112783670425,-0.0008995234966278076,4.045031469623744,-0.0001125335693359375
1745973798876235000,9.310235107421875,-0.32922495628217846,-0.002618442988023162,-0.1534501074472473,-0.0015339469537138939,0.003952191968273891,0.9647984670940234,-0.06363847434544022,left,0.008156359195709229,-0.4260395570425128,-2.887165502347052,-8.450425944936274,-0.2135444452908792,-0.008409363217651844,-0.0012547969818115234,4.052771708486974,0.000406116247177124
1745973798916235000,9.350235107421875,-0.329340873879292,0.007087131962180138,-0.15350451097078263,0.008842568844556808,0.00400648996721198,0.9647680160110437,-0.06358806933162446,left,-0.003655374050140381,-0.4262507161157734,-2.8878683899194,-8.449281451076269,-0.2136419711109182,0.003774043172597885,-0.0015225708484649658,4.054657376103103,-0.0002111196517944336
1745973798956235000,9.390235107421875,-0.32791542260869133,0.011654416099190712,-0.1528822059766399,0.03178974986076355,0.004160217600166998,0.9648711239198693,-0.0629619168884656,left,0.0031996965408325195,-0.42629790373891513,-2.8757597267135977,-8.453208269131183,-0.21361963167584522,0.004504217766225338,-0.0016553699970245361,4.055078816385567,-0.00018003582954406738
1745973798996235000,9.430235107421876,-0.3276974664128559,-0.0017409613355994225,-0.15277227381867364,0.001339007169008255,0.004165261728009338,0.9648654745522635,-0.06294067282657331,left,0.001537024974822998,-0.42651571624656426,-2.873632943817973,-8.452997841250896,-0.21372332291839474,-0.011690364219248295,0.0011152327060699463,4.057023520712554,0.0010607540607452393
1745973799036234800,9.47023486328125,-0.32758360379615586,0.005788902752101421,-0.15270524959510345,-0.0017225753981620073,0.004203186151824243,0.9648276763157375,-0.0629152857157348,left,0.003911912441253662,-0.4269721301884161,-2.872074316199124,-8.451571023318172,-0.21394129682496427,-0.007889600470662117,-0.00021564960479736328,4.061097930544615,0.0043999552726745605
1745973799076234800,9.51023486328125,-0.3277481716311111,0.022190872579813004,-0.15282983445276338,-0.013076277449727058,0.004520206147229266,0.9647712059910094,-0.0623665008219921,left,0.004459381103515625,-0.4273902041260755,-2.872918365807831,-8.449490125390886,-0.21410025668232993,-0.004114515148103237,-0.0010207891464233398,4.064829518288374,0.005419641733169556
1745973799116235000,9.550235107421875,-0.3278246973777949,0.01973894238471985,-0.15294872489525102,-0.008208041079342365,0.005006702542434005,0.964714451870423,-0.06145709060548684,left,0.0005854964256286621,-0.42786815989428556,-2.872939116334915,-8.447430270251632,-0.21426057660439898,-0.0019301357679069042,-0.0016643106937408447,4.069094482256472,-0.0015147626399993896
1745973799156235000,9.590235107421876,-0.3278246973777949,0.0037474948912858963,-0.15294872489525102,-0.007753944955766201,0.005006702542434005,0.964714451870423,-0.06145709060548684,left,0.0020948052406311035,-0.42786815989428556,-2.872939116334915,-8.447430270251632,-0.21426057660439898,-0.007247969042509794,-0.0016315579414367676,4.069094482256472,0.00007835030555725098
1745973799196235000,9.630235107421875,-0.3278246973777949,-0.005567874759435654,-0.15294872489525102,0.005312635563313961,0.005006702542434005,0.964714451870423,-0.06145709060548684,left,-0.004263877868652344,-0.42786815989428556,-2.872939116334915,-8.447430270251632,-0.21426057660439898,0.0005966383032500744,-0.0004768967628479004,4.069094482256472,-0.0017498135566711426
1745973799236235000,9.670235107421876,-0.3278246973777949,-0.00999411754310131,-0.15294872489525102,-0.0059424713253974915,0.005006702542434005,0.964714451870423,-0.06145709060548684,left,0.0014390349388122559,-0.42786815989428556,-2.872939116334915,-8.447430270251632,-0.21426057660439898,0.013949299231171608,-0.004639178514480591,4.069094482256472,0.0005355179309844971
1745973799276234800,9.71023486328125,-0.3288624527042312,-0.0024075708352029324,-0.15343993339018797,-0.0026383933145552874,0.004908081052808178,0.9647107256535236,-0.061765374703000364,left,0.00039523839950561523,-0.42713348224196207,-2.8826684831887484,-8.447271280297636,-0.2139280328300856,0.012084634974598885,-0.0022118687629699707,4.062538192480802,0.000002562999725341797
1745973799316234800,9.75023486328125,-0.3288624527042312,0.0022971387952566147,-0.15343993339018797,0.005762633867561817,0.004908081052808178,0.9647107256535236,-0.061765374703000364,left,0.0004012584686279297,-0.42713348224196207,-2.8826684831887484,-8.447271280297636,-0.2139280328300856,-0.0001723412424325943,-0.0016630887985229492,4.062538192480802,-0.0018124580383300781
1745973799356235000,9.790235107421875,-0.3288624527042312,0.0022264947183430195,-0.15343993339018797,0.005193665158003569,0.004908081052808178,0.9647107256535236,-0.061765374703000364,left,-0.00005251169204711914,-0.42713348224196207,-2.8826684831887484,-8.447271280297636,-0.2139280328300856,-0.010856945998966694,-0.00019121170043945312,4.062538192480802,-0.0012543797492980957
1745973799396235000,9.830235107421874,-0.3285200529390873,0.0025195193011313677,-0.1532319674892794,-0.0004977136850357056,0.004827275810242433,0.9646709698896767,-0.06196914905874807,left,0.0026434659957885742,-0.427784621874718,-2.878921990136802,-8.44575210790634,-0.21425786885938436,-0.011077065952122211,-0.0004118382930755615,4.068349216847121,0.00009426474571228027
1745973799436235000,9.870235107421875,-0.32868938512303425,0.008098556660115719,-0.15330088846855333,-0.00860512349754572,0.004911026205353611,0.9646028063865624,-0.06192594207539471,left,0.0019144415855407715,-0.4283230762198195,-2.8796444591924546,-8.443189563941955,-0.21451327874330714,-0.012662157416343689,-0.000990837812423706,4.07315310999751,0.001031249761581421
1745973799476235000,9.910235107421874,-0.3289084611051108,0.007565964013338089,-0.15340572714787282,-0.00631217984482646,0.005039568002576706,0.9645370197590393,-0.06179022629053449,left,0.001590430736541748,-0.42879905417729886,-2.8808675712466236,-8.440722881567478,-0.21473135700218204,-0.00771013367921114,-0.0027761757373809814,4.07739878474325,0.0016510486602783203
1745973799516234800,9.95023486328125,-0.3289084611051108,0.005822702776640654,-0.15340572714787282,-0.0056053390726447105,0.005039568002576706,0.9645370197590393,-0.06179022629053449,left,0.0031659603118896484,-0.42879905417729886,-2.8808675712466236,-8.440722881567478,-0.21473135700218204,-0.0010062241926789284,-0.0025458931922912598,4.07739878474325,0.0004588961601257324
1745973799556234800,9.99023486328125,-0.3289084611051108,-0.00019118422642350197,-0.15340572714787282,-0.0007794192060828209,0.005039568002576706,0.9645370197590393,-0.06179022629053449,left,0.002432107925415039,-0.42879905417729886,-2.8808675712466236,-8.440722881567478,-0.21473135700218204,0.005862907040864229,-0.0032820403575897217,4.07739878474325,0.0012135505676269531
1745973799596234800,10.03023486328125,-0.3289084611051108,0.0026175212115049362,-0.15340572714787282,0.0051312572322785854,0.005039568002576706,0.9645370197590393,-0.06179022629053449,left,0.001717984676361084,-0.42879905417729886,-2.8808675712466236,-8.440722881567478,-0.21473135700218204,0.0015099341981112957,-0.0024600625038146973,4.07739878474325,0.0031097829341888428
1745973799636235000,10.070235107421874,-0.3289084611051108,-0.0004803980700671673,-0.15340572714787282,0.006405922118574381,0.005039568002576706,0.9645370197590393,-0.06179022629053449,left,0.002050638198852539,-0.42879905417729886,-2.8808675712466236,-8.440722881567478,-0.21473135700218204,-0.0017669792287051678,-0.0008105635643005371,4.07739878474325,-0.001454383134841919
1745973799676235000,10.110235107421875,-0.32843293780988986,-0.00050141173414886,-0.15319973359181963,0.005100940354168415,0.005193633469400802,0.964527425324349,-0.06144076245329343,left,0.004002869129180908,-0.429239465471245,-2.8762741059765218,-8.440391457656025,-0.21491771238588164,-0.010353734716773033,-0.0002180337905883789,4.0813261873200535,0.0013843178749084473
1745973799716235000,10.150235107421874,-0.32843293780988986,0.002880058018490672,-0.15319973359181963,0.002280397806316614,0.005193633469400802,0.964527425324349,-0.06144076245329343,left,-0.0008040070533752441,-0.429239465471245,-2.8762741059765218,-8.440391457656025,-0.21491771238588164,0.001707875169813633,-0.0024693310260772705,4.0813261873200535,0.001649409532546997
1745973799756235000,10.190235107421875,-0.327562421850705,0.007383267395198345,-0.15278911737196268,0.03659901022911072,0.005113653629593283,0.9646064138038813,-0.06139162360163518,left,-0.0031339526176452637,-0.42911711201597535,-2.869085948038101,-8.443364920508861,-0.21485732312199562,0.007056107744574547,0.001876533031463623,4.080235177212954,0.0014975368976593018
1745973799796234800,10.23023486328125,-0.32714792488703204,-0.011791848577558994,-0.1525637781476636,-0.005187869071960449,0.004982314626740983,0.9646261895666152,-0.06159226042760087,left,0.005177021026611328,-0.4292374555589938,-2.8654283023133873,-8.444087974086404,-0.21493160641672096,-0.011813746765255928,0.00016608834266662598,4.081308359402418,0.00004228949546813965
1745973799836234800,10.27023486328125,-0.32714792488703204,0.000501604750752449,-0.1525637781476636,0.00027292920276522636,0.004982314626740983,0.9646261895666152,-0.06159226042760087,left,0.002394258975982666,-0.4292374555589938,-2.8654283023133873,-8.444087974086404,-0.21493160641672096,-0.010508154518902302,0.001560300588607788,4.081308359402418,0.00605398416519165
1745973799876235000,10.310235107421875,-0.3275132326974104,0.016973206773400307,-0.15270770927845648,-0.01450684666633606,0.005048611082859218,0.9645210252896301,-0.0616659111912667,left,0.005647420883178711,-0.4299926667119197,-2.8675203061565755,-8.44012023949921,-0.21529971983689378,0.0015824036672711372,-0.0010922551155090332,4.088041467049718,0.005531221628189087
1745973799916235000,10.350235107421875,-0.32762734652564784,0.01568625308573246,-0.15284338188185703,-0.007436332758516073,0.005515253237481369,0.964467762053692,-0.060794340522251404,left,-0.001914381980895996,-0.4304036326712884,-2.867942623221874,-8.43820125413537,-0.21543058937313994,-0.0006970600225031376,-0.0012851357460021973,4.091704373471439,0.0014043748378753662
1745973799956235000,10.390235107421875,-0.32762734652564784,-0.0025547966361045837,-0.15284338188185703,0.0036461823619902134,0.005515253237481369,0.964467762053692,-0.060794340522251404,left,0.0007017850875854492,-0.4304036326712884,-2.867942623221874,-8.43820125413537,-0.21543058937313994,-0.003994815982878208,-0.0008382797241210938,4.091704373471439,-0.0014232099056243896
1745973799996235000,10.430235107421876,-0.32762734652564784,-0.018503956496715546,-0.15284338188185703,0.008628028444945812,0.005515253237481369,0.964467762053692,-0.060794340522251404,left,-0.0031926631927490234,-0.4304036326712884,-2.867942623221874,-8.43820125413537,-0.21543058937313994,0.011585918255150318,-0.0017638206481933594,4.091704373471439,-0.003004908561706543
1745973800036234800,10.47023486328125,-0.32742303472336787,-0.0073254164308309555,-0.152721250775116,0.012039984576404095,0.0052275128031035074,0.9645570159313765,-0.06122415876061771,left,0.00128936767578125,-0.42969755194982545,-2.867146796669066,-8.4415207539469,-0.21512422646159338,0.015398717485368252,-0.0027736425399780273,4.085410534024239,0.0013888180255889893
1745973800076234800,10.51023486328125,-0.32725960408372645,-0.003107148688286543,-0.15265565734789524,0.011782148852944374,0.005127204388614665,0.9646340263699994,-0.06128816243363924,left,-0.00021451711654663086,-0.4290709941374763,-2.8665897473081943,-8.4444112146914,-0.21482799865400232,0.012916874140501022,-0.002707451581954956,4.079823966063559,-0.0017969906330108643
1745973800116235000,10.550235107421875,-0.32725960408372645,0.0020764502696692944,-0.15265565734789524,0.013714367523789406,0.005127204388614665,0.9646340263699994,-0.06128816243363924,left,0.0009838342666625977,-0.4290709941374763,-2.8665897473081943,-8.4444112146914,-0.21482799865400232,0.002818177454173565,-0.0003809332847595215,4.079823966063559,-0.0015701651573181152
1745973800156235000,10.590235107421876,-0.32629139085815867,-0.0003281270619481802,-0.15220347152880792,0.008062660694122314,0.005040773814128883,0.964729829725037,-0.06121471472004188,left,0.0005539059638977051,-0.42885461609387426,-2.8586951946660877,-8.448018883794546,-0.21472072032817888,-0.009030903689563274,-0.0015888512134552002,4.077894167044758,-0.0016222596168518066
1745973800196235000,10.630235107421875,-0.32629139085815867,-0.007136342115700245,-0.15220347152880792,0.009163221344351768,0.005040773814128883,0.964729829725037,-0.06121471472004188,left,0.001962721347808838,-0.42885461609387426,-2.8586951946660877,-8.448018883794546,-0.21472072032817888,-0.010137633420526981,-0.0006683468818664551,4.077894167044758,-0.0015654563903808594
1745973800236235000,10.670235107421876,-0.32593818004272107,-0.004192939959466457,-0.15194650452610917,0.000338112935423851,0.004744549072042989,0.9646992243208657,-0.061848617296199566,left,0.002674281597137451,-0.42943030559262396,-2.8549589307472107,-8.446803078263997,-0.21504685416486255,-0.007933997549116611,-0.00043582916259765625,4.083028022801876,0.000018894672393798828
1745973800276234800,10.71023486328125,-0.32593818004272107,-0.00018753763288259506,-0.15194650452610917,0.0011392263695597649,0.004744549072042989,0.9646992243208657,-0.061848617296199566,left,0.0013126730918884277,-0.42943030559262396,-2.8549589307472107,-8.446803078263997,-0.21504685416486255,-0.007960179820656776,-0.0016104578971862793,4.083028022801876,0.002084404230117798
1745973800316234800,10.75023486328125,-0.32593818004272107,0.0034936757292598486,-0.15194650452610917,0.0020532780326902866,0.004744549072042989,0.9646992243208657,-0.061848617296199566,left,0.0013027787208557129,-0.42943030559262396,-2.8549589307472107,-8.446803078263997,-0.21504685416486255,-0.0024497024714946747,-0.002012789249420166,4.083028022801876,0.0012555718421936035
1745973800356235000,10.790235107421875,-0.32593818004272107,0.003762800246477127,-0.15194650452610917,0.004545263946056366,0.004744549072042989,0.9646992243208657,-0.061848617296199566,left,0.0010091066360473633,-0.42943030559262396,-2.8549589307472107,-8.446803078263997,-0.21504685416486255,-0.0012425135355442762,-0.00002899765968322754,4.083028022801876,0.001321256160736084
1745973800396235000,10.830235107421874,-0.32593818004272107,0.003789312671869993,-0.15194650452610917,0.009572332724928856,0.004744549072042989,0.9646992243208657,-0.061848617296199566,left,-0.00010102987289428711,-0.42943030559262396,-2.8549589307472107,-8.446803078263997,-0.21504685416486255,0.000462272553704679,-0.0023900866508483887,4.083028022801876,0.001574099063873291
1745973800436235000,10.870235107421875,-0.32544582621090723,0.0016708257608115673,-0.15167721490073574,0.010371423326432705,0.0047104787588291884,0.9646636939344068,-0.061931087120390915,left,0.0018759965896606445,-0.43014247585641535,-2.84986949865371,-8.445450494611263,-0.21539701446542836,-0.004679463803768158,-0.0010797679424285889,4.0893768073067065,-0.0015963912010192871
1745973800476235000,10.910235107421874,-0.32544582621090723,-0.0028368928469717503,-0.15167721490073574,0.007751500234007835,0.0047104787588291884,0.9646636939344068,-0.061931087120390915,left,0.002681553363800049,-0.43014247585641535,-2.84986949865371,-8.445450494611263,-0.21539701446542836,-0.009074242785573006,-0.0005962848663330078,4.0893768073067065,-0.0009653270244598389
1745973800516234800,10.95023486328125,-0.32544582621090723,-0.001374205807223916,-0.15167721490073574,0.0028729508630931377,0.0047104787588291884,0.9646636939344068,-0.061931087120390915,left,0.00039446353912353516,-0.43014247585641535,-2.84986949865371,-8.445450494611263,-0.21539701446542836,-0.00745846563950181,0.00012427568435668945,4.0893768073067065,0.0004068613052368164
1745973800556234800,10.99023486328125,-0.32461041615442227,0.007927277125418186,-0.15121420584507766,0.031089894473552704,0.004496599675070061,0.9646619705575047,-0.06229697103782088,left,-0.006019949913024902,-0.43078235662714576,-2.841977868621051,-8.445346449714899,-0.2157345906447207,-0.00507776252925396,-0.0010405182838439941,4.095079402862489,0.0023953020572662354
1745973800596234800,11.03023486328125,-0.32461041615442227,-0.00036229752004146576,-0.15121420584507766,0.005964463576674461,0.004496599675070061,0.9646619705575047,-0.06229697103782088,left,0.009721159934997559,-0.43078235662714576,-2.841977868621051,-8.445346449714899,-0.2157345906447207,-0.014414961449801922,0.0008992850780487061,4.095079402862489,0.000647127628326416
1745973800636235000,11.070235107421874,-0.3236140063473048,0.005626178812235594,-0.1507081804294168,0.0007447274401783943,0.004495793448081854,0.9646365260797445,-0.06224138977238677,left,0.003814518451690674,-0.4317570510186835,-2.8322905873432753,-8.444385495728254,-0.21620171968357618,-0.005943188443779945,-0.0006369352340698242,4.103762767794728,0.002285391092300415
1745973800676235000,11.110235107421875,-0.3236140063473048,0.015404906123876572,-0.1507081804294168,-0.006358174607157707,0.004495793448081854,0.9646365260797445,-0.06224138977238677,left,0.005798995494842529,-0.4317570510186835,-2.8322905873432753,-8.444385495728254,-0.21620171968357618,-0.0052056265994906425,-0.001458972692489624,4.103762767794728,0.004416018724441528
1745973800716235000,11.150235107421874,-0.32367888820355406,0.012264227494597435,-0.15081792184327522,-0.0030359842348843813,0.005046644616209137,0.9645401309323202,-0.061260225034937194,left,-0.0010030269622802734,-0.43261911606229836,-2.8317122029334305,-8.440844462120532,-0.21654247157875722,-0.005040448158979416,-0.0016050934791564941,4.111439293771982,0.0008906424045562744
1745973800756235000,11.190235107421875,-0.3235995809557725,0.0005640126764774323,-0.15078111812174094,0.005591776221990585,0.005149249227884057,0.9644975498945322,-0.06110883681099533,left,0.0023819804191589355,-0.4330855799010603,-2.8304326845169068,-8.439249886405468,-0.2167556988036844,-0.0021964386105537415,-0.0013213157653808594,4.115591737276316,-0.002175241708755493
1745973800796234800,11.23023486328125,-0.3235995809557725,-0.01116478443145752,-0.15078111812174094,0.009569816291332245,0.005149249227884057,0.9644975498945322,-0.06110883681099533,left,-0.004175662994384766,-0.4330855799010603,-2.8304326845169068,-8.439249886405468,-0.2167556988036844,0.012289490550756454,0.00015151500701904297,4.115591737276316,-0.0012881457805633545
1745973800836234800,11.27023486328125,-0.32334972051864025,-0.005803641863167286,-0.15065505568067383,0.010880878195166588,0.0048820654421072775,0.9646163909433361,-0.061444002294107784,left,0.001171886920928955,-0.4321265891425875,-2.8295769444704053,-8.443695175376535,-0.2163201057325562,0.014741544611752033,-0.0021227896213531494,4.107053626033664,-0.00007033348083496094
1745973800876235000,11.310235107421875,-0.32334972051864025,-0.008046410977840424,-0.15065505568067383,0.006699961610138416,0.0048820654421072775,0.9646163909433361,-0.061444002294107784,left,-0.0002067089080810547,-0.4321265891425875,-2.8295769444704053,-8.443695175376535,-0.2163201057325562,0.012120815925300121,-0.00014105439186096191,4.107053626033664,-0.0006210505962371826
1745973800916235000,11.350235107421875,-0.3226859293505631,-0.0017189416103065014,-0.15034618119512477,0.01540357619524002,0.004631363357918592,0.9647721306493752,-0.06164208711824668,left,0.0005936026573181152,-0.43110593852208356,-2.825299121020734,-8.449542732360959,-0.21584536840594823,0.008152478374540806,-0.0003052651882171631,4.097962557083368,-0.0006210505962371826
1745973800956235000,11.390235107421875,-0.3226859293505631,0.00020999019034206867,-0.15034618119512477,-0.0002875886857509613,0.004631363357918592,0.9647721306493752,-0.06164208711824668,left,0.0025388002395629883,-0.43110593852208356,-2.825299121020734,-8.449542732360959,-0.21584536840594823,-0.005491604097187519,0.00018653273582458496,4.097962557083368,-0.001513838768005371
1745973800996235000,11.430235107421876,-0.3226859293505631,0.008583901450037956,-0.15034618119512477,-0.007840245962142944,0.004631363357918592,0.9647721306493752,-0.06164208711824668,left,0.0008015632629394531,-0.43110593852208356,-2.825299121020734,-8.449542732360959,-0.21584536840594823,-0.004622930660843849,-0.0006912946701049805,4.097962557083368,0.0008900761604309082
1745973801036234800,11.47023486328125,-0.3218971034472261,0.05475916713476181,-0.15015130995677228,0.006220842711627483,0.005482042737286368,0.9647777962558187,-0.059782318560230294,left,-0.000056743621826171875,-0.4315806661753569,-2.8180174395799633,-8.449922671589254,-0.2159361369475987,0.009533402509987354,-0.0008912980556488037,4.102191572955251,0.0003654956817626953
1745973801076234800,11.51023486328125,-0.3207321847502339,0.04909994453191757,-0.14984026126383018,0.009548068977892399,0.006501098349801669,0.9648469516659368,-0.05742713524641608,left,0.0006018280982971191,-0.43168690993995307,-2.8080343902260063,-8.45278565980494,-0.21581417584075407,0.017126942053437233,-0.000773996114730835,4.103137913894653,-0.0016901791095733643
1745973801116235000,11.550235107421875,-0.3196442174363513,0.038373954594135284,-0.14954111556004981,0.00420250091701746,0.007368510572969088,0.9649331874712189,-0.055366715833369544,left,0.0014748573303222656,-0.43157208483634607,-2.798984530068934,-8.456282854270935,-0.21560843423935172,0.023336296901106834,-0.002618759870529175,4.102115292848646,0.0013141334056854248
1745973801156235000,11.590235107421876,-0.318628160977494,0.04911629855632782,-0.14928514844441057,0.007120785303413868,0.00823895413630934,0.9650343984609907,-0.05328203335740845,left,0.0015693902969360352,-0.4312496691572722,-2.7908053152665495,-8.460378014630079,-0.21530138032810944,0.02127877250313759,-0.0024253427982330322,4.099242952282727,0.002802133560180664
1745973801196235000,11.630235107421875,-0.3174726723629562,0.04597688093781471,-0.14897674256713273,0.0061072129756212234,0.009203265634711926,0.9651246144361626,-0.05100348854404518,left,0.0024579763412475586,-0.4311140611511662,-2.781201036097109,-8.46412538446486,-0.21507121239746518,0.025057703256607056,-0.002231210470199585,4.098035037797689,-0.0016316771507263184
1745973801236235000,11.670235107421876,-0.31683780322447863,0.02198941260576248,-0.1488344730719479,0.005116361193358898,0.00982810965680865,0.9651864469290993,-0.04953287720041137,left,-0.0003323554992675781,-0.43090590332875756,-2.7760923147812484,-8.46669961886704,-0.2148644671895814,0.008817987516522408,-0.00035002827644348145,4.096180349841713,-0.0007942616939544678
1745973801276234800,11.71023486328125,-0.3166887893503506,0.014549735002219677,-0.14884150142226818,-0.005819245241582394,0.010227917957503836,0.9651630635460374,-0.048719676985807654,left,0.0005686283111572266,-0.43119965617207967,-2.774455945751071,-8.46596955102682,-0.2149462028258935,-0.0032171737402677536,-0.0003261268138885498,4.0987975466027855,-0.0006403028964996338
1745973801316234800,11.75023486328125,-0.3166887893503506,0.012170501053333282,-0.14884150142226818,0.016812369227409363,0.010227917957503836,0.9651630635460374,-0.048719676985807654,left,-0.010685265064239502,-0.43119965617207967,-2.774455945751071,-8.46596955102682,-0.2149462028258935,0.009230838157236576,-0.0013217628002166748,4.0987975466027855,-0.0015038549900054932
1745973801356235000,11.790235107421875,-0.3154638814406829,0.008756760507822037,-0.14835011649130292,0.017270253971219063,0.01056910502896092,0.965236515217616,-0.047759721260823694,left,0.007242381572723389,-0.4313199223683846,-2.763930752344429,-8.468892744997143,-0.21493920956398938,-0.0024714982137084007,-0.0014490783214569092,4.099868975226581,0.0002505481243133545
1745973801396235000,11.830235107421874,-0.3154638814406829,0.0010159625671803951,-0.14835011649130292,0.006627403199672699,0.01056910502896092,0.965236515217616,-0.047759721260823694,left,0.0020102858543395996,-0.4313199223683846,-2.763930752344429,-8.468892744997143,-0.21493920956398938,0.0012616182211786509,0.00019609928131103516,4.099868975226581,0.0012898445129394531
1745973801436235000,11.870235107421875,-0.3154638814406829,0.01085457019507885,-0.14835011649130292,0.0014117169193923473,0.01056910502896092,0.965236515217616,-0.047759721260823694,left,0.004050016403198242,-0.4313199223683846,-2.763930752344429,-8.468892744997143,-0.21493920956398938,0.005901397205889225,-0.0005726516246795654,4.099868975226581,0.004894137382507324
1745973801476235000,11.910235107421874,-0.31509823717929086,0.02040228620171547,-0.14827910345504436,-0.009172562509775162,0.011017341913172097,0.9652512957901949,-0.04676060707804587,left,0.00006920099258422852,-0.43138737719634795,-2.760748322916031,-8.469639763972163,-0.2148995799462147,0.0016826484352350235,-0.0021012425422668457,4.100469863729178,0.0025416016578674316
1745973801516234800,11.95023486328125,-0.3150038730847318,0.013520830310881138,-0.14831793219235884,0.00005485024303197861,0.011450653436865365,0.9652206223715389,-0.045893450074550445,left,-0.0007295012474060059,-0.43170297915406014,-2.7595480072155594,-8.468669457635283,-0.21498788091237137,0.0005377867491915822,-0.0011568665504455566,4.103281121757626,-0.000033229589462280273
1745973801556234800,11.99023486328125,-0.3150038730847318,-0.0036481963470578194,-0.14831793219235884,-0.015617924742400646,0.011450653436865365,0.9652206223715389,-0.045893450074550445,left,0.0030316710472106934,-0.43170297915406014,-2.7595480072155594,-8.468669457635283,-0.21498788091237137,0.00857788510620594,-0.0017893016338348389,4.103281121757626,-0.0026199817657470703
1745973801596235000,12.030235107421875,-0.3150038730847318,-0.004018703941255808,-0.14831793219235884,0.010542931966483593,0.011450653436865365,0.9652206223715389,-0.045893450074550445,left,0.0008196234703063965,-0.43170297915406014,-2.7595480072155594,-8.468669457635283,-0.21498788091237137,0.005821474827826023,-0.0015140771865844727,4.103281121757626,-0.0007670819759368896
1745973801636235000,12.070235107421874,-0.3152840301300411,-0.00656648725271225,-0.14847335716368715,0.0034041390754282475,0.01144853549308633,0.9652622874352353,-0.04586149007571427,left,-0.001231372356414795,-0.4311003493939226,-2.7626868897631764,-8.470245328649877,-0.21469352432426553,0.00976058840751648,-0.0015710294246673584,4.097912872722745,-0.0021820068359375
1745973801676235000,12.110235107421875,-0.3152840301300411,-0.002273007296025753,-0.14847335716368715,0.013500403612852097,0.01144853549308633,0.9652622874352353,-0.04586149007571427,left,0.00017821788787841797,-0.4311003493939226,-2.7626868897631764,-8.470245328649877,-0.21469352432426553,0.004014785401523113,-0.00028523802757263184,4.097912872722745,-0.0012278556823730469
1745973801716235000,12.150235107421874,-0.3152840301300411,-0.0016475541051477194,-0.14847335716368715,0.00438280776143074,0.01144853549308633,0.9652622874352353,-0.04586149007571427,left,0.0003864169120788574,-0.4311003493939226,-2.7626868897631764,-8.470245328649877,-0.21469352432426553,-0.007469401694834232,-0.00003808736801147461,4.097912872722745,-0.0009857714176177979
1745973801756235000,12.190235107421875,-0.3152840301300411,-0.001028826110996306,-0.14847335716368715,-0.00012253504246473312,0.01144853549308633,0.9652622874352353,-0.04586149007571427,left,0.0017159581184387207,-0.4311003493939226,-2.7626868897631764,-8.470245328649877,-0.21469352432426553,-0.006503674667328596,0.0002047717571258545,4.097912872722745,0.0004894435405731201
1745973801796234800,12.23023486328125,-0.3152840301300411,-0.0025180685333907604,-0.14847335716368715,-0.009249670431017876,0.01144853549308633,0.9652622874352353,-0.04586149007571427,left,0.003932535648345947,-0.4311003493939226,-2.7626868897631764,-8.470245328649877,-0.21469352432426553,-0.0035238878335803747,0.0006668269634246826,4.097912872722745,0.001152724027633667
1745973801836234800,12.27023486328125,-0.316052696120211,-0.0057303886860609055,-0.148746933077169,-0.017361432313919067,0.011080766860521275,0.9652166107889368,-0.04678456966599005,left,0.0017018914222717285,-0.4310397875155915,-2.7692738669380543,-8.468354984858632,-0.21472861290369508,-0.0013123711105436087,-0.00009387731552124023,4.097373066757619,0.00021082162857055664
1745973801876235000,12.310235107421875,-0.3168936528489797,-0.004601746331900358,-0.14911323591308231,-0.01899392530322075,0.011006150495890498,0.9651495910097048,-0.047136460635777505,left,0.0023235678672790527,-0.4311015997201744,-2.7763156021431086,-8.465783088544011,-0.21477993884697572,-0.006898058578372002,-0.0012030601501464844,4.097923978638649,0.002946227788925171
1745973801916235000,12.350235107421875,-0.3176978249913973,0.0000013355165719985962,-0.1494734448898915,-0.01618005707859993,0.011038931249090951,0.965054583964331,-0.04730463353503252,left,0.0018140077590942383,-0.43144738350497314,-2.7826798764780163,-8.462201138404012,-0.21495464612975704,-0.009191736578941345,-0.0018272697925567627,4.101004408997297,0.0015801191329956055
1745973801956235000,12.390235107421875,-0.3176978249913973,-0.0035441056825220585,-0.1494734448898915,-0.01030094176530838,0.011038931249090951,0.965054583964331,-0.04730463353503252,left,0.000752568244934082,-0.43144738350497314,-2.7826798764780163,-8.462201138404012,-0.21495464612975704,-0.0033514476381242275,-0.003437519073486328,4.101004408997297,0.000764995813369751
1745973801996235000,12.430235107421876,-0.31877833143970036,-0.01006842590868473,-0.14992429045414807,-0.004844047129154205,0.010948413987994746,0.9649216870041979,-0.047820503629134384,left,0.00114518404006958,-0.43197542142031625,-2.7911425843968987,-8.45713158005476,-0.21524167064308952,-0.008968500420451164,-0.0014420747756958008,4.105707472121716,0.00042703747749328613
1745973802036234800,12.47023486328125,-0.31877833143970036,-0.016028478741645813,-0.14992429045414807,-0.004836258012801409,0.010948413987994746,0.9649216870041979,-0.047820503629134384,left,0.0009509921073913574,-0.43197542142031625,-2.7911425843968987,-8.45713158005476,-0.21524167064308952,-0.0037382720038294792,-0.002062678337097168,4.105707472121716,-0.0037360191345214844
1745973802076234800,12.51023486328125,-0.31986261807913974,-0.01919940672814846,-0.15029754363294098,-0.004952035844326019,0.010387840129220458,0.9648504865354484,-0.04921991838004832,left,0.0033849477767944336,-0.43194852095356734,-2.800345589289069,-8.4542048789531,-0.21532798129487837,-0.002652608323842287,-0.0016502439975738525,4.105468110407888,0.0024274885654449463
1745973802116235000,12.550235107421875,-0.31986261807913974,-0.0024629849940538406,-0.15029754363294098,-0.005723387934267521,0.010387840129220458,0.9648504865354484,-0.04921991838004832,left,0.0021582841873168945,-0.43194852095356734,-2.800345589289069,-8.4542048789531,-0.21532798129487837,-0.0003069974482059479,-0.005848109722137451,4.105468110407888,0.0019466578960418701
1745973802156235000,12.590235107421876,-0.31982094771384023,0.008773565292358398,-0.1502569411029781,0.036083806306123734,0.010215245143067337,0.9648928820718788,-0.04950789876437292,left,-0.009434938430786133,-0.43158552057299604,-2.8004616168841716,-8.455735741782188,-0.2151749932458022,0.008935325779020786,-0.0017535686492919922,4.102234827575088,0.0005975663661956787
1745973802196235000,12.630235107421875,-0.3189192542367086,-0.00768677331507206,-0.14982826125684578,0.009743602946400642,0.010116130502705618,0.9649754698883202,-0.04948807344227092,left,0.006793975830078125,-0.43143986726622335,-2.7930232835769653,-8.458824939969182,-0.21510795265835345,-0.0010247975587844849,-0.0022546350955963135,4.100937481240928,-0.00174751877784729
1745973802236235000,12.670235107421876,-0.3189192542367086,-0.00022358540445566177,-0.14982826125684578,0.0031220661476254463,0.010116130502705618,0.9649754698883202,-0.04948807344227092,left,0.004318654537200928,-0.43143986726622335,-2.7930232835769653,-8.458824939969182,-0.21510795265835345,-0.0015170029364526272,-0.0008476972579956055,4.100937481240928,0.002376168966293335
1745973802276234800,12.71023486328125,-0.3189192542367086,0.015333433635532856,-0.14982826125684578,-0.004890204407274723,0.010116130502705618,0.9649754698883202,-0.04948807344227092,left,0.005153059959411621,-0.43143986726622335,-2.7930232835769653,-8.458824939969182,-0.21510795265835345,-0.002847365103662014,-0.0003516674041748047,4.100937481240928,0.004284173250198364
1745973802316234800,12.75023486328125,-0.3189192542367086,0.007838290184736252,-0.14982826125684578,-0.001044305507093668,0.010116130502705618,0.9649754698883202,-0.04948807344227092,left,-0.0003591775894165039,-0.43143986726622335,-2.7930232835769653,-8.458824939969182,-0.21510795265835345,-0.0032423788215965033,-0.000830918550491333,4.100937481240928,0.00018280744552612305
1745973802356235000,12.790235107421875,-0.3189537999591971,-0.012044964358210564,-0.1498622857125239,-0.003088772064074874,0.010331821324398992,0.9649048011832121,-0.04915499211185981,left,-0.0001882314682006836,-0.4320796897141902,-2.792492245440185,-8.45623492347598,-0.21539097175851774,-0.002754141576588154,-0.001271963119506836,4.106635985143482,-0.0008237063884735107
1745973802396235000,12.830235107421874,-0.3189537999591971,-0.021305818110704422,-0.1498622857125239,-0.008526401594281197,0.010331821324398992,0.9649048011832121,-0.04915499211185981,left,0.0041081905364990234,-0.4320796897141902,-2.792492245440185,-8.45623492347598,-0.21539097175851774,0.009020489640533924,-0.001755356788635254,4.106635985143482,-0.001638650894165039
1745973802436235000,12.870235107421875,-0.31945162519572495,-0.01721944473683834,-0.1500090994324431,0.003609688952565193,0.009817249316227883,0.9649465331309026,-0.050214310378901714,left,0.0022308826446533203,-0.4313681514749694,-2.7976185024127362,-8.45761556417942,-0.21512521523357409,0.012462561950087547,-0.0022330284118652344,4.100298598815501,-0.0026767849922180176
1745973802476235000,12.910235107421874,-0.3197796991173675,-0.016227342188358307,-0.15009939350581356,0.0037820283323526382,0.009421423676014116,0.9649875239440143,-0.051008561256638794,left,-0.0004876255989074707,-0.43077245950066806,-2.8011604128032923,-8.45901490958333,-0.21489631055635375,0.007089780643582344,-0.0019882619380950928,4.094991140057147,-0.000486522912979126
1745973802516234800,12.95023486328125,-0.3197062838712672,-0.007154793478548527,-0.15002624574080833,0.004780475050210953,0.009158817848461261,0.9650366861549026,-0.051469536886445136,left,0.0015135407447814941,-0.4303709107943342,-2.801055783385038,-8.460780750212074,-0.2147378430198191,0.003299232805147767,-0.0011649727821350098,4.091412697048485,0.0008167922496795654
