time,seconds_elapsed,roll,rotationRateZ,quaternionY,rotationRateY,quaternionZ,quaternionW,yaw,devicelocation,accelerationZ,pitch,gravityX,gravityZ,quaternionX,rotationRateX,accelerationX,gravityY,accelerationY
1746231631848701700,0.20370166015625,-0.9819582259502145,-0.031642183661460876,-0.47115994986312376,0.05756518244743347,5.8670204982556695e-18,0.8817375294585219,0.02206059203463277,right,-0.41214293241500854,0.04125782958507093,-8.1481381115973,-5.441930357164145,0.023389117678734427,0.03296947479248047,0.6319518089294434,-0.40448633465152234,0.11501681804656982
1746231631888701700,0.24370166015625,-0.5422708714269763,-0.06274263560771942,-0.26878478370746717,0.13360252976417542,0.08730503970403578,0.959234698247016,0.167881307711474,right,-0.11568009853363037,-0.04909186144553925,-5.054942379400134,-8.389657880240678,-0.0011152707180912857,0.0004135444760322571,0.3187342882156372,0.48123336464762684,0.024556506425142288
1746231631928701700,0.28370166015625,-0.3334967835226808,-0.08771392703056335,-0.16895915350471288,0.19762276113033295,0.12583700426852512,0.9774407003845793,0.2439390960557131,right,-0.03011906147003174,-0.07206805646703172,-3.2018656580135225,-9.242284178635478,-0.015081764368609918,-0.017263632267713547,0.13878674805164337,0.7061345914453268,-0.0036383643746376038
1746231631968701700,0.32370166015625,-0.26251180536377167,-0.09354852139949799,-0.13463704238890659,0.2091900110244751,0.13695187726856542,0.9811835711132908,0.26732789986573374,right,-0.016707241535186768,-0.0759904144582714,-2.537551269687712,-9.443354447990655,-0.01989419224066256,0.0012972000986337662,0.07566103339195251,0.7444944249778985,-0.01644507423043251
1746231632008701700,0.36370166015625,-0.19143738622848688,-0.09938311576843262,-0.10013469467028124,0.22075724601745605,0.14788341825552123,0.983612910210692,0.2909423976673546,right,-0.008025169372558594,-0.07824745160443818,-1.8602040890485048,-9.598041736355423,-0.024679986677045667,0.01985803246498108,0.01120634377002716,0.7665626105315982,-0.027590498328208923
1746231632048701700,0.40370166015625,-0.18499640233423442,-0.08025124669075012,-0.09648980861132744,0.10892608761787415,0.14577507661796227,0.9843491324592502,0.28736288182934094,right,-0.016643524169921875,-0.07204099211434452,-1.7991855567231774,-9.614315410286187,-0.022272115674377417,0.05564703419804573,0.005747869610786438,0.705869876094535,-0.02527862787246704
1746231632088701700,0.44370166015625,-0.18320270550670892,-0.06163050979375839,-0.09510120692981681,0.030546769499778748,0.14476974441142307,0.9847014300638673,0.2859759234083734,right,-0.0170937180519104,-0.06497362084643726,-1.7828018465466797,-9.622192427271605,-0.018986648837124035,0.06391815096139908,0.006792157888412476,0.6367253204587847,-0.016611270606517792
1746231632128701700,0.48370166015625,-0.18139993531338086,-0.04300977289676666,-0.09371126431917211,-0.04783254116773605,0.1437623745318008,0.9850401185718615,0.2845768194915172,right,-0.01759427785873413,-0.057908719056180495,-1.7662198373191058,-9.629574938738346,-0.015700909418744392,0.07218927145004272,0.007816240191459656,0.5675732025710866,-0.007943149656057358
1746231632168701700,0.52370166015625,-0.18311738773946765,-0.04866500571370125,-0.09410201470096699,-0.08703593909740448,0.14273389715251958,0.9851984076401237,0.2830263342380378,right,-0.00615239143371582,-0.05148493843745015,-1.7833827151745556,-9.629913376912475,-0.012484338944583192,0.0669933408498764,0.0061035603284835815,0.5046717425759881,-0.005352284759283066
1746231632208701700,0.56370166015625,-0.18489890835825346,-0.04815834015607834,-0.09473939317112197,-0.09471441805362701,0.1421158948197913,0.9852473333197155,0.2820527451788972,right,-0.004112362861633301,-0.048082800387947745,-1.800841068845242,-9.628353287988901,-0.010726406960817215,0.09118997305631638,0.003683313727378845,0.47134950135182585,-0.0050237737596035
1746231632248701700,0.60370166015625,-0.18667682113165437,-0.04765167459845543,-0.0953763987216765,-0.10239289700984955,0.14149735929326082,0.9852924433812945,0.28108541806101,right,-0.002086162567138672,-0.04467894427442091,-1.818243746805936,-9.626657005465031,-0.008968435724793637,0.11538660526275635,0.0012574046850204468,0.43800497523061926,-0.0046930015087127686
1746231632288701700,0.64370166015625,-0.18995644461414926,-0.061148516833782196,-0.09661913126306143,-0.11984944343566895,0.140636369546015,0.9853163241338749,0.2798037741421008,right,-0.010330796241760254,-0.03931102309936825,-1.8502230855211614,-9.622812604996561,-0.0061526288366598155,0.10967492312192917,-0.002739548683166504,0.3854101339880377,-0.0017538778483867645
1746231632328701700,0.68370166015625,-0.19451794201758152,-0.0543380044400692,-0.09850651055753802,-0.12352437525987625,0.13974726984141742,0.9852695287516785,0.2784668498064027,right,-0.0000553131103515625,-0.034093090995359884,-1.8944610173068939,-9.616114568662644,-0.0033262243189106414,0.1305827647447586,-0.0006725788116455078,0.3342742228494957,-0.005058815702795982
1746231632368701700,0.72370166015625,-0.19906948610796152,-0.056514494121074677,-0.10037169834895751,-0.10152531415224075,0.13885800121413194,0.9852125493504381,0.2771857517607205,right,0.005272090435028076,-0.028576705840150936,-1.9385444891832768,-9.609053544235229,-0.00035423308068503533,0.09772095829248428,0.0035714805126190186,0.28020357343330976,-0.0061612240970134735
1746231632408701700,0.76370166015625,-0.20260168342354531,-0.033287033438682556,-0.10180657302546764,-0.05438113585114479,0.13791607332012534,0.9851955877353522,0.2757221814062263,right,0.01130521297454834,-0.02407351200496328,-1.9727073094174266,-9.603285482227802,0.002035300804052751,0.05718069151043892,0.005771532654762268,0.2360576673125848,-0.010818935930728912
1746231632448701700,0.80370166015625,-0.20370363778347786,-0.012960720807313919,-0.10225762967790077,-0.027012763544917107,0.13763651063684687,0.9851861752361656,0.2752940414988703,right,0.006925642490386963,-0.02271075119791517,-1.983351745289564,-9.601411505049466,0.002760883091611704,0.009268365800380707,0.005081310868263245,0.22269721394740044,-0.00977258663624525
1746231632488701700,0.84370166015625,-0.20399267533587012,0.007261326536536217,-0.10240282060291214,-0.009825991466641426,0.1375343945143148,0.9851853834864563,0.2750837901657557,right,0.003961324691772461,-0.022748055337140687,-1.9861251555256545,-9.600829905769228,0.0027516275010850523,-0.025687668472528458,0.002545267343521118,0.2230629419872537,-0.015169335529208183
1746231632528701700,0.88370166015625,-0.20431933256128912,0.030084658414125443,-0.10261961655408827,-0.0318039171397686,0.13783685956913788,0.985121516532073,0.27561438586898385,right,-0.007779419422149658,-0.023584067718051296,-1.989222683149576,-9.599994623988866,0.002389375203800234,-0.035595618188381195,-0.002479180693626404,0.2312592175222933,-0.016830476000905037
1746231632568701700,0.92370166015625,-0.205700739194558,0.03921704739332199,-0.10332102063011234,-0.05755093693733215,0.13839664093487827,0.9849697434983794,0.2767209478996983,right,-0.011863887310028076,-0.023913448446437918,-2.0024666339956223,-9.597162615433335,0.002379461434534691,-0.025846704840660095,-0.002534925937652588,0.2344884269681759,-0.01181318424642086
1746231632608701700,0.96370166015625,-0.20708175480353727,0.04834943264722824,-0.10402232474853054,-0.083297960460186,0.13895618834783985,0.984817115821046,0.2778268084839843,right,-0.015950322151184082,-0.024244322946902087,-2.0157025476656854,-9.594311317655444,0.0023695483620040053,-0.016097789630293846,-0.002591460943222046,0.23773226772760972,-0.006797391921281815
1746231632648701700,1.00370166015625,-0.21262424457682627,0.0007941350340843201,-0.10665028564878555,-0.13103656470775604,0.1394305422285989,0.984465462165992,0.27895711747441715,right,-0.006707489490509033,-0.022795658225563654,-2.0689181511551142,-9.583318798997997,0.0035282752760305907,0.03130931779742241,-0.0033701062202453613,0.22352964618355034,-0.007181922905147076
1746231632688701700,1.04370166015625,-0.21802455683125685,-0.022302867844700813,-0.10921158237008528,-0.16406072676181793,0.1390926709058151,0.9842281020165861,0.27844483196412834,right,-0.005356490612030029,-0.021369446317951034,-2.1207075212337076,-9.572307575640082,0.004578837671027026,0.009714074432849884,-0.0024140626192092896,0.20954669527215883,-0.00228891521692276
1746231632728701700,1.08370166015625,-0.22479408013683463,-0.036688294261693954,-0.11252963638836992,-0.1208244115114212,0.13824011034832637,0.9839719866940423,0.2767726254278943,right,0.02003800868988037,-0.021121113010788634,-2.1854699162624773,-9.55778279120326,0.005077723833918075,-0.018382178619503975,0.004965201020240784,0.2071119241395965,-0.007488742470741272
1746231632768701700,1.12370166015625,-0.22770530302887856,0.010066520422697067,-0.11399364167156263,-0.02915753424167633,0.13784544543316035,0.9838591437710101,0.27593622726326733,right,0.01407170295715332,-0.021558907939370434,-2.213264662769437,-9.55129050657451,0.005015845387068207,-0.01752842590212822,-0.002359718084335327,0.21140425103865562,-0.007131864316761494
1746231632808701700,1.16370166015625,-0.2276080349452414,0.05329131335020065,-0.11402057217205973,0.005210168659687042,0.1383781714786483,0.9837836867590191,0.2768905570139272,right,0.00212860107421875,-0.022695095872264683,-2.2122800356462595,-9.551265372133255,0.00450442969509868,-0.045852310955524445,-0.009225532412528992,0.22254372215243054,-0.0007449425756931305
1746231632848701700,1.20370166015625,-0.2267393287374794,0.08431964367628098,-0.11377252957929278,0.023001141846179962,0.1396603186287771,0.9836361491298908,0.2791909227897722,right,-0.003194272518157959,-0.025390106828862096,-2.2038391011677683,-9.552564764294027,0.0032489841597380022,-0.07559444010257721,-0.00975850224494934,0.248965097946953,0.0005917437374591827
1746231632888701700,1.24370166015625,-0.22643659520385398,0.0737062394618988,-0.11387492217565193,-0.0005081165581941605,0.14121354886734916,0.9834066391889672,0.2819340797129835,right,-0.007243633270263672,-0.029095874563824186,-2.2007249146699905,-9.552266658130288,0.001560694323658307,-0.0837801843881607,-0.0066216737031936646,0.2852927680647932,0.0032404791563749313
1746231632928701700,1.28370166015625,-0.22718219042418242,0.0380265973508358,-0.1144564578557788,-0.02514089271426201,0.14195260843817975,0.983233990754146,0.28308939235594266,right,-0.004624068737030029,-0.032215047019960356,-2.2076352785803377,-9.5497099593848,0.0001450877222614898,-0.08344774693250656,-0.004658624529838562,0.31586700748875735,0.005180321633815765
1746231632968701700,1.32370166015625,-0.22895403566300207,-0.016446460038423538,-0.11556942144434983,-0.04520697146654129,0.14187608897394566,0.983113742347163,0.28253924647167955,right,0.0009656548500061035,-0.035722001394216434,-2.2242872843042014,-9.544645661732554,-0.0014857536161186628,-0.08818592876195908,-0.004544362425804138,0.3502386481679976,0.004300758242607117
1746231633008701700,1.36370166015625,-0.23094943276498067,-0.05211896076798439,-0.11675908047276513,-0.0330047644674778,0.14088300361574882,0.983112551430813,0.2801663045951031,right,0.01055908203125,-0.03880586379534881,-2.2430703107073904,-9.539091534736752,-0.0029993437750936245,-0.07968170940876007,-0.006224095821380615,0.3804600007673725,0.0015845783054828644
1746231633048701700,1.40370166015625,-0.23149291730164795,-0.06484454870223999,-0.11714278692332124,0.00733136385679245,0.1396840708902904,0.9832344122833948,0.2775230812159125,right,0.013650298118591309,-0.0405908419915174,-2.2480950070016084,-9.537194761204718,-0.003993825759820599,-0.058253221213817596,-0.006568685173988342,0.39795086846817285,-0.003192789852619171
1746231633088701700,1.44370166015625,-0.23204119501312845,-0.07757014036178589,-0.11752620520922864,0.047667495906353,0.13848475598500629,0.9833537380899596,0.27487865163648023,right,0.016736984252929688,-0.04237438079593345,-2.2531568204358217,-9.53525531757474,-0.00498829907179249,-0.03682473301887512,-0.00690951943397522,0.41542635593675076,-0.007968578487634659
1746231633128701700,1.48370166015625,-0.22761295584315078,-0.08080518245697021,-0.1153030400504819,0.13687554001808167,0.13635248292188826,0.9839131398691698,0.2706245896282506,right,0.006920874118804932,-0.04185627903429814,-2.210958723914623,-9.545347672522068,-0.0052851956201079514,0.005001578480005264,-0.00492781400680542,0.4103500025205314,-0.0005326159298419952
1746231633168701700,1.52370166015625,-0.22342763220734393,-0.06505359709262848,-0.1132332105603694,0.146823450922966,0.135278617366126,0.9842997200637926,0.2684731005212015,right,0.006355106830596924,-0.04178724802599302,-2.1709954007081684,-9.554545124456286,-0.005658349398017037,-0.015670739114284515,-0.0008664429187774658,0.4096736376289278,-0.000022143125534057617
1746231633208701700,1.56370166015625,-0.21924208229271752,-0.049302004277706146,-0.11116269994804648,0.15677136182785034,0.13420401912254565,0.9846805106574888,0.26632139453702575,right,0.005771994590759277,-0.04172719583319287,-2.130990868708491,-9.563571895998717,-0.006031461775408521,-0.036343056708574295,0.003190740942955017,0.409085243281722,0.0004793591797351837
1746231633248701700,1.60370166015625,-0.2122093077385832,-0.03057459183037281,-0.10777295757558164,0.13091138005256653,0.13296327673865146,0.9852171242306487,0.26371480436867883,right,-0.00792008638381958,-0.04300396377977857,-2.0635686068207026,-9.577803834968805,-0.0072730257398346786,-0.03416431322693825,0.0003218352794647217,0.42159481543861327,-0.005001641809940338
1746231633288701700,1.64370166015625,-0.20932054749620627,-0.002227267250418663,-0.1064363072037687,0.08521753549575806,0.13281708315561633,0.9853751388336647,0.2632993963160155,right,-0.011283695697784424,-0.044376824589706994,-2.0357697686605154,-9.583149872171878,-0.008163967421153228,-0.04619666934013367,0.0016481131315231323,0.43504513904433695,0.00014716386795043945
1746231633328701700,1.68370166015625,-0.2064321595720575,0.026120057329535484,-0.10509936552118196,0.03952369838953018,0.1326705344197054,0.9855305652657412,0.2628879244096004,right,-0.01465749740600586,-0.04575084649162927,-2.0079570481054483,-9.588395956131816,-0.009054873751133759,-0.058229029178619385,0.0029729753732681274,0.4485060205766931,0.0052948929369449615
1746231633368701700,1.72370166015625,-0.2055971253846181,0.05121176689863205,-0.10490257853060007,-0.0077660586684942245,0.13335587419858252,0.9854430036305303,0.2639595832308559,right,-0.017981648445129395,-0.04901796896549917,-1.9996398861370979,-9.588583587658405,-0.010665046770140844,-0.08131131529808044,-0.0005027055740356445,0.48050958041772246,0.00764237716794014
1746231633408701700,1.76370166015625,-0.20750674044926434,0.04988081380724907,-0.10606040087924402,-0.04698529094457626,0.13424797356939314,0.9851818289055589,0.26542281275826,right,-0.009802401065826416,-0.052263411398004944,-2.017614811027795,-9.583170914959908,-0.01206012613919441,-0.07524017244577408,-0.0005260556936264038,0.5122956981157883,0.012048427015542984
1746231633448701700,1.80370166015625,-0.20941195669737392,0.04854986444115639,-0.10721779706723963,-0.08620451390743256,0.13513948847943266,0.9849165449820376,0.2668800275226932,right,-0.0016361474990844727,-0.05551163364425545,-2.0355125790290534,-9.577631401011347,-0.013455155888639667,-0.06916902959346771,-0.0005573034286499023,0.5441036257868632,0.01645224541425705
1746231633488701700,1.84370166015625,-0.21372425946926601,-0.0034035039134323597,-0.10961573718220889,-0.06289499253034592,0.13557469535179995,0.9845670442211499,0.2672707998415728,right,-0.013809680938720703,-0.05971611012555262,-2.0762916025325655,-9.566444236564635,-0.015213989168284151,-0.07525308430194855,0.002477481961250305,0.5852670089654625,0.024053018540143967
1746231633528701700,1.88370166015625,-0.21492609339826896,-0.021148301661014557,-0.11035189592552574,-0.02956177294254303,0.13490776322196493,0.9845569042382555,0.26564363711201294,right,-0.0151633620262146,-0.06216033240136205,-2.087475990500301,-9.562516249465942,-0.016426503542887595,-0.07866474986076355,0.0012507885694503784,0.6091921474974602,0.025064699351787567
1746231633568701700,1.92370166015625,-0.21613215310528808,-0.03889309987425804,-0.11108779836645513,0.0037714429199695587,0.13424052720622306,0.9845444696649592,0.264013367463167,right,-0.016524970531463623,-0.06460261573379926,-2.0986821519084273,-9.55850993643403,-0.01763897947809003,-0.08207641541957855,0.00002631545066833496,0.6330946358062327,0.026078686118125916
1746231633608701700,1.96370166015625,-0.2141056414097837,-0.0997360497713089,-0.1103712127378769,0.11835275590419769,0.13193253241491376,0.9848783841689505,0.2588206685371873,right,0.04337865114212036,-0.06985753209260448,-2.078571822424233,-9.559360415783525,-0.020651088029800795,-0.10753465443849564,0.017450228333473206,0.6845113001149148,0.01781848818063736
1746231633648701700,2.00370166015625,-0.21047386497377155,-0.12099383026361465,-0.10869186769564984,0.12515832483768463,0.1302547084356184,0.9852532907367858,0.25524947114527013,right,0.02356886863708496,-0.07224756586761585,-2.0434930563889444,-9.565219078683853,-0.02226304429011961,-0.09688667953014374,0.018393442034721375,0.707890422136709,0.02049289643764496
1746231633688701700,2.04370166015625,-0.20685005073286553,-0.1422516107559204,-0.10701161682709992,0.13196390867233276,0.12857571553478192,0.9856199789075213,0.2516862209028645,right,0.0037378668785095215,-0.07465048323916934,-2.0084620750181377,-9.570869067269562,-0.023874809306028998,-0.08623870462179184,0.019341543316841125,0.731391416972503,0.02315486967563629
1746231633728701700,2.08370166015625,-0.1992280272032004,-0.16825293004512787,-0.10322397412321249,0.16179925203323364,0.12420368797046227,0.98654399949926,0.2428802284038649,right,-0.0009853243827819824,-0.07598002884651112,-1.93526079133749,-9.58493734011054,-0.025475472163169473,-0.0004991882015019655,0.000033602118492126465,0.7443928642995655,-0.009543590247631073
1746231633768701700,2.12370166015625,-0.19746293421476174,-0.11322837322950363,-0.10212035977287441,-0.01544034481048584,0.12105995349895006,0.9870729998658242,0.2368119961272578,right,0.00810772180557251,-0.07326007311446814,-1.9187296355143189,-9.590288638010621,-0.024551976951218704,0.012135062366724014,-0.014741331338882446,0.7177934650570154,-0.011944029480218887
1746231633808701700,2.16370166015625,-0.19962931374713677,-0.06428416818380356,-0.10307352691825504,-0.04645492136478424,0.11918376835733709,0.9872159170556839,0.23307694892736242,right,0.01304483413696289,-0.07200720843819931,-1.9396781693883238,-9.586983166724442,-0.023994555979075575,-0.01681269332766533,-0.013197064399719238,0.7055394020311534,-0.015577148646116257
1746231633848701700,2.20370166015625,-0.20257435072739696,-0.016544945538043976,-0.10455087252489154,-0.05642928183078766,0.11827713181728855,0.9871610024472152,0.23108519309874512,right,0.030998051166534424,-0.07286388417129958,-1.9677813973225653,-9.580633505436777,-0.02434631855429717,-0.06168876588344574,-0.01214037835597992,0.7139185233198105,-0.0037132427096366882
1746231633888701700,2.24370166015625,-0.2034570568864574,0.04083866626024246,-0.10516359022171452,0.024230845272541046,0.1183973810985768,0.9870422855193939,0.23099258802747102,right,0.02284824848175049,-0.07607962147282833,-1.9757633359871805,-9.576595043700934,-0.025887473752192414,-0.12379933148622513,-0.010577142238616943,0.7453666777677833,0.008423477411270142
1746231633928701700,2.28370166015625,-0.20147767820702256,0.05675271153450012,-0.10453355880683077,0.05906710773706436,0.11902086724887113,0.9869485349156875,0.23172096915759424,right,0.00099259614944458,-0.08216066284922227,-1.955860657904297,-9.575869067513942,-0.028970562544155736,-0.16129136085510254,-0.017979666590690613,0.8048146728407591,-0.005605235695838928
1746231633968701700,2.32370166015625,-0.19829108277147534,0.09774452447891235,-0.10327094629565427,0.10237354785203934,0.12018378337711341,0.9868615831560875,0.233695209245144,right,0.004144489765167236,-0.08719513999245708,-1.9245137718737124,-9.57795931779146,-0.03154530802902636,-0.059172436594963074,-0.00839349627494812,0.8540091310553252,-0.0322929210960865
1746231634008701700,2.36370166015625,-0.19312352299737398,0.12646645307540894,-0.10086662313798465,0.1545398235321045,0.1223106300471409,0.986824454084782,0.23804736752060301,right,0.0011519193649291992,-0.08854350302281369,-1.8747708129309117,-9.586637129765748,-0.03230246854699279,0.0144391730427742,0.005968496203422546,0.8671810395784676,-0.023801565170288086
1746231634048701700,2.40370166015625,-0.1868416495395707,0.13094671070575714,-0.0977969705198768,0.15017643570899963,0.12475171936829461,0.9868388568465669,0.2432838987210523,right,-0.007121562957763672,-0.08760283412620262,-1.814662965709716,-9.599022564086317,-0.031965780664957914,0.051481034606695175,0.004668384790420532,0.8579919901464134,-0.01761367917060852
1746231634088701700,2.44370166015625,-0.1825019432697434,0.1458001285791397,-0.09564917323029712,0.0394061878323555,0.12751866370907078,0.9867226474785498,0.24917768299762752,right,-0.027851343154907227,-0.08591785292602425,-1.7732488591730593,-9.608215339845419,-0.03112225950096105,0.04861028864979744,-0.006118342280387878,0.8415301001671701,-0.010676242411136627
1746231634128701700,2.48370166015625,-0.18264757518163896,0.1517351269721985,-0.09577816905974773,-0.06125166267156601,0.13055491130404911,0.9863323655220657,0.2553831660910048,right,-0.011180400848388672,-0.08528404071830614,-1.7747446506887674,-9.608479543739557,-0.030502939973973728,0.02440503053367138,-0.001002684235572815,0.8353373099416493,-0.0011606737971305847
1746231634168701700,2.52370166015625,-0.185039364344938,0.14356566965579987,-0.09707182847475472,-0.06514386832714081,0.13362590090004067,0.9858032046369001,0.261508382530785,right,0.009537279605865479,-0.0856289550713152,-1.7976678456366062,-9.60392319560945,-0.030219890219275174,0.005270069465041161,0.010023176670074463,0.8387073708966374,0.00699460506439209
1746231634208701700,2.56370166015625,-0.18586866338216418,0.12142905592918396,-0.0976028226034028,-0.006370339542627335,0.13635918066987376,0.9853768236715016,0.2669748384125061,right,0.00765460729598999,-0.08625426805743348,-1.8055344873584807,-9.601911855787039,-0.030206349572880986,0.00808914378285408,0.014473497867584229,0.8448170128833502,0.008957497775554657
1746231634248701700,2.60370166015625,-0.18380884906774028,0.10322397202253342,-0.09669240147219584,0.06721790134906769,0.13862469320877865,0.985144947969464,0.27159088296772577,right,0.006688356399536133,-0.08678497622547586,-1.7856703877203166,-9.605168811756371,-0.03038546238009981,0.0015978594310581684,0.015378579497337341,0.850002014305815,0.008920930325984955
1746231634288701700,2.64370166015625,-0.1795084862044888,0.11223795264959335,-0.0946848070782644,0.1073683500289917,0.14064832431444782,0.9850391249844338,0.2757729055398526,right,0.015173852443695068,-0.08749091212026866,-1.7442406452231107,-9.61216612329781,-0.03083370778118418,-0.004790808539837599,0.01356707513332367,0.8568985688865184,0.00917360931634903
1746231634328701700,2.68370166015625,-0.17406516054143598,0.11847652494907379,-0.09218384912001086,0.13247209787368774,0.1428599286456832,0.984927015085295,0.2803025854066515,right,0.0017504096031188965,-0.0891157748832527,-1.6916496033728121,-9.620133741176128,-0.03180901253613617,-0.03842078521847725,0.014309197664260864,0.8727709685400128,0.018055394291877747
1746231634368701700,2.72370166015625,-0.16944846583439144,0.05659206584095955,-0.09016602571401042,0.07736991345882416,0.14447623333972232,0.9848230178360287,0.28349934849712166,right,-0.007687270641326904,-0.09210812831753049,-1.6467707433350383,-9.625223757791519,-0.03347009937230108,-0.0601988285779953,0.016571104526519775,0.9019955286543816,0.012326598167419434
1746231634408701700,2.76370166015625,-0.16741026888676303,-0.012990500777959824,-0.0892726812686187,0.007092617452144623,0.14475767963399824,0.9848337229891735,0.28402581401314064,right,0.0005753636360168457,-0.09358924401439418,-1.6269247638754545,-9.627232759526372,-0.03432400109910829,0.007666639983654022,0.009914413094520569,0.916457769249007,-0.005731739103794098
1746231634448701700,2.80370166015625,-0.16860544012909498,-0.05062408000230789,-0.08974414705253048,-0.07000590115785599,0.1442148848516781,0.9848966344992215,0.28299537026439175,right,-0.0012271404266357422,-0.0921330443095487,-1.6386520265482365,-9.626586862838268,-0.03356589333644417,0.05241191014647484,0.001099318265914917,0.9022388358909637,-0.004552923142910004
1746231634488701700,2.84370166015625,-0.17313584008048194,-0.07964691519737244,-0.09180583474140773,-0.1440955549478531,0.14308150231305997,0.9849112060390486,0.28069528419919426,right,0.0012972354888916016,-0.0902000673032559,-1.6825446520276366,-9.62076385577321,-0.03239194105637216,0.02029961720108986,-0.0031765103340148926,0.8833615553330629,0.0036746785044670105
1746231634528701700,2.88370166015625,-0.1790922363461658,-0.08008682727813721,-0.09464659686095071,-0.1434490978717804,0.14156946449145727,0.9848795279506354,0.2774804952516992,right,0.008735120296478271,-0.08959266638702233,-1.7399148909784852,-9.611097617283463,-0.031818470626103046,-0.02082047238945961,-0.0030638575553894043,0.8774290234789252,0.0010069161653518677
1746231634568701700,2.92370166015625,-0.18335999735760145,-0.05187763646245003,-0.09676633049944872,-0.0784919336438179,0.14031554732044194,0.9848434113875744,0.2747161677100026,right,0.0007707476615905762,-0.09053091352115944,-1.7807658106744289,-9.602771102964878,-0.03211254667227142,-0.05671735480427742,-0.006575092673301697,0.8865927923392504,0.0033565685153007507
1746231634608701700,2.96370166015625,-0.18537401257771868,-0.024537252262234688,-0.09786690004690489,-0.022168397903442383,0.13943680187665908,0.9848255573450106,0.27267870964722385,right,0.0051993727684021,-0.09269123021123495,-1.7997450903020797,-9.597260230588912,-0.03313584978231179,-0.06314723193645477,-0.00570853054523468,0.9076894294470548,-0.002520360052585602
1746231634648701700,3.00370166015625,-0.18498089792191566,-0.005786392837762833,-0.09778943270307387,0.0480976328253746,0.1390639480541768,0.9848495351346092,0.27176080722610674,right,0.019454240798950195,-0.09470482411974271,-1.795632394286245,-9.596150808042287,-0.03420083374326248,-0.04176000878214836,0.0048575252294540405,0.9273493848152458,-0.0015319809317588806
1746231634688701700,3.04370166015625,-0.1812564661199982,-0.00871991366147995,-0.09600992131536952,0.13554394245147705,0.13884096053239833,0.9850299391897891,0.2713580309953721,right,0.014351487159729004,-0.09565044706446033,-1.7597208306886254,-9.601905426046251,-0.03494535573006668,-0.014435073360800743,0.013307899236679077,0.9365808120843022,0.0019244998693466187
1746231634728701700,3.08370166015625,-0.175201594285567,-0.012359964661300182,-0.09302350223343181,0.15548402070999146,0.13853550659565636,0.9853428651178346,0.2709498732886977,right,-0.0038810372352600098,-0.09570190841149923,-1.7015423440948128,-9.612336219167709,-0.035409893904653426,0.0027173738926649094,0.010948076844215393,0.9370832086484878,0.0038042664527893066
1746231634768701700,3.12370166015625,-0.16951648112087925,-0.0063438513316214085,-0.09017753042099573,0.11342760175466537,0.13827315663296025,0.9856404706916516,0.2706707572267897,right,-0.021395623683929443,-0.0950923816695596,-1.6469639278195798,-9.622415714633464,-0.035515419590003754,0.02586856298148632,0.0058721452951431274,0.9311329219419509,-0.005259372293949127
1746231634808701700,3.16370166015625,-0.166456650144932,0.011867130175232887,-0.08856764022436675,0.032412439584732056,0.1383860474089691,0.9857934670843715,0.27114032908661134,right,-0.02989935874938965,-0.0934050976858754,-1.617771297213435,-9.628945993185043,-0.03487357591230708,0.058682881295681,0.0029058456420898438,0.9146597799163311,-0.005775138735771179
1746231634848701700,3.20370166015625,-0.1663381945621921,0.018589401617646217,-0.08836733293858465,-0.032742902636528015,0.13883186192977504,0.9857922295038377,0.272238145077516,right,-0.03200554847717285,-0.0909517883579794,-1.61699739023149,-9.63132149014473,-0.03362272487318814,0.06584437191486359,0.00474923849105835,0.8907031502675264,-0.0016169846057891846
1746231634888701700,3.24370166015625,-0.16830539043865622,0.005439835600554943,-0.0891771488916415,-0.07014492154121399,0.13923813619010292,0.9857118925790082,0.27320433496054786,right,-0.025370299816131592,-0.0882827012241728,-1.6363333743423223,-9.630431263306736,-0.032126197102020485,0.07081542909145355,0.006452381610870361,0.8646334009222686,-0.0018026456236839294
1746231634928701700,3.28370166015625,-0.17142407470551613,-0.016137339174747467,-0.09050373973073425,-0.08511914312839508,0.13934599636688771,0.9856343537856213,0.273584098652346,right,-0.011878371238708496,-0.08500525609411573,-1.6668340188071131,-9.628021864077448,-0.030275046783074987,0.08835018426179886,0.006845027208328247,0.8326132187400013,-0.0038716867566108704
1746231634968701700,3.32370166015625,-0.17454115838080925,-0.04079856723546982,-0.09176576628815104,-0.07212266325950623,0.13900881817942343,0.9856302708604359,0.27313599843140063,right,0.0030516982078552246,-0.08095336776157996,-1.697409189812839,-9.62602279921472,-0.028079735532394776,0.09908906370401382,0.00871807336807251,0.793014564127475,-0.004484847187995911
1746231635008701700,3.36370166015625,-0.17654726987505853,-0.06572656333446503,-0.09245694225400088,-0.034785810858011246,0.13815143176404812,0.9857452625224522,0.2716901325736886,right,0.011797308921813965,-0.07673275870455466,-1.717289217672497,-9.625807695159315,-0.02592523929443715,0.09164249897003174,0.009299516677856445,0.7517530908692628,-0.004714056849479675
1746231635048701700,3.40370166015625,-0.17745844205699646,-0.07186362147331238,-0.09263090188392847,-0.014487763866782188,0.13691194935781095,0.9859481435276727,0.2694685554784899,right,0.01106107234954834,-0.07295518004009179,-1.7265481905356048,-9.626965048500894,-0.024101635598146053,0.07177402079105377,0.004543215036392212,0.7148114535715431,-0.008364349603652954
1746231635088701700,3.44370166015625,-0.17798795858667804,-0.06482396274805069,-0.09268297520602474,-0.009419752284884453,0.13565833580285058,0.9861476472681059,0.2671490572988112,right,0.007658660411834717,-0.07015815601318803,-1.731992865807563,-9.627979778501391,-0.022792823634674827,0.042394280433654785,0.0020160675048828125,0.6874521758724004,-0.008457411080598831
1746231635128701700,3.48370166015625,-0.1783111838014544,-0.050145622342824936,-0.0927167940272532,-0.011973555199801922,0.1345481365814827,0.9863125107010021,0.26502389593246134,right,-0.002433478832244873,-0.06858090754011881,-1.7352948299624025,-9.628474868541955,-0.02209107969251876,0.013922223821282387,-0.0034558922052383423,0.6720218939632177,-0.009535286575555801
1746231635168701700,3.52370166015625,-0.17894014285316187,-0.031539417803287506,-0.09296662655529393,-0.010769372805953026,0.13370740094972347,0.9864097584717598,0.26336110073181634,right,-0.003956735134124756,-0.0679233894104541,-1.7414288026727736,-9.62781377428472,-0.021801548826478775,-0.0009948955848813057,-0.005929306149482727,0.6655888652410358,-0.00914863869547844
1746231635208701700,3.56370166015625,-0.17967980326746275,-0.014820562675595284,-0.09333867114242694,-0.018958449363708496,0.13312907664460352,0.9864491777305399,0.2621445749986874,right,-0.008265078067779541,-0.06824601811794709,-1.748511162149161,-9.626311553028225,-0.02196812214734094,-0.028923165053129196,-0.008421599864959717,0.6687454295758157,-0.0018856748938560486
1746231635248701700,3.60370166015625,-0.18070425252270564,0.008142612874507904,-0.0939688097815648,-0.026239290833473206,0.1330327644316004,0.9863805852463654,0.26175113610044254,right,-0.005971968173980713,-0.07028359774547864,-1.7581233323641121,-9.623154550302027,-0.022924156933436017,-0.0834452211856842,-0.0016853809356689453,0.6886793065145611,0.01270093023777008
1746231635288701700,3.64370166015625,-0.1813462698006089,-0.004960857331752777,-0.09452194403251295,-0.0066080037504434586,0.13294110438576215,0.9862946983654822,0.2612193999893374,right,0.0017815232276916504,-0.07412272204523596,-1.7638113148726522,-9.619352819931507,-0.02480149371625394,-0.10475631058216095,0.003780856728553772,0.7262301617518067,0.015850290656089783
1746231635328701700,3.68370166015625,-0.18148991173369494,-0.026550142094492912,-0.09480815210209957,0.0033942097797989845,0.13245544355214597,0.9862836893677602,0.2599135082809532,right,0.00837773084640503,-0.07781168546291262,-1.764697450057417,-9.61639864630103,-0.026674615828221514,-0.07354248315095901,0.003474980592727661,0.7623021766081451,0.009017683565616608
1746231635368701700,3.72370166015625,-0.18205524967457767,-0.0005250703543424606,-0.0951519533606022,-0.04050227999687195,0.13206021180585015,0.9862865856984401,0.25899007482531083,right,0.003771960735321045,-0.07904900558250923,-1.7699616541959344,-9.614464463368058,-0.02729182961044542,0.01616581529378891,0.0010426193475723267,0.7743988571152091,0.003999359905719757
1746231635408701700,3.76370166015625,-0.18401699801551663,-0.025059444829821587,-0.09602670953759873,-0.02870333194732666,0.1319304924223145,0.9862418579681704,0.2587986376252038,right,0.008564352989196777,-0.07760670082998836,-1.789021890105307,-9.612062078401445,-0.026459595132671973,0.05279780924320221,-0.0005764514207839966,0.7602980702441186,0.00583001971244812
1746231635448701700,3.80370166015625,-0.18599514836847517,-0.04920833185315132,-0.09685607133184111,-0.039324235171079636,0.13137806258757145,0.9862644241107473,0.25781442915729114,right,0.004845380783081055,-0.07546664293755789,-1.8083292326435445,-9.610081133717298,-0.025320544365800394,0.04708482697606087,-0.0016690045595169067,0.7393726980499923,0.005331754684448242
1746231635488701700,3.84370166015625,-0.18703265071704925,-0.05136055871844292,-0.09722788266062515,-0.020021703094244003,0.13048603609494178,0.9863698178406075,0.25614998601556754,right,0.0019361376762390137,-0.07354552756135323,-1.818559534756839,-9.609577860370278,-0.02438511499078199,0.04533632472157478,-0.004121124744415283,0.7205852146673947,-0.0017299801111221313
1746231635528701700,3.88370166015625,-0.18781945619290716,-0.06359953433275223,-0.09743177725011815,-0.00783479679375887,0.1294002849720869,0.9865226429338362,0.25416262248219523,right,0.0020711421966552734,-0.07093989230950797,-1.8264641704015432,-9.609956046032906,-0.023144429407363873,0.06413958966732025,-0.0039916932582855225,0.6950993296246976,-0.002410322427749634
1746231635568701700,3.92370166015625,-0.18777068518019469,-0.09859666228294373,-0.09721524896837094,0.03153420239686966,0.12793164563242773,0.9867622855807952,0.2514241527184043,right,0.0037841200828552246,-0.06829526323294562,-1.8263322145849465,-9.611817163729667,-0.021975085455849506,0.03319089487195015,0.0001585930585861206,0.6692272217433899,0.006340093910694122
1746231635608701700,3.96370166015625,-0.18663332972030644,-0.1048165112733841,-0.0965040136847127,0.04171585664153099,0.12597345398888551,0.9870979452358785,0.2476429041550723,right,-0.0012519359588623047,-0.06648842837729127,-1.8156204125650226,-9.615060675695538,-0.021338086996937955,0.01509644091129303,-0.002664506435394287,0.6515484302550554,0.007002010941505432
1746231635648701700,4.00370166015625,-0.18514445979418576,-0.09809558093547821,-0.09568025832098279,0.04122490435838699,0.12398885858368507,0.9874317414817464,0.24372527366685778,right,-0.000021576881408691406,-0.06569595951479563,-1.8013972414232788,-9.618258010432124,-0.021227867744391574,-0.006020735949277878,-0.004738792777061462,0.6437939436707645,0.0059114620089530945
1746231635688701700,4.04370166015625,-0.1840780508119307,-0.08210263401269913,-0.09509984239887162,0.0341583788394928,0.12208024114301076,0.9877225369968249,0.23990289878251006,right,0.0012929439544677734,-0.06547136446823687,-1.7911656241357325,-9.620314942961931,-0.021364794107909375,-0.016879457980394363,-0.005037203431129456,0.641596141365543,0.004722617566585541
1746231635728701700,4.08370166015625,-0.1831805342547975,-0.0475146546959877,-0.09464097891024119,0.023388972505927086,0.12067954801799737,0.9879318115030875,0.23706364779247177,right,0.0015075206756591797,-0.0657311210565712,-1.7825002332516013,-9.621754620376228,-0.021682335207763855,-0.01701337844133377,-0.0062590837478637695,0.6441380078680813,0.0034622102975845337
1746231635768701700,4.12370166015625,-0.18237888890290052,-0.00268632173538208,-0.09424299362047747,0.018974410369992256,0.1200574201128764,0.9880410324472971,0.23580391937692274,right,0.0015395283699035645,-0.06593644060015993,-1.7747623324759303,-9.623050505405663,-0.021891566497703973,0.0009675100445747375,-0.008138224482536316,0.6461471557334065,-0.0007799342274665833
1746231635808701700,4.16370166015625,-0.1819934551259828,0.02255542390048504,-0.09404719475374451,0.009724196046590805,0.120231600720611,0.9880401673182946,0.23617955849509453,right,0.002919614315032959,-0.06577014975894668,-1.7710725380472838,-9.623839025434851,-0.021814828371758237,0.018230529502034187,-0.006140753626823425,0.6445199198577553,-0.0013757720589637756
1746231635848701700,4.20370166015625,-0.18189762582149824,0.03254174441099167,-0.0939725901209772,0.014587508514523506,0.12077660278289036,0.9879894799357916,0.2373456753562703,right,0.002492070198059082,-0.06507452428233391,-1.7702309726566074,-9.624447512722014,-0.021421900759135026,0.025822926312685013,-0.00037744641304016113,0.6377127971261739,0.0010539442300796509
1746231635888701700,4.24370166015625,-0.1807189255475565,0.03941216692328453,-0.09336454222599792,0.044098421931266785,0.12149070203147552,0.9879673742546482,0.23888013489428545,right,0.0006150603294372559,-0.06434478142029902,-1.7589685510165989,-9.626982584157586,-0.021060686590322886,0.021124418824911118,0.0025328248739242554,0.630571400938928,0.006460443139076233
1746231635928701700,4.28370166015625,-0.1787425463997028,0.027933958917856216,-0.09238294839755372,0.05410438030958176,0.1222173774536673,0.9879728659043017,0.24042513341081895,right,0.0005588531494140625,-0.06397435221915157,-1.7399800651691852,-9.630669163715838,-0.02092624254418993,0.021286888048052788,0.001408413052558899,0.6269461961790919,0.0029113516211509705
1746231635968701700,4.32370166015625,-0.17708490075948505,0.022508183494210243,-0.09153408338426534,0.029541222378611565,0.1228313716589282,0.9879826902101144,0.24176705612033414,right,-0.00046455860137939453,-0.06322275755029302,-1.7240959750778972,-9.634001523008942,-0.020594558088800022,0.027770377695560455,0.00552801787853241,0.6195904996540397,0.007895894348621368
1746231636008701700,4.36370166015625,-0.1758734356037395,0.014350837096571922,-0.09089129821741193,0.025773636996746063,0.12323973861104562,0.9879998512728978,0.24269622006712352,right,-0.0007852315902709961,-0.06230742387342152,-1.7125218571402132,-9.636637716731428,-0.020174232233751033,0.021954888477921486,0.00927114486694336,0.6106318249117583,0.010884135961532593
1746231636048701700,4.40370166015625,-0.17498566509612692,0.019117441028356552,-0.09044325948406287,0.01579865999519825,0.1235595144060935,0.9880033064112583,0.24338501885531247,right,-0.0013427138328552246,-0.062029248352517885,-1.7039955824658273,-9.638321139773726,-0.02006027091486329,0.002488495782017708,0.011227265000343323,0.6079091219495981,0.009792428463697433
1746231636088701700,4.44370166015625,-0.17449937079448627,0.01608714461326599,-0.0902355249208712,-0.0044196732342243195,0.12389117816575022,0.9879762958840637,0.24402951672965525,right,-0.0003961920738220215,-0.06246852995240044,-1.6992618319422006,-9.638884618875384,-0.020278390476580324,-0.0036405869759619236,0.008549496531486511,0.612208645774424,0.005928605794906616
1746231636128701700,4.48370166015625,-0.17522255982217683,0.021850917488336563,-0.0905990513255211,-0.03857046738266945,0.12432211781997014,0.987890986155766,0.24489052124162883,right,0.0007355809211730957,-0.062427829407761634,-1.7062364932604133,-9.63767758117318,-0.02017447101548305,0.023255031555891037,0.0045708417892456055,0.6118102941066026,-0.002093866467475891
1746231636168701700,4.52370166015625,-0.1775917251557675,0.04219485819339752,-0.09170194343821239,-0.09169761836528778,0.12501505249919534,0.9877196156093376,0.2463622433040245,right,-0.0025218725204467773,-0.06105684806898314,-1.7292114183954894,-9.634424716857074,-0.019282128227506905,0.05631563812494278,0.0003612935543060303,0.598391169356741,-0.004447251558303833
1746231636208701700,4.56370166015625,-0.1817355048272451,0.05250188708305359,-0.09362493337017434,-0.11629638820886612,0.12614935230572014,0.9874243025359489,0.24879095894467781,right,-0.0004050135612487793,-0.058635051455425954,-1.769376109392941,-9.628573652741313,-0.017712754876944823,0.07317110151052475,0.001495063304901123,0.5746839844243601,0.0026390142738819122
1746231636248701700,4.60370166015625,-0.185850102549061,0.04833763837814331,-0.09553972865503854,-0.09440457075834274,0.12733584128540382,0.9871143455397424,0.25132473992412235,right,0.0015239119529724121,-0.05636685581343816,-1.8092149294368922,-9.622468321603536,-0.01621177369708671,0.05549224838614464,0.0005447417497634888,0.5524773767806589,0.0037588849663734436
1746231636288701700,4.64370166015625,-0.18867293618925102,0.034713707864284515,-0.09688534861193637,-0.05399017035961151,0.12829949580317718,0.9868710497091709,0.2533254715202831,right,0.0007498860359191895,-0.05533526506391496,-1.8364762997195123,-9.617877486681937,-0.015425696846777685,0.012066148221492767,-0.0021108239889144897,0.5423766923964023,0.004321523010730743
1746231636328701700,4.68370166015625,-0.18969317252434814,0.03026975318789482,-0.09741107329586064,-0.0030535422265529633,0.12895887159798644,0.9867338323386793,0.25462771337272017,right,0.0031986236572265625,-0.05553465456684127,-1.84626747976318,-9.615892450344562,-0.015395270775014696,-0.00611208938062191,-0.0015509724617004395,0.5443290320405736,-0.000604771077632904
1746231636368701700,4.72370166015625,-0.18863078992627882,0.029834361746907234,-0.09693297860203666,0.05030139908194542,0.12956548976827376,0.986696636203284,0.2558198764976922,right,0.004546940326690674,-0.05612755739010822,-1.8359898313768206,-9.617529696157574,-0.01569872309340888,-0.008048214949667454,0.0011357516050338745,0.5501343573184684,-0.0015301667153835297
1746231636408701700,4.76370166015625,-0.18540640430181593,0.03184052184224129,-0.09536517605411254,0.0985245406627655,0.13016987354459744,0.9867658378686667,0.25707773484167223,right,0.006540358066558838,-0.05633690198426757,-1.8049483580335974,-9.623286067727207,-0.015950977886463123,0.008688817732036114,0.002103373408317566,0.5521840929225087,-0.00513438880443573
1746231636448701700,4.80370166015625,-0.1811626223621136,0.02916557714343071,-0.09323011399080064,0.1116522029042244,0.130712993450803,0.9869010408956099,0.2583184438488545,right,0.012697756290435791,-0.05552418936750697,-1.764173426183313,-9.631297524747252,-0.015767989055062784,0.05563090369105339,0.004326149821281433,0.544226558046788,-0.013281501829624176
1746231636488701700,4.84370166015625,-0.17712849784730733,0.020776810124516487,-0.09103846946779955,0.0989004522562027,0.1313668096341362,0.9870413338845698,0.25999666294435647,right,0.008487880229949951,-0.05214277686400632,-1.7256196775138377,-9.640092241099476,-0.01428526055616673,0.1264871060848236,0.003977537155151367,0.5111142697788774,-0.010029714554548264
1746231636528701700,4.88370166015625,-0.17358622243766694,0.004147117957472801,-0.08896714038425531,0.0783972442150116,0.13190271244217824,0.9871908545407857,0.26157269743567874,right,-0.013804793357849121,-0.046907595215590146,-1.691900071002543,-9.648647887998818,-0.011862134235577807,0.13480959832668304,0.0020680278539657593,0.4598376715280115,-0.00009937584400177002
1746231636568701700,4.92370166015625,-0.17099496639802278,-0.014681382104754448,-0.08740114514748568,0.04984001815319061,0.1320045942996184,0.9873399889520896,0.26218536299590145,right,-0.021421492099761963,-0.04237860563241704,-1.6672295939959585,-9.654953125622868,-0.00976928749208568,0.08256779611110687,0.0024871528148651123,0.4154677473930642,0.010358631610870361
1746231636608701700,4.96370166015625,-0.16928989294558056,-0.032088883221149445,-0.08639730731274606,0.03482950106263161,0.13157230765838893,0.987496169341094,0.26153037827449077,right,-0.013876676559448242,-0.03990041799569444,-1.6509331237114966,-9.658767130953073,-0.008686031386544474,0.03554685786366463,0.002252534031867981,0.3911856121169403,0.0065198130905628204
1746231636648701700,5.00370166015625,-0.16807851103326008,-0.04159841313958168,-0.08572351755857975,0.02023860439658165,0.13082391565321297,0.9876577168731584,0.2601144088374126,right,-0.01043158769607544,-0.03881193073969671,-1.639301722628623,-9.661173607572913,-0.008288709018709211,0.0078103914856910706,0.0008996725082397461,0.38051943933703003,0.003318626433610916
1746231636688701700,5.04370166015625,-0.16761383145408737,-0.04284368455410004,-0.08547216481690775,0.005669984966516495,0.12995278169886273,0.9877946044626921,0.2583732001038956,right,-0.0067746639251708984,-0.03858154097064477,-1.6348267691716551,-9.662020579791069,-0.008279696403101219,-0.013359148055315018,0.0014230608940124512,0.3782617966033518,0.004359431564807892
1746231636728701700,5.08370166015625,-0.16750682436067532,-0.038165584206581116,-0.08546387711458489,0.0005644811317324638,0.12911334082457407,0.9879011377772904,0.25660737952148616,right,0.0002028346061706543,-0.03940641739924204,-1.6337402891092,-9.66188438619077,-0.008769686220506959,-0.04280981048941612,0.0023405849933624268,0.38634493062011893,0.005434993654489517
1746231636768701700,5.12370166015625,-0.1676981658707648,-0.03241254389286041,-0.08566489102670286,-0.010631062090396881,0.12831958244913774,0.9879780807438627,0.2548497943860704,right,0.0023494958877563477,-0.041235053413648415,-1.6354682819455861,-9.660859134796262,-0.009736249800133254,-0.05363032966852188,0.00017946958541870117,0.40426312035489825,0.0031354613602161407
1746231636808701700,5.16370166015625,-0.16832434106841418,-0.019694939255714417,-0.08607363352431217,-0.021887212991714478,0.12775012407754405,0.9880075655554247,0.25355178488831537,right,0.0003822445869445801,-0.04293764628360523,-1.6413997178211808,-9.659140640440583,-0.010593349636305165,-0.03738108277320862,-0.002678319811820984,0.42094508282560855,0.0011504553258419037
1746231636848701700,5.20370166015625,-0.1693718988283339,-0.009854638949036598,-0.08664409893351004,-0.02469431795179844,0.12746816872810937,0.987989579592001,0.25289491276793014,right,0.002846360206604004,-0.04384935128109872,-1.6514518868885932,-9.657033439028263,-0.011005465964810631,-0.013761484995484352,-0.001990213990211487,0.42987745408285405,0.002855747938156128
1746231636888701700,5.24370166015625,-0.17025559726404987,-0.005452790763229132,-0.08708769555811884,-0.014586041681468487,0.1272840003754735,0.9879739279452274,0.25249993961559614,right,0.003209412097930908,-0.04399866846289903,-1.6599743621706962,-9.65550725237429,-0.01104013609428829,0.0031809695065021515,-0.0016422271728515625,0.4313403297096491,0.004897642880678177
1746231636928701700,5.28370166015625,-0.17071161275182084,-0.007432878483086824,-0.08728129552573054,-0.008294139057397842,0.12713588898506883,0.9879787600286888,0.25223554329056197,right,0.0007524490356445312,-0.04350924357034384,-1.6644129291400311,-9.654956048232316,-0.010780771801319622,0.014428870752453804,-0.002190500497817993,0.4265453139854595,0.00633712112903595
1746231636968701700,5.32370166015625,-0.17095158743635402,-0.008771376684308052,-0.08737071972142052,-0.005835183430463076,0.12701106108735633,0.9879894855864603,0.25201783763654034,right,-0.001635730266571045,-0.04305625132031621,-1.6667624148756264,-9.65474562035203,-0.010551151595682578,0.005205844528973103,-0.0021243393421173096,0.42210711234230547,0.009257879108190536
1746231637008701700,5.36370166015625,-0.17103365202133008,-0.012652505189180374,-0.0874190794822197,-0.0020397650077939034,0.12675814059834423,0.9880165651586402,0.2514906738015363,right,-0.002555251121520996,-0.04322849350455324,-1.6675423132069407,-9.65453694603741,-0.010654108461083577,-0.01158361230045557,-0.003234848380088806,0.4237946635704487,0.005812514573335648
1746231637048701700,5.40370166015625,-0.17104984745162383,-0.013464091345667839,-0.08744360715755807,0.0025118114426732063,0.12652186011263072,0.9880427477637873,0.25098623687378413,right,0.0013090968132019043,-0.04354133773997926,-1.6676760225892067,-9.654379125127196,-0.01082975684356442,-0.005542348604649305,-0.0018537044525146484,0.42685975022949274,0.0032986141741275787
1746231637088701700,5.44370166015625,-0.17105855788088686,-0.003379296511411667,-0.08744593483878416,0.0005031011532992125,0.1263927553646959,0.9880589880958752,0.25072557030673737,right,0.0007779598236083984,-0.043532144301918166,-1.6677607782632111,-9.654368019211292,-0.01083605903882421,0.004941955674439669,-0.0024147480726242065,0.4267696607932448,0.0006410442292690277
1746231637128701700,5.48370166015625,-0.17103936189097368,0.00041600619442760944,-0.08741753181827953,0.0005177860730327666,0.12634659616238286,0.9880690091352403,0.25065745609270695,right,0.0008761286735534668,-0.043229746405768286,-1.6675974043950437,-9.654527009165287,-0.010690785554520863,0.013827286660671234,-0.00435011088848114,0.4238069385301321,-0.0009167008101940155
1746231637168701700,5.52370166015625,-0.17127186057557012,0.004926156252622604,-0.08748923082331041,-0.0027290608268231153,0.1264080039082513,0.9880588544718245,0.2508390270627488,right,0.005434513092041016,-0.042510944125407436,-1.669893552508205,-9.654436408272385,-0.01031287912107468,0.026602450758218765,-0.0027772188186645508,0.4167643996074796,-0.002109777182340622
1746231637208701700,5.56370166015625,-0.17132672937548316,0.0023199673742055893,-0.08745018882253688,0.003268579253926873,0.12657629305596493,0.9880465658843645,0.2512716269764764,right,0.0063076019287109375,-0.041399469409050135,-1.6705011630125344,-9.654795304712653,-0.009741141643210369,0.028201505541801453,-0.0011972934007644653,0.4058741357481107,0.0019016191363334656
1746231637248701700,5.60370166015625,-0.17071232069887757,-0.009125398471951485,-0.0870934855979283,0.015886029228568077,0.12650833222485947,0.9880905021676626,0.25121145521305,right,-0.0026915669441223145,-0.04054021001207272,-1.6646274486735462,-9.65616016332507,-0.009357949987994526,0.007820148020982742,-0.0026320815086364746,0.3974547555143013,0.002727959305047989
1746231637288701700,5.64370166015625,-0.17000688687981047,-0.0075333635322749615,-0.08673713328968367,0.02018800377845764,0.12625243667861286,0.9881543205332936,0.2507075590017864,right,-0.0018190741539001465,-0.040451273868743524,-1.6578212757900357,-9.657366616505383,-0.009380465052538532,-0.009099392220377922,0.0008381456136703491,0.39658330644201484,0.002994302660226822
1746231637328701700,5.68370166015625,-0.16900230312269326,-0.008903061039745808,-0.08628033113582584,0.03283270448446274,0.12598415584876727,0.9882243435417439,0.25011739501781455,right,0.0012652873992919922,-0.04114221568373439,-1.648072327452898,-9.65875485599339,-0.009810879808332345,-0.023338569328188896,0.0013763904571533203,0.40335349469669163,0.002838578075170517
1746231637368701700,5.72370166015625,-0.16773192917286,-0.013103993609547615,-0.08571781774271275,0.03208267316222191,0.12565534717396534,0.9883083125919436,0.24937276736222244,right,-0.00037795305252075195,-0.04227022463443357,-1.635723718011379,-9.660386256587504,-0.010480450951011484,-0.03136909008026123,-0.0001643449068069458,0.4144058537825942,0.002659473568201065
1746231637408701700,5.76370166015625,-0.16655084079281482,-0.007194608449935913,-0.08520869420273412,0.028468767181038857,0.12535406319118106,0.9883824772511747,0.2486718654864633,right,-0.0006638765335083008,-0.04355501095850563,-1.6242232498317957,-9.661778003206848,-0.011219709866610477,-0.03067639283835888,0.0003083348274230957,0.4269937153400853,0.001575235277414322
1746231637448701700,5.80370166015625,-0.16551896473889485,-0.0010431609116494656,-0.08476786316505817,0.026386534795165062,0.12516679842369352,0.9884362712723158,0.24821000032173196,right,0.002211451530456543,-0.044735526376932136,-1.6141684504158793,-9.662945293420552,-0.011887646770258954,-0.02167966589331627,0.0010797828435897827,0.4385593211777508,0.000908970832824707
1746231637488701700,5.84370166015625,-0.1646711709889573,0.0031424756161868572,-0.08439786707611008,0.013855861499905586,0.12512115417512293,0.9884680210783284,0.24806235470364793,right,0.00021129846572875977,-0.04555729614310052,-1.6059160242468118,-9.663951255592703,-0.01235326859413056,-0.015369746834039688,0.0013458430767059326,0.4466099411644041,0.0011104792356491089
1746231637528701700,5.88370166015625,-0.1640310847852905,0.011932436376810074,-0.08410347138623832,0.012994627468287945,0.1252644286713608,0.9884725650803307,0.24833377388522995,right,-0.0007699131965637207,-0.04589106066324537,-1.5997056252993642,-9.664829791992902,-0.012546938058282124,0.0012587402015924454,0.00010292232036590576,0.44987961048483843,0.0011925473809242249
1746231637568701700,5.92370166015625,-0.16368966643775143,0.013059118762612343,-0.08393473871817632,0.0011671241372823715,0.1255020207300872,0.9884570809372062,0.2488228184113659,right,0.00023251771926879883,-0.04584080340448621,-1.5964093602329492,-9.665397947269678,-0.012522947183365723,0.008376331999897957,-0.0006021708250045776,0.4493872603906318,0.0006883703172206879
1746231637608701700,5.96370166015625,-0.16360194200656622,0.01047919038683176,-0.08388201128931608,-0.0009503820911049843,0.1257895921702707,0.9884265642736862,0.24942281084503548,right,0.00012737512588500977,-0.04562573611713059,-1.595577147192508,-9.665632925069332,-0.01239694518594733,0.007167079020291567,0.0014353692531585693,0.4472803877718746,0.0030807629227638245
1746231637648701700,6.00370166015625,-0.1635779350293433,0.005583878140896559,-0.08386745164357379,-0.0010211271001026034,0.12598074317492725,0.9884041722280329,0.24981654054664051,right,-0.0009914636611938477,-0.0455417801979269,-1.595351229482144,-9.665708328393102,-0.01234043322563114,-0.001984445843845606,0.0010062307119369507,0.4464579289404675,0.0031317584216594696
1746231637688701700,6.04370166015625,-0.1636085844532498,-0.0013460451737046242,-0.08390241829676912,0.0003271019086241722,0.12602573362886282,0.9883935565957045,0.24988207206609486,right,0.00027865171432495117,-0.04585924774871297,-1.5956243473351002,-9.665518943300842,-0.012492719843194841,-0.006763162091374397,0.001647651195526123,0.4495679507197812,0.0016070976853370667
1746231637728701700,6.08370166015625,-0.16364288922067585,-0.005661864299327135,-0.0839422772991173,-0.0008743242360651493,0.1259957052996612,0.988391587950298,0.24979048743497592,right,0.0005295276641845703,-0.046243367879253906,-1.5959277141958474,-9.665293317851424,-0.012684322472510477,-0.00828748568892479,0.0005539655685424805,0.4533309199824929,0.0010370798408985138
1746231637768701700,6.12370166015625,-0.16374756580085167,-0.008724728599190712,-0.08400942551715258,-0.0026733046397566795,0.12581422648572074,0.9884069300866821,0.24939869052225846,right,0.0002976655960083008,-0.046536650770640633,-1.5969176020160316,-9.664994627165793,-0.012839192515807223,-0.004777957685291767,-0.0003569275140762329,0.4562039181355387,0.00020442530512809753
1746231637808701700,6.16370166015625,-0.16394594068274124,-0.0065047722309827805,-0.08411571810793853,-0.0015635155141353607,0.12563884757558388,0.9884190892854909,0.24902741270363737,right,0.00021076202392578125,-0.04671134335082432,-1.598821828202158,-9.664598905846477,-0.01292870339248112,-0.003469383344054222,-0.0009732693433761597,0.45791521556545045,0.0007004030048847198
1746231637848701700,6.20370166015625,-0.16411092436720284,-0.003395029343664646,-0.084211937866559,-0.0021916606929153204,0.12549342975897176,0.9884275654502109,0.2487091883902267,right,0.0003693699836730957,-0.0469865317440244,-1.6003956533901393,-9.664210198789835,-0.013067803739201847,-0.006109911948442459,-0.0020691901445388794,0.4606109209228307,-0.0003002174198627472
1746231637888701700,6.24370166015625,-0.16432126914902365,-0.00045515946112573147,-0.08432731318165022,-0.003224985208362341,0.12543545147878113,0.9884237492723149,0.2485729984914626,right,0.00020003318786621094,-0.04718884175069191,-1.602413276822865,-9.663781159722804,-0.013160378466008016,-0.0013903984799981117,-0.003547072410583496,0.4625927058571949,-0.001484788954257965
1746231637928701700,6.28370166015625,-0.16456458988205871,0.000540559645742178,-0.08443991234606135,-0.005738151725381613,0.1254599499099462,0.9884121377908678,0.2486298314591968,right,0.0025668740272521973,-0.047056875526016034,-1.6047745991267264,-9.663450904855132,-0.013077468085033652,0.007538686506450176,-0.0031571239233016968,0.46129999916553494,-0.0016215965151786804
1746231637968701700,6.32370166015625,-0.1645620607592206,0.0029621466528624296,-0.08441489056581783,0.010666556656360626,0.12551935960416963,0.9884094597214459,0.24878246089460163,right,0.0014986991882324219,-0.04664984175174936,-1.604780736606568,-9.663639705425501,-0.012869928234190335,0.014511112123727798,-0.001573130488395691,0.4573127561602741,-0.0011923909187316895
1746231638008701700,6.36370166015625,-0.16396273812709855,0.015200045891106129,-0.08408666814499849,0.01753554306924343,0.12570558284994957,0.9884171286937518,0.24921233221598468,right,0.0007668137550354004,-0.04607902935235087,-1.599031087038666,-9.664855510956048,-0.012607226583954637,0.016328947618603706,-0.0017308741807937622,0.4517210005678236,-0.000833757221698761
1746231638048701700,6.40370166015625,-0.16326090870384374,0.015806198120117188,-0.0837176529552638,0.016421761363744736,0.12604952244749484,0.9884072639927518,0.24995186854211862,right,-0.0007356405258178711,-0.045640458937102515,-1.5922797130823134,-9.666170100685953,-0.012403528328870057,0.011157575063407421,0.00006352365016937256,0.4474246185481548,0.0008207224309444427
1746231638088701700,6.44370166015625,-0.16244213180857792,0.012876639142632484,-0.08330281747711268,0.017063703387975693,0.12639963661150982,0.9883988018201589,0.2506895032883281,right,0.0000426173210144043,-0.04539968731651895,-1.5843820917002855,-9.667576460352539,-0.01230535760202552,0.006994736846536398,0.000248149037361145,0.44506589006017894,0.0017335116863250732
1746231638128701700,6.48370166015625,-0.16190821102118072,0.0025885002687573433,-0.08302278541182036,0.007118527777493,0.12663478146922386,0.9883940432521198,0.25119652464052716,right,-0.0006324648857116699,-0.04508606189714298,-1.5792426829852162,-9.668558457127213,-0.012162985114135801,0.012366784736514091,-0.0006201416254043579,0.4419934238122776,-0.0013601146638393402
1746231638168701700,6.52370166015625,-0.16268014661124244,-0.04925809055566788,-0.08325980449053083,-0.06285321712493896,0.1262781346632889,0.9884333549536283,0.250646450325938,right,-0.0018974542617797852,-0.04278720622674497,-1.5868660174705087,-9.668313542455435,-0.011000421169021475,0.129561185836792,-0.014816269278526306,0.4194711378155276,-0.034445278346538544
1746231638208701700,6.56370166015625,-0.16825931563784932,-0.07437551766633987,-0.08528407831943378,-0.21629665791988373,0.125403851884062,0.9884215830627112,0.24979067859366164,right,0.005714774131774902,-0.030906083699154777,-1.641500986238569,-9.663540921226144,-0.0048113376262605735,0.478426456451416,-0.02064049243927002,0.30303687987430017,-0.06117921322584152
1746231638248701700,6.60370166015625,-0.1791652609991751,-0.08288559317588806,-0.08913106052121658,-0.2688237130641937,0.12529032028034495,0.9880737220294719,0.2517182997410059,right,0.003714442253112793,-0.006018540846311897,-1.7475943395651876,-9.649498367348313,0.008256475890350256,0.6813896894454956,0.01920388638973236,0.059021321492968126,0.02197747305035591
1746231638288701700,6.64370166015625,-0.19052649719596212,-0.12002822756767273,-0.09304491407172467,-0.24070893228054047,0.12474436528258248,0.9875651194613763,0.2532865731792503,right,-0.00004458427429199219,0.02079772679826878,-1.8567413813740015,-9.627112932538985,0.022282016716536162,0.6242625117301941,0.035136252641677856,-0.2039413860783912,0.05297352746129036
1746231638328701700,6.68370166015625,-0.19823984472404105,-0.11837691813707352,-0.09557650485053953,-0.14520595967769623,0.12316260016244797,0.9872304023306682,0.25231844795341607,right,-0.00757288932800293,0.04111845054314292,-1.9297278532601891,-9.60645768252313,0.03274299818700767,0.3699013888835907,0.024349570274353027,-0.40312070885412393,0.047741807997226715
1746231638368701700,6.72370166015625,-0.20209134966954798,-0.013645954430103302,-0.09687600659756888,-0.04967503249645233,0.12218864295311656,0.9870472797919617,0.2514831736913864,right,-0.011097431182861328,0.05080447849590422,-1.9658368391260503,-9.594678397402166,0.03771699856962295,0.0922410786151886,0.016410768032073975,-0.49800753544643517,0.04135282337665558
1746231638408701700,6.76370166015625,-0.20132723633811378,0.059785664081573486,-0.09665393996551151,0.12323620915412903,0.12258237097719492,0.9870688971011103,0.2519830809071095,right,0.012541413307189941,0.04822361063158868,-1.9587553564324973,-9.597405192017554,0.03642150029500885,-0.18400079011917114,0.024149999022483826,-0.47272889994625,0.03444894775748253
1746231638448701700,6.80370166015625,-0.19290502135716156,0.07083044201135635,-0.0933762337912551,0.28239521384239197,0.12345025805832228,0.987520192650287,0.25205458797681995,right,-0.0016399621963500977,0.03435443212871189,-1.8789317320026455,-9.619071664902567,0.029063869072935143,-0.47398659586906433,-0.0012671053409576416,-0.3368357073679566,0.024972837418317795
1746231638488701700,6.84370166015625,-0.18148784030679338,0.05552316829562187,-0.08913525797992287,0.2571605145931244,0.1239546971631211,0.9881222306385676,0.250713095364318,right,-0.011160016059875488,0.01239025769099457,-1.7698975029185413,-9.644847326672076,0.017450982996198006,-0.55863356590271,-0.03203389048576355,-0.1215038710894063,-0.028706973418593407
1746231638528701700,6.88370166015625,-0.17351442383874624,0.03727784752845764,-0.08641452784790361,0.12941047549247742,0.12403533764787068,0.9884811115045884,0.2490414756669604,right,-0.0011737942695617676,-0.007072335263505925,-1.6930273214668035,-9.659152915400266,0.007266013384075229,-0.37913215160369873,-0.03324170410633087,0.06935529404329135,-0.059806812554597855
1746231638568701700,6.92370166015625,-0.17119221525394232,0.02530841901898384,-0.08587098948732687,-0.0037616193294525146,0.1243041735420863,0.9885188385748656,0.24873479179804706,right,-0.0028531551361083984,-0.016873218640741303,-1.6703960952028631,-9.66192413367927,0.0022639056444047566,-0.12850511074066162,-0.01672467589378357,0.16546187168890608,-0.04015853628516197
1746231638608701700,6.96370166015625,-0.1736190291398378,-0.027597568929195404,-0.0871749161719112,-0.10556666553020477,0.12419445187845739,0.9884198173428607,0.24837265960996946,right,-0.010773539543151855,-0.018570556016546735,-1.6937879305757582,-9.657551909944415,0.0015599612456264971,0.0007680058479309082,0.000001475214958190918,0.18210445199729874,-0.004261229187250137
1746231638648701700,7.00370166015625,-0.17895866546833153,-0.07660110294818878,-0.0897041266538221,-0.15054066479206085,0.1230964887271327,0.9883283556812084,0.24632219854628948,right,-0.00742107629776001,-0.016739982327725566,-1.7453877694316207,-9.648681790268421,0.0027042255207797624,0.05464557930827141,0.005154356360435486,0.16415544699914753,0.00402272492647171
1746231638688701700,7.04370166015625,-0.18578368063524203,-0.08377973735332489,-0.09288338411542252,-0.18375709652900696,0.12155319341458652,0.9882186489418818,0.24352114683271478,right,-0.004475593566894531,-0.01346025364151296,-1.8112886669710277,-9.637022332134842,0.00461471594601232,0.07418283075094223,0.004223957657814026,0.13199597507719882,0.009373740293085575
1746231638728701700,7.08370166015625,-0.1932014202923862,-0.07395190000534058,-0.09635419081121893,-0.1833060383796692,0.12009003813395595,0.9880539483308943,0.24091911029367458,right,0.0009093284606933594,-0.010096281378055027,-1.8827977597810326,-9.623702831834555,0.0066019912516497355,0.0668669268488884,0.004203826189041138,0.09900897542308085,0.010704072192311287
1746231638768701700,7.12370166015625,-0.19972259159034592,-0.058624785393476486,-0.09944390648540782,-0.1373801976442337,0.11882368233420332,0.9878901929658608,0.23863537101621138,right,0.006457924842834473,-0.00773487620068195,-1.9455559753805398,-9.61142261145413,0.00804633113492892,0.024148456752300262,0.005763590335845947,0.07585242837709374,0.013951658271253109
1746231638808701700,7.16370166015625,-0.20347095178023114,-0.034251049160957336,-0.1012955797403929,-0.05228301137685776,0.11782163793531686,0.9878205119632206,0.23665093500705922,right,0.010845601558685303,-0.007601742353207865,-1.9815714377440512,-9.60407224869132,0.008234265690883348,-0.034642960876226425,0.004102334380149841,0.07454687133701518,0.011831594631075859
1746231638848701700,7.20370166015625,-0.20370818230250468,-0.006844835355877876,-0.1015556424053029,0.02315819263458252,0.1172808997050231,0.9878675504458632,0.23531787752085467,right,0.008374929428100586,-0.009964149376605202,-1.9838085491463542,-9.603402386605739,0.0070136374657246555,-0.08265933394432068,0.0006419718265533447,0.09771327305673622,0.0021501053124666214
1746231638888701700,7.24370166015625,-0.20188984926156298,0.01807369291782379,-0.10085691855295284,0.054577313363552094,0.11723051282941405,0.987956339095023,0.23485976482206206,right,0.004515349864959717,-0.013376447054206118,-1.9662647091493008,-9.606611411780118,0.0051980882205847545,-0.07837318629026413,0.000019848346710205078,0.13117419209922662,-0.005380012094974518
1746231638928701700,7.28370166015625,-0.19916973741616903,0.028863172978162766,-0.0996851655048679,0.07585255801677704,0.11757349553606103,0.9880416853023667,0.2352445980832152,right,0.0027474164962768555,-0.01635816197034027,-1.940040426829457,-9.611498014777899,0.003584481501923543,-0.05808341130614281,0.002248629927635193,0.16041158429570496,-0.0027069980278611183
1746231638968701700,7.32370166015625,-0.19572144121485033,0.018956948071718216,-0.0981101254110484,0.09761486202478409,0.11791249753081778,0.9881627236838098,0.23570208617671773,right,0.005111217498779297,-0.018586243614055607,-1.9068115264445542,-9.617756490650773,0.0023030854114947153,-0.04433353245258331,0.002076774835586548,0.18225825431952253,-0.0006877295672893524
1746231639008701700,7.36370166015625,-0.1912120713708617,0.003372877836227417,-0.09594473631449744,0.13343748450279236,0.11810920066494031,0.9883534103417335,0.2359872813318242,right,0.013531744480133057,-0.019672517763101714,-1.8633834497369826,-9.626056701484321,0.0015139641917237725,-0.004729967564344406,0.002592325210571289,0.19290902860090137,0.00029869750142097473
1746231639048701700,7.40370166015625,-0.18526142492785427,-0.008252750150859356,-0.09295211891441735,0.15833060443401337,0.1180812219110711,0.9886425200218194,0.23600389636224908,right,0.0066945552825927734,-0.018786812648805346,-1.806100304547697,-9.63713865199089,0.0016012319647130114,0.042916618287563324,-0.0018512755632400513,0.18422482341844587,0.000029860064387321472
1746231639088701700,7.44370166015625,-0.17925019520864047,-0.012859083712100983,-0.08985155973552116,0.1428482085466385,0.11803222462172773,0.9889335091034201,0.2360922529570719,right,-0.00189286470413208,-0.016579102931916744,-1.74820516493991,-9.64819839066565,0.002342126889586249,0.059071362018585205,-0.0020601004362106323,0.1625779868156649,0.0035063251852989197
1746231639128701700,7.48370166015625,-0.17402428399988853,-0.017080454155802727,-0.08712912558918498,0.11644434183835983,0.11782178013594818,0.9891998083661813,0.23586012842912507,right,-0.007500052452087402,-0.014205351522981979,-1.697823031310737,-9.657555417075752,0.003197808739101095,0.04938013106584549,-0.004163846373558044,0.1393021881710272,0.004226130433380604
1746231639168701700,7.52370166015625,-0.17051900392781813,-0.013732584193348885,-0.08531576088313694,0.06597326695919037,0.11764965115222696,0.9893767283612289,0.23561728716954633,right,-0.0121077299118042,-0.012834364492672173,-1.66399105046615,-9.663626261422037,0.003659236495198419,0.01473364606499672,-0.005669191479682922,0.12585863223280758,0.003425370901823044
1746231639208701700,7.56370166015625,-0.16899004368943996,-0.010033996775746346,-0.08456483073780528,0.00870053842663765,0.11742477617432702,0.9894684325603824,0.23515048681524536,right,-0.01233440637588501,-0.012913811170776054,-1.6492121451377868,-9.666149642419814,0.003510248620745995,-0.018824435770511627,-0.004716828465461731,0.1266376720475964,-0.0007312586531043053
1746231639248701700,7.60370166015625,-0.1693381987287694,0.0002590669319033623,-0.08480235963444051,-0.023899100720882416,0.11726099115098146,0.9894693701492935,0.2347271933852846,right,-0.0076323747634887695,-0.01402563108752587,-1.6525525416068731,-9.66543009597361,0.00296262139079699,-0.03756854310631752,-0.0030379444360733032,0.13753990947254932,-0.0019751591607928276
1746231639288701700,7.64370166015625,-0.17090532672870687,0.015794575214385986,-0.0856972517851025,-0.054826509207487106,0.1173392543839142,0.9893853340931789,0.23471538884826082,right,-0.008990287780761719,-0.016087137619196175,-1.6676457735814154,-9.662528529313207,0.0020340201985503824,-0.06460501253604889,-0.003644213080406189,0.157754092056863,-0.00029242783784866333
1746231639328701700,7.68370166015625,-0.17327724997603247,0.0326920822262764,-0.08703591823724709,-0.06370066851377487,0.11769144352760318,0.9892283288317432,0.23518725957083816,right,-0.003883540630340576,-0.018943726516184124,-1.6904751527659594,-9.658062197554111,0.0007804933249587724,-0.06990952789783478,-0.0046056658029556274,0.18576335809733718,-0.0020312145352363586
1746231639368701700,7.72370166015625,-0.175552035920902,0.04124704375863075,-0.08832254944300673,-0.04837339371442795,0.11833685105842667,0.989037594155847,0.23625280538386947,right,0.0022364258766174316,-0.0217256072331998,-1.712344016355276,-9.65364555015564,-0.0004146826333632593,-0.05694933235645294,-0.004369631409645081,0.21303864730745553,-0.002529870718717575
1746231639408701700,7.76370166015625,-0.17694079032468607,0.03490663319826126,-0.08913554774843252,-0.01725914515554905,0.11896039936421084,0.9888890378868276,0.23732491272325537,right,0.007489800453186035,-0.0238826220270677,-1.7256639550469814,-9.650783730983733,-0.0013515930067946364,-0.03936313837766647,-0.0013163983821868896,0.23418622915120793,-0.0008823554962873459
1746231639448701700,7.80370166015625,-0.1770573655410187,0.018913090229034424,-0.08928561401233806,0.013617075979709625,0.11942197063579249,0.9888185761754591,0.23812142476110457,right,0.007093906402587891,-0.025450520862722825,-1.7267222319282591,-9.650209145966171,-0.0020845307696879304,-0.031958773732185364,-0.0006905496120452881,0.249557383017987,0.0021800529211759567
1746231639488701700,7.84370166015625,-0.17623328186966178,0.004382581450045109,-0.0889652773629477,0.023938441649079323,0.11961477932858595,0.9888222392392598,0.23838466450294651,right,0.0036051273345947266,-0.026931014372074107,-1.7187024454712867,-9.651254271104932,-0.0028542213189843156,-0.04074244573712349,-0.0009104013442993164,0.26407107980521394,0.004996573552489281
1746231639528701700,7.88370166015625,-0.17518042840255543,-0.004633808508515358,-0.08855244015775582,0.02689187228679657,0.11952490238828238,0.9888667958054991,0.23804667119250617,right,0.001780867576599121,-0.028779735445450132,-1.7084521234832704,-9.65256126205027,-0.003846483265618806,-0.05061165243387222,0.0001045912504196167,0.28219381566876545,0.002622617408633232
1746231639568701700,7.92370166015625,-0.174227850444518,-0.016641724854707718,-0.08820077216033054,0.01957669109106064,0.11925253818989591,0.988926047719342,0.2373223860611197,right,0.0002694129943847656,-0.030850138228469697,-1.6991515034355222,-9.65358826701045,-0.004959376425296147,-0.056907884776592255,0.001974955201148987,0.3024885070102289,0.004302188754081726
1746231639608701700,7.96370166015625,-0.17382492814610465,-0.02858075127005577,-0.08813377668086277,0.0009088460355997086,0.11865781687472272,0.9889965143205135,0.2359219318506277,right,-0.0016864538192749023,-0.033193657339696855,-1.6951345228791237,-9.653547350478172,-0.006204288318318706,-0.06778015941381454,0.0016399025917053223,0.32545879250280557,0.002036396414041519
1746231639648701700,8.00370166015625,-0.1746514043184807,-0.0069215018302202225,-0.08866288748443155,-0.030710818246006966,0.1182273589145991,0.9889935938719912,0.2348625848643132,right,-0.0028886795043945312,-0.03534102334428041,-1.702986989945173,-9.651432550281285,-0.007264409546600283,-0.048580605536699295,0.0018294602632522583,0.3465049049997702,-0.00006991252303123474
1746231639688701700,8.04370166015625,-0.17609327228099692,0.009291036054491997,-0.08948057203726359,-0.038907453417778015,0.11823392024906833,0.9889127366526032,0.23470764431205415,right,-0.0012722015380859375,-0.03717124803628371,-1.7167872594997287,-9.64832640095949,-0.008091417204461802,-0.04722259193658829,0.0012891888618469238,0.36444147064145654,0.00015162304043769836
1746231639728701700,8.08370166015625,-0.17756484308643264,0.016382068395614624,-0.09029732734240518,-0.036692630499601364,0.11848010978170323,0.9888034543467049,0.2350612919247534,right,0.0006867051124572754,-0.03869565584449161,-1.730883443260938,-9.64523194207549,-0.008742447819452336,-0.029981248080730438,0.0008430778980255127,0.37938006004355845,-0.0002641454339027405
1746231639768701700,8.12370166015625,-0.17875978137861082,0.012887017801404,-0.09093831466503594,-0.02589920163154602,0.11872350558357296,0.9887125456607954,0.23546966957809515,right,0.002292811870574951,-0.03953656832806596,-1.7423504475623368,-9.642839493981004,-0.00906898470837861,-0.011324804276227951,0.0005259662866592407,0.38762028431817885,0.000378195196390152
1746231639808701700,8.16370166015625,-0.17945231342606802,-0.010880749672651291,-0.09129409904245371,-0.010377837345004082,0.11870818548994498,0.9886808773930901,0.23541149959632263,right,0.0001404285430908203,-0.039774393730797074,-1.7490115128867327,-9.641539517298341,-0.009148145822220182,-0.0013529164716601372,-0.00016458332538604736,0.38995070002712307,0.0008870735764503479
1746231639848701700,8.20370166015625,-0.17990939744520495,-0.019656363874673843,-0.09150948369792031,-0.006637567188590765,0.1183132861131592,0.9887087533263216,0.23461907472001292,right,-0.00016063451766967773,-0.03965331132989272,-1.7534266989804803,-9.640785484060645,-0.009097393403286738,0.0025595352053642273,-0.0010769516229629517,0.3887642301889136,-0.0003997981548309326
1746231639888701700,8.24370166015625,-0.1802092023624722,-0.012361045926809311,-0.09164898066873718,-0.004052046220749617,0.11796550802258324,0.9887377307520128,0.23392135072403533,right,0.0011376738548278809,-0.03955655875751947,-1.7563237355962396,-9.640296239238976,-0.00906378205588758,-0.002909129485487938,-0.0006446093320846558,0.3878161722164601,0.0010503679513931274
1746231639928701700,8.28370166015625,-0.1801882420671325,-0.001592894084751606,-0.09164724088113389,0.003220848273485899,0.11776576953264827,0.9887607027003981,0.23350129491844024,right,-0.00254744291305542,-0.03974095996017473,-1.7561087776713071,-9.640262336969375,-0.009175467970689329,-0.009586656466126442,-0.002601996064186096,0.3896231120405719,0.002223491668701172
1746231639968701700,8.32370166015625,-0.1801718562997085,0.007841785438358784,-0.09169265309345259,-0.005823071580380201,0.1177768219513752,0.9887506768667571,0.2334408834423874,right,-0.005446374416351318,-0.040683251591103094,-1.7558843212656676,-9.639925652360915,-0.009645248166719812,-0.03561577573418617,-0.0031611472368240356,0.39885636594053353,0.00492718443274498
1746231640008701700,8.36370166015625,-0.18033421992826637,0.019415825605392456,-0.0918866405920299,-0.0056001171469688416,0.11801090874530192,0.9886950233664554,0.233739862331901,right,-0.0010513663291931152,-0.04264886313777293,-1.7573054401099681,-9.638850716605782,-0.010594107747355596,-0.05493426322937012,-0.0017641633749008179,0.4181156680859625,0.0040186382830142975
1746231640048701700,8.40370166015625,-0.18031921511975338,0.021262330934405327,-0.0920270566078516,-0.0022533705923706293,0.11837174234970221,0.988624872438498,0.23424703865821497,right,-0.0016285181045532227,-0.045186710218177016,-1.7569648099787532,-9.637802084335684,-0.011826795502729023,-0.0608440525829792,-0.0015539377927780151,0.44297947570756074,0.0035235099494457245
1746231640088701700,8.44370166015625,-0.18057156141354305,0.012329396791756153,-0.09229985846830574,-0.009482430294156075,0.1186332418361225,0.9885525363496751,0.23454850643189146,right,-0.00027430057525634766,-0.04774375111947929,-1.7591876005947589,-9.636212769317627,-0.013062508567016722,-0.055964794009923935,-0.000710800290107727,0.4680283941050991,0.001865290105342865
1746231640128701700,8.48370166015625,-0.18134761121108553,0.0014489488676190376,-0.09280997445909361,-0.027360932901501656,0.11866401141095535,0.9884864024052927,0.23440393802199444,right,-0.00020307302474975586,-0.049975848521473104,-1.766472496905923,-9.633792848694323,-0.01412697238735354,-0.05019769072532654,0.0002380460500717163,0.4898916682038456,0.0009546577930450439
1746231640168701700,8.52370166015625,-0.18275304211297938,-0.0013092332519590855,-0.09361446875310461,-0.0381290540099144,0.11857747383761641,0.9884075352693147,0.23403370937066179,right,0.0008370876312255859,-0.051950951897035025,-1.7798310140423477,-9.630330725541711,-0.015037548346511559,-0.04760204628109932,0.002009466290473938,0.5092356529580429,0.000609278678894043
1746231640208701700,8.56370166015625,-0.18402783140869933,-0.005655083805322647,-0.09434264445771917,-0.02270541340112686,0.11845198895839203,0.988340418811438,0.23360114447372274,right,0.0019765496253967285,-0.05373681504629504,-1.791936900769174,-9.627144496721028,-0.015865388220728048,-0.04277743771672249,0.0026381313800811768,0.5267245478974655,0.002972010523080826
1746231640248701700,8.60370166015625,-0.18441634866295323,0.001123746857047081,-0.09461414315001516,0.004500908777117729,0.11835505979741241,0.9883144460206215,0.23326933249162438,right,0.0020177364349365234,-0.055186173202946165,-1.7955352175220847,-9.625686699128151,-0.01657470491895403,-0.029246985912322998,0.0011586695909500122,0.540916812444292,0.0016831234097480774
1746231640288701700,8.64370166015625,-0.18391888143613347,0.007267111912369728,-0.09442491301244132,0.021987583488225937,0.11840952718067137,0.9883171448049746,0.23329939746131215,right,0.0024324655532836914,-0.056180762630195474,-1.790647299350053,-9.626045011046529,-0.017094510187674255,-0.015376411378383636,0.00022058188915252686,0.5506553124526515,0.002306796610355377
1746231640328701700,8.68370166015625,-0.1827809757851218,0.013822903856635094,-0.09388573778056329,0.0357484444975853,0.11863249783031603,0.9883380250535376,0.23374016275755818,right,0.0024251341819763184,-0.056521963774477144,-1.779658287823945,-9.627890931174159,-0.01730990466939328,0.004696717485785484,0.0008901804685592651,0.5539960377153009,0.002922050654888153
1746231640368701700,8.72370166015625,-0.1811635636358546,0.005929784849286079,-0.09307498974336163,0.0439886748790741,0.1188619810731721,0.9883882996756804,0.23425744458657216,right,0.0008212924003601074,-0.05624181062568676,-1.7641116129934786,-9.6309094022125,-0.017243228119655105,0.012888364493846893,0.005316406488418579,0.5512530226174742,0.006253845989704132
1746231640408701700,8.76370166015625,-0.17925737784837617,-0.009309294633567333,-0.09210175602503663,0.039326611906290054,0.11880820850699327,0.9884886070589147,0.23422904794110963,right,-0.0022560954093933105,-0.05569863598955398,-1.7458032183647154,-9.63454746645391,-0.017089196382683962,0.012170443311333656,0.004755735397338867,0.5459346406063065,0.006426796317100525
1746231640448701700,8.80370166015625,-0.17787995548332503,-0.016235388815402985,-0.09138413467766249,0.015450522303581238,0.1185642490267472,0.9885877220662042,0.2338095692147283,right,-0.00650787353515625,-0.05511435093039513,-1.732586886177957,-9.637255556368828,-0.016901216421006695,0.011851778253912926,-0.0011499673128128052,0.5402135595457628,0.002083823084831238
1746231640488701700,8.84370166015625,-0.17820226979573572,-0.020305059850215912,-0.09150044503862809,-0.03430665284395218,0.11824040400833706,0.9886211846901735,0.23320649477879343,right,-0.007938146591186523,-0.05444576188304893,-1.7357567483857272,-9.637049804663658,-0.016579033455958705,0.016334831714630127,-0.0054970234632492065,0.5336667682508006,-0.0012072734534740448
1746231640528701700,8.88370166015625,-0.18001316553260305,-0.007702932693064213,-0.09233875880007363,-0.05014726147055626,0.11797977809787374,0.9885834881881022,0.23273033499006648,right,-0.0026908516883850098,-0.053511667348758146,-1.7532940125115215,-9.63437737058401,-0.01603198941077503,0.028589986264705658,-0.002961680293083191,0.5245197678621858,-0.003668569028377533
1746231640568701700,8.92370166015625,-0.1819821737785916,0.005972124636173248,-0.09325296815779699,-0.04457779601216316,0.118024805176236,0.9885026058606129,0.23288338345319837,right,0.00043964385986328125,-0.052448191662101074,-1.7723606781616805,-9.63144950043857,-0.01538277295954209,0.022666560485959053,-0.001515030860900879,0.5141052682884037,0.00003933161497116089
1746231640608701700,8.96370166015625,-0.1834747600941564,0.014235151931643486,-0.09395738822101993,-0.03182145953178406,0.11828005983485973,0.988412179682907,0.23343545135076102,right,0.0011547207832336426,-0.05178803347033742,-1.7867960307493804,-9.629124856883287,-0.014942306927058405,0.01110180001705885,-0.002079203724861145,0.5076401273949072,0.0012147650122642517
1746231640648701700,9.00370166015625,-0.18437097141741987,0.015750929713249207,-0.09440168878127528,-0.014418521896004677,0.11861062914406528,0.9883318482114472,0.2340963735278355,right,0.0013669133186340332,-0.05172606193705606,-1.7954308803647756,-9.62755073943436,-0.014827464797574536,-0.0005380110815167427,-0.0017911791801452637,0.507033211010322,0.0018877647817134857
1746231640688701700,9.04370166015625,-0.1846231847473275,0.01459235604852438,-0.09455464115063017,0.0030889809131622314,0.11892489359449952,0.9882769934818608,0.23469104337009433,right,0.0021514892578125,-0.05214509273286705,-1.7978198213279246,-9.626887891611457,-0.0149915780118331,-0.01275877095758915,-0.0010225027799606323,0.5111369565347209,0.0023874491453170776
1746231640728701700,9.08370166015625,-0.1842623466135464,0.011157482862472534,-0.09442849980633317,0.019044749438762665,0.11916291233198367,0.9882538351962313,0.23510152395626438,right,0.0032671689987182617,-0.0530036890506408,-1.7942649053253232,-9.627100657579302,-0.015418166541919251,-0.022489838302135468,-0.0003247857093811035,0.5195452673852443,0.00188533216714859
1746231640768701700,9.12370166015625,-0.18345130614794802,0.006205374840646982,-0.09408972467362205,0.02335873246192932,0.11930035997728373,0.9882606310564046,0.2352984374586363,right,0.000608980655670166,-0.05406071479097745,-1.7863551551140844,-9.628007835552095,-0.015979848319818392,-0.024000277742743492,-0.0002583414316177368,0.5298963098013774,0.0007636882364749908
1746231640808701700,9.16370166015625,-0.18253959309628506,0.00710316514596343,-0.0936890906245421,0.017370495945215225,0.1193875224994968,0.9882804313994307,0.23541402468514838,right,-0.0006455779075622559,-0.054916293206561925,-1.777493511005491,-9.629182724550367,-0.016451847447749864,-0.015537846833467484,-0.0017384588718414307,0.538274225513637,-0.0006339885294437408
1746231640848701700,9.20370166015625,-0.18204564365863013,0.01120033860206604,-0.09347546967155639,0.005604924634099007,0.11954785996725303,0.9882769373981289,0.23570357475316522,right,-0.0010557174682617188,-0.055406462066813704,-1.7726888872027395,-9.629798810622095,-0.016710160864617508,-0.007029729895293713,-0.0011125504970550537,0.5430738078150897,0.00044101476669311523
1746231640888701700,9.24370166015625,-0.18179888602090657,0.014158676378428936,-0.09337357921576238,0.005863194819539785,0.11978581350656532,0.9882554846834529,0.23616450669069453,right,-0.000058531761169433594,-0.05568856452108938,-1.770284894800931,-9.630085226348042,-0.016842873879239686,-0.0025681699626147747,-0.0010411590337753296,0.54583603907004,0.002082906663417816
1746231640928701700,9.28370166015625,-0.18154786510033877,0.007691813167184591,-0.0932590252152583,0.0062710498459637165,0.12002751003157368,0.988236270560809,0.23664968843026782,right,0.0007567405700683594,-0.05578233418868071,-1.7678582521758972,-9.630478609579802,-0.016881647211251124,0.002693615388125181,-0.0008258819580078125,0.5467541768282651,0.002429001033306122
1746231640968701700,9.32370166015625,-0.18130775296015156,0.0020527043379843235,-0.0931323610042051,0.005130019038915634,0.12018274193703261,0.9882309816319317,0.2369844544158583,right,0.0003254413604736328,-0.05559403837381051,-1.7655642960198223,-9.631004094758628,-0.01678737107501413,0.00846890453249216,-0.0006037503480911255,0.5449104851903394,0.0017897412180900574
1746231641008701700,9.36370166015625,-0.18116747053475554,-0.0012080322485417128,-0.09304417604407579,0.003169953590258956,0.12022820529174193,0.9882366565126564,0.23710911095940748,right,-0.0012025833129882812,-0.05524854544314909,-1.7642470759414135,-9.631436056435108,-0.016619184345043187,0.006528012454509735,-0.000018134713172912598,0.5415275647537783,0.0029278025031089783
1746231641048701700,9.40370166015625,-0.1810229675011667,-0.005957747809588909,-0.09295979099835543,0.0033321622759103775,0.12014108560865398,0.988256601545103,0.23695298133561318,right,-0.0016813874244689941,-0.05504566643361476,-1.7628750569358467,-9.631799044528602,-0.01653482095752628,0.0012229648418724537,-0.0005606114864349365,0.5395410305790603,0.0023208074271678925
1746231641088701700,9.44370166015625,-0.18109775543827256,-0.00896238163113594,-0.09298914607081694,-0.004497448913753033,0.11997598312103178,0.9882744569282725,0.23662504758152633,right,0.00040543079376220703,-0.0549607483927712,-1.763603663471341,-9.63171195076704,-0.016503590709568295,0.002605636138468981,-0.0017076581716537476,0.538709511658363,-0.0011503100395202637
1746231641128701700,9.48370166015625,-0.18166279439633584,-0.009495801292359829,-0.0932522091206128,-0.020498182624578476,0.11981310392969734,0.9882716422422143,0.2363066626840361,right,-0.0003362894058227539,-0.05472535689606015,-1.7690685047484933,-9.630838675063847,-0.016368157557790954,0.007546801120042801,-0.002167418599128723,0.5364045957168564,-0.0018010810017585754
1746231641168701700,9.52370166015625,-0.1825531059444602,-0.017156055197119713,-0.09365744593172665,-0.019309408962726593,0.11956663502122855,0.9882680316573659,0.23584072769872416,right,0.0011057853698730469,-0.054186530196327555,-1.7776944404050707,-9.629542790034412,-0.016070238467946564,0.014012366533279419,-0.001152336597442627,0.5311283358143642,-0.0012653619050979614
1746231641208701700,9.56370166015625,-0.1832592890049213,-0.010635875165462494,-0.09396086315912329,-0.013428046368062496,0.11926097112603042,0.9882821883059536,0.23527425489999154,right,-0.0005033016204833984,-0.0534700965408479,-1.7845631571307776,-9.628656654849648,-0.01570042140605001,0.013126049190759659,-0.0020859837532043457,0.5241126848986372,0.0001629255712032318
1746231641248701700,9.60370166015625,-0.1838109864815544,-0.0035500703379511833,-0.09421095020918442,-0.007894260808825493,0.11908017887762466,0.9882831672891041,0.23493054205158415,right,0.00017195940017700195,-0.053122893688795185,-1.7899080252900719,-9.6278488455981,-0.01551205099135693,-0.0005314648151397705,-0.0017113089561462402,0.5207126306641846,0.002688322216272354
1746231641288701700,9.64370166015625,-0.1840325384852839,0.0026547713205218315,-0.0943396089264219,-0.002599359955638647,0.11903255412266242,0.9882739853206768,0.23479913545920436,right,0.00046318769454956055,-0.053476782302861785,-1.7920073356568813,-9.62727016892731,-0.015680028352698775,-0.017504189163446426,-0.0013017505407333374,0.5241781513502821,0.003039795905351639
1746231641328701700,9.68370166015625,-0.18404634110802334,0.009204484522342682,-0.09440082169398957,0.003592350520193577,0.11906031444740017,0.9882571452156358,0.23476977118828304,right,0.0023078322410583496,-0.05443406966190523,-1.7920475215367972,-9.626747606357931,-0.016153897188829282,-0.02550438791513443,-0.0019217431545257568,0.5335522750256583,0.002923741936683655
1746231641368701700,9.72370166015625,-0.18380757983917115,0.018736835569143295,-0.09435794727837003,0.005552041344344616,0.11923353354680263,0.9882297766692719,0.2350102643999049,right,0.0014791488647460938,-0.055715559715532346,-1.7896224863469599,-9.626495092901587,-0.016790364162143922,-0.031130211427807808,-0.0016636699438095093,0.5461003525620326,0.0022288374602794647
1746231641408701700,9.76370166015625,-0.18342421765669548,0.018330488353967667,-0.09425277374570157,0.008329566568136215,0.11951282492123966,0.9881939775882738,0.2354571938173165,right,0.0011191964149475098,-0.05712348231154247,-1.7857899224467575,-9.6264150134027,-0.01748826198993563,-0.03028370812535286,-0.0015513598918914795,0.5598853880148381,0.0019267946481704712
1746231641448701700,9.80370166015625,-0.18299792742816157,0.016155561432242393,-0.0941190851241903,0.011170865967869759,0.11982608135496892,0.988157535583992,0.23598720617072175,right,-0.001849055290222168,-0.058385796260820993,-1.781556084269285,-9.626472881069779,-0.018112895171633194,-0.0225689597427845,-0.0035213083028793335,0.5722438247306272,0.0011257119476795197
1746231641488701700,9.84370166015625,-0.18264082864630984,0.0356903076171875,-0.0939834932887085,-0.007391389459371567,0.12030088851625655,0.988107984980282,0.23690489908136203,right,-0.004870951175689697,-0.0589517122685508,-1.7780593281947075,-9.626788522890209,-0.018370956109547535,0.0026354901492595673,-0.009350329637527466,0.577784032798931,-0.0045689791440963745
1746231641528701700,9.88370166015625,-0.1830075297419055,0.0589810349047184,-0.0941583207312119,-0.016424264758825302,0.12134513872514285,0.9879699582748114,0.23905141631668786,right,-0.0008009076118469238,-0.05850383830331361,-1.7816361637681721,-9.626389294439553,-0.01802643958332555,0.030540157109498978,-0.0058027952909469604,0.5733994610391557,0.00029571354389190674
1746231641568701700,9.92370166015625,-0.18311930557820194,0.055611662566661835,-0.09415457051511536,0.005422020331025124,0.12262237248218956,0.9878274778148295,0.24176049272901737,right,0.005139768123626709,-0.05708503586851162,-1.7828585451699792,-9.626980246070026,-0.017190817325053547,0.06112414598464966,-0.001223549246788025,0.5595089559178799,0.0042444318532943726
1746231641608701700,9.96370166015625,-0.18199301786488997,0.03452974557876587,-0.09347077217565267,0.041692569851875305,0.12371873777941982,0.9877772215438586,0.2442198808783263,right,0.006158232688903809,-0.05458124870298824,-1.7722626246146858,-9.63032955649793,-0.015907423016601436,0.0809875875711441,0.0025568604469299316,0.5349934868099168,0.008609417825937271
1746231641648701700,10.00370166015625,-0.179525970487261,0.0008028261363506317,-0.09206961206938429,0.0756862461566925,0.1242704934685115,0.9878628500657208,0.2456585282149309,right,0.007372558116912842,-0.051335057437863534,-1.7487997698321938,-9.636330842739342,-0.014389366421094235,0.09000635147094727,0.004331693053245544,0.5032038619805127,0.01055935025215149
1746231641688701700,10.04370166015625,-0.17608128622697128,-0.038087617605924606,-0.09014979200629473,0.08869387209415436,0.12405195827277735,0.9880890546299773,0.2455763919843105,right,0.0031125545501708984,-0.04770174716079649,-1.7159041930548846,-9.644034256723522,-0.012811164178226727,0.0881592407822609,0.004427462816238403,0.46761692722737785,0.007523205131292343
1746231641728701700,10.08370166015625,-0.1725687796150058,-0.06588762253522873,-0.08819387266452175,0.08271832019090652,0.12313948354336729,0.9883975095296068,0.24407134608607867,right,-0.0024024248123168945,-0.04417035782355193,-1.6822919924408197,-9.651568159359693,-0.011349533090725115,0.07424920797348022,0.0033510923385620117,0.4330224010450765,0.0041930191218853
1746231641768701700,10.12370166015625,-0.16970319384834867,-0.07846470177173615,-0.08658736781891806,0.05915360897779465,0.12174975163295418,0.9887245762348835,0.24153802184240883,right,-0.00668710470199585,-0.04120006871520724,-1.6548377299346029,-9.657574706298112,-0.010166851983686753,0.05173538997769356,0.0009475499391555786,0.4039203347992152,-0.001168563961982727
1746231641808701700,10.16370166015625,-0.16823702214727118,-0.07280585914850235,-0.08571799011859775,0.024648558348417282,0.12028993146060675,0.9889877648738253,0.2387832178546658,right,-0.00565493106842041,-0.03897209317904428,-1.6408229408465325,-9.660853874099255,-0.009272210928655685,0.03779972344636917,-0.0003809630870819092,0.3820889171434566,-0.006470922380685806
1746231641848701700,10.20370166015625,-0.16812408670601972,-0.06057099625468254,-0.08554830496775591,-0.00676514208316803,0.11897097830716792,0.989168739970484,0.2362617692980817,right,-0.0037655234336853027,-0.037209569194013685,-1.639841966985166,-9.661687986835837,-0.008514953823261211,0.029408568516373634,-0.0004677027463912964,0.36481702595558013,-0.007833212614059448
1746231641888701700,10.24370166015625,-0.16881660227609738,-0.04665946960449219,-0.08580891794414015,-0.025096885859966278,0.11794639080927126,0.9892737695041485,0.23428977038691126,right,-0.008921205997467041,-0.035930461086299006,-1.6466095614239573,-9.661001758137346,-0.007925524107391493,0.012363534420728683,-0.002924695611000061,0.3522816252376884,-0.005987383425235748
1746231641928701700,10.28370166015625,-0.1701835318718591,-0.013854987919330597,-0.08645648807675846,-0.04033653065562248,0.1173415364751273,0.9892911986948323,0.23309070780815644,right,-0.0058844685554504395,-0.03551374785381186,-1.6598386069618165,-9.65888578889668,-0.007690561131497748,-0.009161103516817093,-0.003439009189605713,0.34819768039230253,-0.004176918417215347
1746231641968701700,10.32370166015625,-0.17181668072582343,0.012098139151930809,-0.0873098059269468,-0.04017314314842224,0.11734591792259355,0.9892133118255504,0.23301960368120905,right,0.0005985498428344727,-0.036315115879996605,-1.6755625380553305,-9.65588426899314,-0.007994350454689832,-0.029493242502212524,-0.0023203790187835693,0.3560513530347496,-0.0013128481805324554
1746231642008701700,10.36370166015625,-0.17311524808908157,0.031845271587371826,-0.08804172985910809,-0.026301318779587746,0.117795784793364,0.9890896151564629,0.2337908581916149,right,0.003850698471069336,-0.03782699028215687,-1.6880052555210887,-9.65315922794342,-0.008632221161287265,-0.03591302037239075,-0.0016443729400634766,0.3708675946988165,-0.00038811564445495605
1746231642048701700,10.40370166015625,-0.1737942087970885,0.03573539853096008,-0.08848653457283602,-0.009510671719908714,0.1184381396698875,0.9889658740402859,0.23493031462035002,right,0.0028530359268188477,-0.039637398379112676,-1.694440110874176,-9.651333766081928,-0.009437463615334965,-0.040825508534908295,-0.0014052093029022217,0.3886083089748397,0.002429962158203125
1746231642088701700,10.44370166015625,-0.1739591388196433,0.03175976127386093,-0.08868690367361165,-0.003028500359505415,0.11903569826946289,0.9888669579090409,0.23596992495892946,right,0.0023224353790283203,-0.041610289804773,-1.6958958626404403,-9.650279873114824,-0.010357545174808793,-0.04596603661775589,-0.0005493611097335815,0.40793979957364496,0.003124631941318512
1746231642128701700,10.48370166015625,-0.17386844550118769,0.02139996737241745,-0.08875835806936577,0.000056845834478735924,0.11948164819786575,0.9887965739101364,0.236708377933823,right,0.00028264522552490234,-0.04355343655500207,-1.6948804019875823,-9.6496351454705,-0.01129134100525049,-0.042848631739616394,-0.0006022751331329346,0.42697829857524483,0.002081494778394699
1746231642168701700,10.52370166015625,-0.17381847366443592,0.01302595715969801,-0.08882228200640424,-0.0015021651051938534,0.11973549374971497,0.9887515075436577,0.2370963171739511,right,-0.0008321404457092285,-0.045045115222987035,-1.6942860893562435,-9.649081603240965,-0.012014911622433263,-0.026112345978617668,-0.0015756040811538696,0.4415922956654802,0.0008975118398666382
1746231642208701700,10.56370166015625,-0.17411819394137804,0.008005740121006966,-0.08901883164478874,-0.012088466435670853,0.11985629292145458,0.9887145237538219,0.23726792587465137,right,-0.00037175416946411133,-0.04586204264897379,-1.6971150291718542,-9.648214757278561,-0.012393381650366972,-0.01210424117743969,-0.0007042884826660156,0.4495953501833603,0.0004012472927570343
1746231642248701700,10.60370166015625,-0.1746498302789205,0.0056006708182394505,-0.08930624367024459,-0.012136994861066341,0.11995498765636062,0.9886745869400093,0.23742636726159802,right,0.0013379454612731934,-0.046269400451847784,-1.702212060049921,-9.647129884651303,-0.012555918027965077,-0.006293583195656538,-0.00008466839790344238,0.4535859176568687,0.00025490671396255493
1746231642288701700,10.64370166015625,-0.17506061121853014,0.003952610306441784,-0.08952634373715991,-0.006034573540091515,0.1200281307530065,0.9886443883001148,0.23754523772157238,right,0.0013530850410461426,-0.04655028825395758,-1.7061526143692434,-9.646303955221176,-0.01266487683724965,-0.006982419174164534,-0.0001634657382965088,0.45633751791995014,0.0008739233016967773
1746231642328701700,10.68370166015625,-0.17514180912130747,0.005133508704602718,-0.08958966155727753,0.0054200803861021996,0.12013140859896884,0.9886238361652423,0.23772079298941656,right,0.001734614372253418,-0.04693056020176681,-1.7069054785631597,-9.645994158619642,-0.012840207489524568,-0.0075783757492899895,-0.000020876526832580566,0.4600626393903047,0.0008095689117908478
1746231642368701700,10.72370166015625,-0.1747843408242789,0.009524768218398094,-0.08944389291479127,0.013356774114072323,0.12027218038926464,0.9886164738533333,0.23796736393930165,right,0.0007827877998352051,-0.04743577157562618,-1.703416613534093,-9.646373513326049,-0.013100509953008804,-0.013856692239642143,-0.0004900246858596802,0.46501156703457236,0.0018052905797958374
1746231642408701700,10.76370166015625,-0.17418364902010464,0.012697920203208923,-0.08919839638188015,0.016016460955142975,0.12046829278995405,0.9886089108359022,0.2383005517423818,right,-0.0016879439353942871,-0.04828264221202071,-1.6975529821977018,-9.64700362792313,-0.01354060615717151,-0.024192867800593376,-0.00010360777378082275,0.47330702862776813,0.00285479798913002
1746231642448701700,10.80370166015625,-0.17355001557337477,0.013309210538864136,-0.0889623145717091,0.012922976166009903,0.12065621837609004,0.9885979853290046,0.23858075853342145,right,-0.0013042688369750977,-0.04957509800862171,-1.6913329386390745,-9.647466569259763,-0.01420551189950778,-0.03213100880384445,0.0005400478839874268,0.48596653064936396,0.002682860940694809
1746231642488701700,10.84370166015625,-0.17315857028017992,0.009388656355440617,-0.08885022061930323,0.005103840492665768,0.12081818927248512,0.9885781355267118,0.2387991726853419,right,0.0009074807167053223,-0.050946183993300226,-1.6874398767232894,-9.647462477606535,-0.014897508687071627,-0.026274237781763077,0.00023418664932250977,0.49939530001040544,0.0020047351717948914
1746231642528701700,10.88370166015625,-0.17300199301000319,0.007806933484971523,-0.08882437272970023,0.0006767977029085159,0.1209741859407136,0.9885549119994714,0.23904576916558587,right,0.0015312433242797852,-0.05179912646292337,-1.6858553840108215,-9.64730348765254,-0.01531784056910558,-0.00959225557744503,0.00015838444232940674,0.5077487754011526,0.0013213902711868286
1746231642568701700,10.92370166015625,-0.17286162253470258,0.002105985302478075,-0.08876542276634221,-0.0005447606090456247,0.12110645960359909,0.9885429588209405,0.2393034415491356,right,-0.004231572151184082,-0.05194416198466711,-1.6844884795717894,-9.647467738303542,-0.01538662201617305,0.00026047881692647934,-0.0022046416997909546,0.5091691635930911,0.006615888327360153
1746231642608701700,10.96370166015625,-0.17291780861419362,0.005821839906275272,-0.08878446403519176,-0.0057634152472019196,0.12115755292362944,0.9885363842254408,0.23941972171510328,right,-0.004894554615020752,-0.05177924208334124,-1.6850449444107711,-9.647455463343858,-0.015296498641769988,0.005067591555416584,-0.0026516318321228027,0.5075540200140327,0.0064315348863601685
1746231642648701700,11.00370166015625,-0.1730963539740329,0.0040875887498259544,-0.08885509492457033,-0.002329600043594837,0.12129796373255372,0.9885157976942652,0.23972966093422993,right,0.0010465383529663086,-0.05143724415361498,-1.686797194905579,-9.647325114962458,-0.015102783908630022,0.012698868289589882,-0.0012641698122024536,0.5042046365208923,0.006472531706094742
1746231642688701700,11.04370166015625,-0.17297847412802694,0.0015012705698609352,-0.08874463299597186,0.006402585655450821,0.12141494165980485,0.9885183990601155,0.24004615521111644,right,0.0027106404304504395,-0.050504606634143655,-1.6857402331985532,-9.647982702088356,-0.014634674501431022,0.03052033670246601,-0.0011856555938720703,0.49507045908123254,0.0059117600321769714
1746231642728701700,11.08370166015625,-0.1726078034578042,-0.006700287573039532,-0.08847615714090941,0.008559489622712135,0.12143964704833561,0.9885497595514313,0.24022503822367824,right,0.002723395824432373,-0.04902730653324133,-1.682287608526647,-9.64931658104062,-0.013918693050372185,0.040295302867889404,-0.0010257959365844727,0.4806010580934584,0.00490628182888031
1746231642768701700,11.12370166015625,-0.1721604355976795,-0.012777911499142647,-0.08815863844230133,0.01168802473694086,0.12132633411039076,0.98860265623269,0.24013838221578443,right,0.0010779500007629395,-0.047393278908689065,-1.6781030163183808,-9.650829323691129,-0.013141584254209917,0.03454332426190376,-0.000661119818687439,0.4645953143838793,0.006133288145065308
1746231642808701700,11.16370166015625,-0.17154014579091362,-0.021534327417612076,-0.08776716788882138,0.015013350173830986,0.12101095000365704,0.9886842930976718,0.23962441175954521,right,-0.0002453923225402832,-0.04600150650360623,-1.6722250641956924,-9.652496380120516,-0.012513452171532257,0.02573496662080288,-0.001127779483795166,0.45096156050264835,0.004898779094219208
1746231642848701700,11.20370166015625,-0.17085133359953492,-0.02279294840991497,-0.08736359236790792,0.01920274831354618,0.12057026831716355,0.9887790246902424,0.2388241874606543,right,-0.0003987550735473633,-0.04500726123870929,-1.6656513848938046,-9.654082772529124,-0.012098337333771364,0.017893966287374496,-0.0007123202085494995,0.44122145305909216,0.0009871162474155426
1746231642888701700,11.24370166015625,-0.17015348678739425,-0.01485971175134182,-0.0869754354730046,0.012828217819333076,0.12015837331406089,0.9888664664142429,0.23805426061395207,right,-0.0019472837448120117,-0.044346459174832806,-1.6589628470405935,-9.65552829516232,-0.011847035144221788,0.006082284264266491,-0.0009870678186416626,0.43474765393510456,-0.00016137585043907166
1746231642928701700,11.28370166015625,-0.1696732249121804,-0.004601961933076382,-0.08673764636304862,0.010094555094838142,0.11990091264449777,0.9889177185851753,0.2375354149062021,right,-0.0018828511238098145,-0.044393908253812765,-1.6543220354974268,-9.656303371188043,-0.0119218622884866,-0.01294171903282404,0.0006843656301498413,0.43521253150049594,0.0010956749320030212
1746231642968701700,11.32370166015625,-0.16927673197138157,0.007115226238965988,-0.08659490656346036,0.007593170739710331,0.11986242293206448,0.9889288326942338,0.23738560157138022,right,-0.0028754472732543945,-0.04532786708619744,-1.6504240051455794,-9.65655354655683,-0.012414137069540388,-0.0324549525976181,0.0006657987833023071,0.44436230836808677,0.001804932951927185
1746231643008701700,11.36370166015625,-0.16895397802384396,0.014292906038463116,-0.08653197901686964,0.004443218000233173,0.12002325480584262,0.9889041234411189,0.23758020304810892,right,-0.002139747142791748,-0.04697184936205906,-1.6471822467453776,-9.656352471026779,-0.01323833036714285,-0.0426739901304245,0.00045102834701538086,0.4604671285379678,0.0016655772924423218
1746231643048701700,11.40370166015625,-0.16880384444404284,0.016738636419177055,-0.08656691892155714,0.00040081003680825233,0.12027289419696263,0.9888582547139952,0.23793682765362187,right,-0.0006125569343566895,-0.04880988174191954,-1.6455875248998402,-9.65574924443662,-0.01414115488351848,-0.04100404307246208,-0.00008977949619293213,0.4784713891210034,0.0018456988036632538
1746231643088701700,11.44370166015625,-0.1689261457653482,0.009042730554938316,-0.08671727966113933,-0.006694103591144085,0.1204719815658149,0.9888101410012037,0.23821416404353887,right,0.001559138298034668,-0.05032215718084206,-1.646644778867811,-9.654823361763357,-0.01486984962375707,-0.025355244055390358,0.0001235753297805786,0.49328353913184253,0.0012947693467140198
1746231643128701700,11.48370166015625,-0.16922448965004738,0.0013908888213336468,-0.08691127730382728,-0.006386094260960817,0.12054182626933198,0.9887789330748388,0.23828628075944394,right,0.0019400715827941895,-0.05111268759033043,-1.649458959505707,-9.65394424084127,-0.015239780063920395,-0.012179873883724213,0.001055017113685608,0.5010260064847767,0.00328277051448822
1746231643168701700,11.52370166015625,-0.16946754850540552,-0.007438803557306528,-0.0870499951676626,-0.005466125905513763,0.1204434027048949,0.9887761411577636,0.23805480542636184,right,-0.00028771162033081055,-0.05146261487147399,-1.6517757120154797,-9.653369655823708,-0.0154082940311802,-0.00615392392501235,0.00022169947624206543,0.5044531313892454,0.003388185054063797
1746231643208701700,11.56370166015625,-0.16991349928802962,-0.009314632043242455,-0.08727225138718366,-0.009866580367088318,0.12023235020535246,0.988781654103311,0.23761362069975359,right,-0.000049114227294921875,-0.05155200774866221,-1.656072970817983,-9.652587565535306,-0.015444906713058898,-0.001392497681081295,-0.00038959085941314697,0.5053285990495234,0.0014008469879627228
1746231643248701700,11.60370166015625,-0.17048780664728913,-0.008323132991790771,-0.08754344963842385,-0.016060590744018555,0.12005757027532522,0.9887805424614943,0.23726543674652112,right,-0.00041878223419189453,-0.05137834342279475,-1.6616310433365404,-9.65172130409479,-0.015339720592352684,0.004752837121486664,-0.0027285516262054443,0.5036277864810079,0.0013632848858833313
1746231643288701700,11.64370166015625,-0.1711173236316747,-0.0073320260271430016,-0.08782075096603237,-0.009207438677549362,0.11992156544731676,0.9887770887407644,0.23702652590200005,right,0.0011557936668395996,-0.05082308040326295,-1.6677540562614797,-9.650947397112846,-0.01503776760449083,0.015631739050149918,-0.002919718623161316,0.49818961401507256,0.0012494400143623352
1746231643328701700,11.68370166015625,-0.1711156911438568,0.003729017451405525,-0.08775889813422191,0.0073145851492881775,0.11991178718508495,0.9887917084002643,0.23709490412828246,right,0.0014373064041137695,-0.04975869548701001,-1.667827559889108,-9.651467037072777,-0.014508370163128741,0.030314475297927856,-0.0029255300760269165,0.48776477571036664,0.0023956969380378723
1746231643368701700,11.72370166015625,-0.170678836145154,0.010709233582019806,-0.08746593709412295,0.013629820197820663,0.12014572724415633,0.9887991768384278,0.23769031753846062,right,0.0014877915382385254,-0.04835716943702455,-1.6637256775282323,-9.65285936821401,-0.013815246062811759,0.04011625796556473,-0.003140881657600403,0.47403702340275045,0.005195006728172302
1746231643408701700,11.76370166015625,-0.16996223193800936,0.004928724840283394,-0.08701552573400148,0.02022227831184864,0.120439215178469,0.9888147374600885,0.23843721085406572,right,0.0023556947708129883,-0.0466179744858208,-1.6569449313469231,-9.654846742638945,-0.012965486246874196,0.0486014299094677,-0.0014883726835250854,0.4570005849385634,0.006687775254249573
1746231643448701700,11.80370166015625,-0.1691086853943137,-0.009023221209645271,-0.08647255919128476,0.019891925156116486,0.12049692897110388,0.9888679732352812,0.2387379499473537,right,0.0013844966888427734,-0.04451178703262853,-1.6488617242649197,-9.657184830197691,-0.011962028782128679,0.05398769676685333,-0.0011991709470748901,0.4363673640914261,0.006445441395044327
1746231643488701700,11.84370166015625,-0.16829964227582656,-0.022288640961050987,-0.08593962664507607,0.021195121109485626,0.12022300443096529,0.988959868675075,0.23837706435058287,right,0.00012010335922241211,-0.042270210900784345,-1.6412078485108912,-9.659455697739125,-0.010917421736111021,0.05151303485035896,-0.00022095441818237305,0.41440570765212176,0.005060866475105286
1746231643528701700,11.88370166015625,-0.16762362741448886,-0.03156668692827225,-0.08548528904812573,0.015545077621936798,0.11971124931972335,0.9890708719015491,0.23751137051817942,right,0.000057816505432128906,-0.040287647062108294,-1.6348114254720507,-9.661354224836826,-0.010014271254663346,0.03857399523258209,-0.0001020282506942749,0.39497996289860454,0.0023621171712875366
1746231643568701700,11.92370166015625,-0.1672769081647659,-0.02981966733932495,-0.08521880441787308,0.006327307783067226,0.11909766220111645,0.9891747410746564,0.23640004696929323,right,-0.0004534125328063965,-0.03874378671913479,-1.6315610453739762,-9.662510409134626,-0.009318562732409148,0.029105892404913902,-0.0006884783506393433,0.37985169614329933,-0.0022119805216789246
1746231643608701700,11.96370166015625,-0.16715612519060807,-0.013792149722576141,-0.08509500448815087,-0.0029425490647554398,0.1186960643817404,0.9892381302979097,0.23567484787809864,right,-0.0030631422996520996,-0.03769364784730779,-1.6304595138728617,-9.663095515546201,-0.008837022026271539,0.014503594487905502,-0.0031400173902511597,0.36956085948180406,-0.0023584775626659393
1746231643648701700,12.00370166015625,-0.16751498748460003,0.006100326776504517,-0.08526480548895031,-0.011950843967497349,0.11861700598794182,0.9892335540819319,0.23552173618522085,right,-0.0011864304542541504,-0.037571881499914465,-1.633934642637521,-9.662553663754462,-0.008762000876678416,-0.008607817813754082,-0.0029291659593582153,0.368367594576627,-0.0015915408730506897
1746231643688701700,12.04370166015625,-0.16793485233886474,0.01824890449643135,-0.08552007105405535,-0.011092595756053925,0.11886561624358276,0.989178534946264,0.23595594065006326,right,-0.0006697177886962891,-0.038361942485350874,-1.6379422708436846,-9.661576927676796,-0.009109448645599408,-0.025060808286070824,-0.003001958131790161,0.37610987926647066,-0.0009028390049934387
1746231643728701700,12.08370166015625,-0.16828277044050394,0.023551885038614273,-0.08577685668746408,-0.007899407297372818,0.1192574090881019,0.9891030019138956,0.23662941103939464,right,0.00013202428817749023,-0.03977021008367598,-1.6412132553383707,-9.660475103914736,-0.009756656086415932,-0.03597932681441307,-0.002186208963394165,0.3899097104296088,0.0004747435450553894
1746231643768701700,12.12370166015625,-0.16840046500795083,0.016821613535284996,-0.08594221907683611,0.00044339802116155624,0.11962945103995695,0.9890348750465007,0.2372334722479347,right,0.002069830894470215,-0.04156391614203353,-1.6422303234264253,-9.659576693770289,-0.010611106530655492,-0.04605942964553833,-0.0006512850522994995,0.40748540686964985,0.0034318268299102783
1746231643808701700,12.16370166015625,-0.16813405946311483,0.009959600865840912,-0.08593090681534432,0.012768778949975967,0.11984557199705956,0.9889982357992194,0.2375060437474451,right,0.0034221410751342773,-0.043610837732733325,-1.6395139040745794,-9.659171035578847,-0.011627997356022242,-0.04870859533548355,-0.00001233816146850586,0.4275406451657414,0.003636367619037628
1746231643848701700,12.20370166015625,-0.16734690349071615,0.004533954430371523,-0.08565103700728047,0.023511679843068123,0.11994771977993089,0.9889983080420766,0.23756949836757393,right,0.0016151070594787598,-0.04548708425209547,-1.6317736652113497,-9.65965092805028,-0.012600682160064736,-0.042052943259477615,-0.00023660063743591309,0.44592210503071544,0.0024060234427452087
1746231643888701700,12.24370166015625,-0.166392483194776,0.0014343955554068089,-0.0852602845843893,0.02282062917947769,0.11996513478688717,0.9890200746375358,0.2375035130279235,right,-0.0015929937362670898,-0.04689310436256674,-1.6224480568528175,-9.660575641679763,-0.013356350305644119,-0.0238718930631876,-0.0015801936388015747,0.459695742306672,0.001032710075378418
1746231643928701700,12.28370166015625,-0.16570527339034177,-0.0015215561725199223,-0.08495161926574972,0.012949538417160511,0.11995590846145344,0.9890434681866848,0.2374505547894512,right,-0.0015041232109069824,-0.047436310062067416,-1.6157674100451171,-9.6614407340765,-0.013668572403228798,-0.002465963363647461,-0.0024964064359664917,0.46501682773157954,-0.0012476779520511627
1746231643968701700,12.32370166015625,-0.1653427674430953,-0.0026327800005674362,-0.08475390042420454,0.00647348677739501,0.11995735070102687,0.9890621912127822,0.23748425427429992,right,-0.0007110238075256348,-0.04711450399540509,-1.6122895048014818,-9.662173140004276,-0.013529669237885612,0.015985313802957535,-0.0011802464723587036,0.46186453771311786,-0.0005898922681808472
1746231644008701700,12.36370166015625,-0.16522919149094611,-0.000573938712477684,-0.08465388658776829,0.0012355712242424488,0.11996662071320108,0.9890745978590936,0.2375657256241409,right,-0.001413881778717041,-0.04634988929249913,-1.6112497864902018,-9.662701547792553,-0.013154727687187086,0.018177570775151253,-0.0006089508533477783,0.45437440115343775,-0.0006779208779335022
1746231644048701700,12.40370166015625,-0.16524398597496864,0.004969825968146324,-0.08462492430150095,-0.002300427993759513,0.12002438733876195,0.9890743607491613,0.2377338376512944,right,-0.0013880729675292969,-0.04570682158175698,-1.611440486756712,-9.662963998121022,-0.012828559918600118,0.013761306181550026,-0.00016877055168151855,0.4480747530199587,-0.00104629248380661
1746231644088701700,12.44370166015625,-0.1654436135728232,0.011051775887608528,-0.08470603448612649,-0.007122870534658432,0.12021506756596488,0.9890468473433048,0.23814470717298622,right,-0.00013703107833862305,-0.04535924256964169,-1.6133949818253517,-9.662795071294903,-0.012627211124628826,0.004540253430604935,-0.0008715540170669556,0.4446696938168257,-0.0011436454951763153
1746231644128701700,12.48370166015625,-0.16577505194846517,0.015856148675084114,-0.08487420708746893,-0.010298635810613632,0.12051896168449168,0.9889959454840395,0.23875442149554776,right,0.000016689300537109375,-0.04536655582452011,-1.6165969927370547,-9.662256726634501,-0.012585032955087599,-0.002490829676389694,-0.0008940845727920532,0.44474133428093043,-0.0007033571600914001
1746231644168701700,12.52370166015625,-0.1662765349693869,0.014497864991426468,-0.08514611528891752,-0.01330028660595417,0.1208504381772076,0.98893078797412,0.2393909642594127,right,0.0009689927101135254,-0.045707226638596485,-1.6214171063698828,-9.661294603604079,-0.012696248839182285,-0.010322855785489082,-0.001983359456062317,0.4480786985427141,-0.00009183213114738464
1746231644208701700,12.56370166015625,-0.16666605872967158,0.010190839879214764,-0.08537651829998294,-0.005031440407037735,0.12110909638951917,0.9888759988156937,0.23986112898370826,right,0.0013399124145507812,-0.04630091367843187,-1.6251358346320688,-9.660398531547187,-0.012946328151025144,-0.012438114732503891,-0.002021610736846924,0.4538946182798594,0.00035853683948516846
1746231644248701700,12.60370166015625,-0.166678403473553,-0.0009655244648456573,-0.0854214710936389,0.0029188422486186028,0.12118358839084353,0.9888587913706637,0.23995902752356665,right,-0.001336514949798584,-0.046952411625988705,-1.6252056849978864,-9.660084643292427,-0.013263674068368113,-0.017427202314138412,-0.0029357224702835083,0.4602766839997843,0.001801803708076477
1746231644288701700,12.64370166015625,-0.1665427384328991,-0.01406091172248125,-0.08539018857114107,0.004885087255388498,0.12097366309185797,0.9888823320743053,0.2394825990247041,right,-0.0017368197441101074,-0.04761804894279711,-1.6238440412558615,-9.660001056662201,-0.013621503194879985,-0.016157440841197968,-0.003760918974876404,0.46679706221185624,0.0008350983262062073
1746231644328701700,12.68370166015625,-0.16646663398960707,-0.02857455611228943,-0.08537001917888472,0.0035929244477301836,0.12048330933500609,0.9889403577585464,0.23845812908955882,right,0.0005636811256408691,-0.04803767578337078,-1.6230762717537581,-9.65993032951355,-0.013877418089837673,-0.008584951981902122,-0.003200545907020569,0.4709074932053685,-0.0012131519615650177
1746231644368701700,12.72370166015625,-0.1665576871354533,-0.034178100526332855,-0.08540556949372868,0.001257031923159957,0.11982566568099891,0.9890164634885774,0.2371272101247301,right,0.0034388303756713867,-0.04803378999207338,-1.623956123328209,-9.659784199041127,-0.013926847404165532,0.0012694820761680603,-0.002317667007446289,0.47086942621730266,-0.0031273066997528076
1746231644408701700,12.76370166015625,-0.1667308862527687,-0.033206693828105927,-0.08545808080066285,-0.008141428232192993,0.11913725384271041,0.9890973128930377,0.23576586043003397,right,-0.0016158819198608398,-0.04762333763685947,-1.6256610275499521,-9.659692429104446,-0.013771575208742084,0.0039210207760334015,-0.0056386590003967285,0.4668489019969478,-0.0026234351098537445
1746231644448701700,12.80370166015625,-0.16723063801817598,-0.009322566911578178,-0.08568332313388881,-0.0157065000385046,0.1186886897851087,0.9891335314940416,0.23487417127338994,right,-0.0015145540237426758,-0.047348485148820875,-1.6305096366249023,-9.659005031362176,-0.013644018708251403,-0.0039276303723454475,-0.004883944988250732,0.4641565576404333,-0.0016048066318035126
1746231644488701700,12.84370166015625,-0.16764705770843347,0.004152900539338589,-0.08589899068227018,-0.003957449458539486,0.1186290663172033,0.9891209871217121,0.23473273720733484,right,0.0024366378784179688,-0.0475348752434233,-1.6345171187005936,-9.658239892208575,-0.013717604895126934,-0.007036934606730938,-0.003809899091720581,0.46598234829548746,-0.0012635774910449982
1746231644528701700,12.88370166015625,-0.1677252296021541,0.016926895827054977,-0.08596581865385967,0.0006833341903984547,0.11884858727895532,0.989086077597899,0.23513962387551376,right,0.00176924467086792,-0.04797675426739999,-1.6352376880601047,-9.657907883775234,-0.013914117068504829,-0.011459607630968094,-0.003768935799598694,0.4703107694212347,0.000638030469417572
1746231644568701700,12.92370166015625,-0.16757448610698755,0.015530947595834732,-0.08593918254716604,0.006026479881256819,0.11915253477759472,0.9890466384743957,0.23569425154599433,right,0.0009359121322631836,-0.048742150502549826,-1.6337212921477853,-9.657796824616193,-0.01427794634630999,-0.022402092814445496,-0.0034210234880447388,0.47780795677620913,0.0035507269203662872
1746231644608701700,12.96370166015625,-0.16722129673337247,0.010008029639720917,-0.08583626157549859,0.006725049577653408,0.1193554019690893,0.9890222488762512,0.23601204742955825,right,-0.0009604692459106445,-0.04994786609773912,-1.6302129917658865,-9.657797993659972,-0.014881898501290111,-0.033269964158535004,-0.0027698278427124023,0.4896176005028188,0.004356935620307922
1746231644648701700,13.00370166015625,-0.16694874503814575,0.0020163115113973618,-0.08578636595178131,0.0020705321803689003,0.11940147442301308,0.9890093749715098,0.23599014878000119,right,-0.002417922019958496,-0.051424545037734484,-1.6274588707521558,-9.657518592196702,-0.015629703027639184,-0.039897847920656204,-0.0032872557640075684,0.5040802794888616,0.0037134401500225067
