time,seconds_elapsed,roll,rotationRateZ,quaternionY,rotationRateY,quaternionZ,quaternionW,yaw,devicelocation,accelerationZ,pitch,gravityX,gravityZ,quaternionX,rotationRateX,accelerationX,gravityY,accelerationY
1746231703039442700,0.202442626953125,-0.9982972163604859,0.025075821205973625,-0.47865295034253474,0.03108298033475876,1.4629459032249602e-17,0.877980537684856,-0.006167971964410326,right,-0.4241807460784912,-0.011313194593686042,-8.24244954945445,-5.312259436634182,-0.006442599114346691,-0.06486653536558151,0.660323441028595,0.110942172464123,0.14829882979393005
1746231703079443000,0.24244287109375,-0.21054658225540615,0.026477789506316185,-0.11631991321792778,0.044910021126270294,0.15995743527233008,0.9779381649189157,0.3063056943773501,right,-0.002360045909881592,-0.169522183371372,-2.0201560199432076,-9.452619119942188,-0.06723274319367828,-0.06889763474464417,0.026106059551239014,1.6544935926720499,-0.011491477489471436
1746231703119443000,0.28244287109375,-0.18268852505201652,0.026886098086833954,-0.10317181136687055,0.036887265741825104,0.16531764243622613,0.9783950690223078,0.3191597768376483,right,-0.005697011947631836,-0.17005813014835214,-1.7559132550992071,-9.50434813813567,-0.06905564224826519,-0.038510557264089584,0.0027073174715042114,1.659673771788925,-0.002650544047355652
1746231703159443000,0.32244287109375,-0.18204565288792401,0.011001832783222198,-0.10268885901482216,0.03831221163272858,0.16526175042482402,0.978530745214983,0.31926925923459337,right,-0.005349159240722656,-0.16776409261564207,-1.7504874306581912,-9.509194409123063,-0.06797802277580758,-0.06047460436820984,0.004964113235473633,1.6374971574246882,0.0014709830284118652
1746231703199443000,0.36244287109375,-0.1814033794963127,-0.004882430657744408,-0.10220579058116071,0.03973716124892235,0.16520555894190192,0.9786651900899186,0.31937711101428307,right,-0.0050067901611328125,-0.16547002870603164,-1.7450526922583578,-9.513986904096603,-0.06690031973066404,-0.0824386477470398,0.0072200000286102295,1.6153116291016338,0.005593419075012207
1746231703239443000,0.40244287109375,-0.17773256229043718,0.00047132791951298714,-0.10070299448114531,0.06192927435040474,0.1650259873586284,0.978688788233929,0.3189515073590624,right,0.00488656759262085,-0.16956768547329581,-1.7089323082156478,-9.513733806118369,-0.06923499589414957,-0.05066566914319992,0.008278891444206238,1.654933445394039,0.000970199704170227
1746231703279442700,0.442442626953125,-0.17409967939727614,-0.02235325053334236,-0.09901654597970797,0.08172270655632019,0.164502160296195,0.9788664685345265,0.3180169259033327,right,0.0019798874855041504,-0.17122188290108856,-1.6738823298834262,-9.517170210307835,-0.07039245118694692,-0.03749021515250206,0.008438438177108765,1.6709205574683843,0.003037557005882263
1746231703319443000,0.48244287109375,-0.17061012808239165,-0.015802036970853806,-0.0973732448159347,0.060339219868183136,0.16394132977914502,0.9790537717509943,0.3170268482684229,right,-0.004082798957824707,-0.1725567237202129,-1.6402815274462104,-9.520746899750828,-0.07138252610227358,-0.02480590157210827,0.006965354084968567,1.6838180329643189,-0.0017406195402145386
1746231703359443000,0.52244287109375,-0.16762483552409121,-0.02175181731581688,-0.09596896253619451,0.040340401232242584,0.16335342425569765,0.979222736766519,0.31595391593958083,right,-0.0051406025886535645,-0.17384030870353134,-1.6114900249868631,-9.523462003928422,-0.07230853581785858,-0.030762361362576485,0.009289473295211792,1.696217349679768,-0.0011463165283203125
1746231703399443000,0.56244287109375,-0.16550501782264496,-0.03670497238636017,-0.09491926872874006,0.03495453670620918,0.16251561848805132,0.9794233564132429,0.31435666829821635,right,-0.00472182035446167,-0.17446287933886265,-1.5911241133064031,-9.52581353549063,-0.07286301029686969,-0.036272913217544556,0.008055165410041809,1.702230326358974,-0.0021109431982040405
1746231703439443000,0.60244287109375,-0.16385178155716162,-0.035475146025419235,-0.09411476805302164,0.03165276348590851,0.16175478062132775,0.9795821453165259,0.3128713244946081,right,-0.006123781204223633,-0.17526729891107543,-1.5751497145831583,-9.527076687294244,-0.0734620986463185,-0.0327814556658268,0.005610287189483643,1.7099986222729087,-0.006048873066902161
1746231703479443000,0.64244287109375,-0.16225506022708844,-0.02378750778734684,-0.09331910525537154,0.01902826689183712,0.161040591965097,0.9797428551440477,0.3114992499864809,right,-0.009433865547180176,-0.1757698488521971,-1.5597966626286506,-9.528730299720168,-0.07390196716212676,-0.011686505749821663,-0.00041994452476501465,1.7148513230010867,-0.015176430344581604
1746231703519442700,0.682442626953125,-0.1616742518060453,-0.0036590471863746643,-0.09295840476072982,-0.0034760087728500366,0.16087525566745017,0.9798339520049983,0.31126750953774646,right,-0.010356664657592773,-0.17484953326764055,-1.55451536122486,-9.5311882142663,-0.07350763487999512,0.02419385500252247,-0.00420534610748291,1.7059643983207642,-0.01582115888595581
1746231703559443000,0.72244287109375,-0.16192840070232167,0.014161646366119385,-0.09292900835267587,-0.024154338985681534,0.1611150534900387,0.9798889068919882,0.3119003738674109,right,-0.013589739799499512,-0.1724441217417236,-1.5575947686702012,-9.534815172591806,-0.0722766658555866,0.041532352566719055,-0.00449332594871521,1.6827300915971397,-0.010935887694358826
1746231703599443000,0.76244287109375,-0.16310936633645767,0.01799529232084751,-0.09330440886563564,-0.03017137572169304,0.16160984500701386,0.9799008813613407,0.31304920689291726,right,-0.007013440132141113,-0.16913679627684267,-1.5697490245833992,-9.53840822864771,-0.07050391841636301,0.04683254286646843,-0.003937780857086182,1.6507682885386048,-0.00814346969127655
1746231703639443000,0.80244287109375,-0.164159749062525,0.014137796126306057,-0.09367698095567407,-0.033816155046224594,0.16202805577365648,0.9798880171343213,0.31399015593642626,right,-0.007429063320159912,-0.16677725231294507,-1.5803993056744337,-9.540570375117658,-0.06921637187283262,0.0503966361284256,-0.006674408912658691,1.6279546914450824,-0.00927838683128357
1746231703950730200,1.113730224609375,-0.1671912628478076,0.011941767297685146,-0.09485737389761241,-0.05979125574231148,0.16285281121539077,0.9798279172581748,0.315808127462124,right,0.008186017163097858,-0.16185870117044496,-1.610627416808158,-9.54351578091979,-0.06646948334459093,0.07830674201250076,-0.01698203757405281,1.580369933449477,-0.013683571480214596
1746231703990730200,1.153730224609375,-0.1798985197860068,0.08903859555721283,-0.10144014006763084,0.02651478722691536,0.1817377479017477,0.9763602844841337,0.35438803394419416,right,0.0019050836563110352,-0.15134047676851306,-1.7346444032296537,-9.53810661535263,-0.058324994922190204,0.015461867675185204,-0.005555644631385803,1.4784839686848221,-0.0028053373098373413
1746231704030730200,1.193730224609375,-0.1793932874567597,0.05374902859330177,-0.10123480230277848,0.003046685829758644,0.1828353591212516,0.9761897585519475,0.3566900404831676,right,-0.0015985369682312012,-0.15103601367412534,-1.729905538139492,-9.539424127691984,-0.058105418842424504,0.03591860830783844,-0.004276439547538757,1.4755322792723775,0.0008769184350967407
1746231704070730200,1.233730224609375,-0.18013013372238582,0.00488358736038208,-0.10156310820271175,-0.03131013363599777,0.18347035868224584,0.9760681766233196,0.35801010529016714,right,-0.007278561592102051,-0.15021769679274624,-1.7371499563097952,-9.539331773233414,-0.05757064113614106,0.012434491887688637,-0.0009235292673110962,1.4675982714027165,0.012826070189476013
1746231704110730200,1.273730224609375,-0.18251710885686634,-0.06938382983207703,-0.10275629503728466,-0.04647474363446236,0.1826955930530309,0.9760686956429852,0.35620814828336556,right,-0.012786924839019775,-0.15116401540986116,-1.7596622323691844,-9.533788167631625,-0.05790715946893236,-0.06918839365243912,0.007276058197021484,1.476773219244182,0.01854248344898224
1746231704150730500,1.31373046875,-0.18413301110705413,-0.11704643070697784,-0.1036500224158387,-0.03243809565901756,0.18120768880715024,0.9761795284580079,0.3528740306387294,right,-0.0011453628540039062,-0.15357275211881527,-1.7744091351240872,-9.527407526683806,-0.05911076794235625,-0.10831035673618317,0.00890110433101654,1.5001212154753505,0.01960904896259308
1746231704190730200,1.353730224609375,-0.18740515420280798,-0.15107204020023346,-0.10545948643826783,-0.0951387882232666,0.17798933942531445,0.9764151089325038,0.3456653572884139,right,-0.0012552142143249512,-0.1587733992671952,-1.804096709640324,-9.513756602472066,-0.06173902042281911,-0.14197908341884613,-0.00770704448223114,1.5505014494083822,0.006902620196342468
1746231704230730200,1.393730224609375,-0.19321197397053874,-0.13329139351844788,-0.1083977217947047,-0.11747698485851288,0.17474172129905846,0.9765573477407822,0.33830300861702084,right,0.010165214538574219,-0.16291242487129082,-1.858062400844693,-9.4967405857414,-0.06364682190082228,-0.06877447664737701,-0.014616340398788452,1.590567502336949,-0.007446914911270142
1746231704270730200,1.433730224609375,-0.19653479262448384,-0.11330513656139374,-0.10995241360157212,-0.10314258933067322,0.17318981973193284,0.976649762487034,0.3348637652204084,right,0.007285714149475098,-0.16343961228639092,-1.889444065927714,-9.48969066722989,-0.06380366021516062,-0.005605220794677734,-0.017944127321243286,1.5956687709987163,-0.01334698498249054
1746231704310730200,1.473730224609375,-0.20095540093782707,-0.08646029233932495,-0.11183169745681586,-0.07909006625413895,0.17150172362996566,0.9768138431661377,0.3313052098082127,right,0.012608349323272705,-0.16130306252279467,-1.9320517661631107,-9.484564410257338,-0.06257376110113667,0.056905537843704224,-0.007912486791610718,1.574991893672943,-0.005096316337585449
1746231704350730200,1.513730224609375,-0.20377658845780244,-0.08729053288698196,-0.1127308025685517,0.021295521408319473,0.1696073102396821,0.9771897484637101,0.3276698317353181,right,0.015077650547027588,-0.15655369460265742,-1.9602935257852077,-9.486294595050811,-0.060210948946946515,0.07367919385433197,0.007543459534645081,1.5290034649580717,0.006583809852600098
1746231704390730200,1.553730224609375,-0.2030182655208568,-0.1144544705748558,-0.112105627186296,0.06697546690702438,0.16815630731485634,0.9775668577385043,0.32494899207927447,right,0.006041347980499268,-0.15429342975352217,-1.9537910120233892,-9.491139112472533,-0.059320456575477284,0.03299997001886368,0.012182608246803284,1.507105083013326,0.012053951621055603
1746231704430730200,1.593730224609375,-0.20016184415144098,-0.16629865765571594,-0.11043600037506998,0.08511766046285629,0.16469687158697555,0.9783356812095239,0.31813026305315045,right,-0.013785779476165771,-0.15336200427197874,-1.9269506436318158,-9.498052837383746,-0.05948091689573214,-0.038505710661411285,0.007159903645515442,1.4980787498623132,0.00755058228969574
1746231704470730200,1.633730224609375,-0.19889359243692784,-0.13941505551338196,-0.10973707050882235,0.060761310160160065,0.16184253712497404,0.9788247342958956,0.31225829729886906,right,-0.008928537368774414,-0.15468297781325027,-1.914510556514561,-9.498540913161635,-0.060555589776850265,-0.05128878355026245,0.002485513687133789,1.5108797792464495,-0.0010204017162322998
1746231704510730200,1.673730224609375,-0.19763282962450154,-0.11253143846988678,-0.10903700347640062,0.03640495613217354,0.15898663621088424,0.9793037639925193,0.30638687444916796,right,-0.004077136516571045,-0.15601123173281214,-1.9021378355450926,-9.498970536750555,-0.061629639559874896,-0.06407185643911362,-0.0021819770336151123,1.5237486131697893,-0.009598329663276672
1746231704550730200,1.713730224609375,-0.1972206658531011,-0.008442379534244537,-0.10890067800724292,-0.015695128589868546,0.15723760239945256,0.9795059959777382,0.30261834726522324,right,-0.011410653591156006,-0.15857484608079614,-1.8974509929031131,-9.495891859957576,-0.06312596959821164,-0.08889579027891159,-0.009852215647697449,1.5485786646522581,-0.004153579473495483
1746231704590730200,1.753730224609375,-0.19864840177310383,0.07582810521125793,-0.10995145046340218,-0.03850783407688141,0.1579543637778685,0.9791389562676852,0.30359542995415745,right,-0.0009801387786865234,-0.16308954190388922,-1.9096074407733976,-9.486222698858379,-0.06517609059970911,-0.1006593108177185,-0.00812123715877533,1.5922813205175101,-0.0016431212425231934
1746231704630730200,1.793730224609375,-0.19956976370853224,0.10215307772159576,-0.11065706976023838,-0.04655081033706665,0.15908927769892262,0.9788010936947443,0.3056214531839529,right,0.0041310787200927734,-0.16573082402030864,-1.9175063773296772,-9.480303830203413,-0.0662874610202347,-0.08096405863761902,-0.008400529623031616,1.6178341333165764,-0.00028561055660247803
1746231704670730200,1.833730224609375,-0.20153994098665706,0.1003318503499031,-0.11196547336365557,-0.06865312904119492,0.16115656444674475,0.9782382151338516,0.309447514708131,right,0.00624394416809082,-0.16874765719131535,-1.9351947403639553,-9.471682716852426,-0.06739666404205598,-0.041863638907670975,-0.007831066846847534,1.6470064517870544,0.004051610827445984
1746231704710730200,1.873730224609375,-0.20416368556244377,0.0772576630115509,-0.11352544263393513,-0.054801203310489655,0.1634521043116464,0.9776484678229279,0.31380259590519083,right,0.008399546146392822,-0.17053371529663305,-1.9594398315653203,-9.463677105051278,-0.06781394642017956,0.0017674893606454134,-0.005719780921936035,1.6642703057989476,0.00608806312084198
1746231704750730200,1.913730224609375,-0.20534958228317962,0.07796137779951096,-0.11419545066632412,-0.03470506891608238,0.16473450162494296,0.9773698924889423,0.31633876500140423,right,0.009320735931396484,-0.17059565041925723,-1.9706402938850223,-9.461246078512072,-0.067602615298381,0.025400782003998756,-0.004862695932388306,1.6648688562139868,0.006372779607772827
1746231704790730200,1.953730224609375,-0.20530163891279934,0.08062664419412613,-0.1142544018934497,0.022743675857782364,0.16658171916573014,0.9770860058911619,0.32017914131316594,right,0.010849952697753906,-0.16996331027914888,-1.9704009321711957,-9.46236894506216,-0.06707741076706959,0.04827246814966202,0.0005836337804794312,1.6587573875963686,0.0032869577407836914
1746231704830730200,1.993730224609375,-0.20248529488059774,0.07483377307653427,-0.11291162080210113,0.07030020654201508,0.16850953833805404,0.9769605098031259,0.32444647579418323,right,-0.000994861125946045,-0.16851117614185926,-1.9442261880815028,-9.470230179956555,-0.06635960640150615,0.0499272346496582,0.005688279867172241,1.6447202405460177,0.006827130913734436
1746231704870730200,2.033730224609375,-0.2001032774161203,0.054402947425842285,-0.11177029789751922,0.07334798574447632,0.1694824426475477,0.9769404866264528,0.32665812860955884,right,-0.004845619201660156,-0.16784153018842612,-1.9218809391520917,-9.475911732724308,-0.06610863056926128,0.033032022416591644,0.010303705930709839,1.6382459299653767,0.0072899311780929565
1746231704910730200,2.073730224609375,-0.19704687842802734,0.02369956485927105,-0.11028310901310767,0.06451370567083359,0.17020721554959006,0.9769949095924935,0.3284064738803171,right,-0.006085336208343506,-0.1671651985017182,-1.8931264077022671,-9.482826042157411,-0.06593983897607407,0.0286911278963089,0.012312337756156921,1.6317061529330907,0.0033470094203948975
1746231704950730200,2.113730224609375,-0.19429862633503472,-0.03272746503353119,-0.10886954976423176,0.028248321264982224,0.17006268984127476,0.9771926174999103,0.3283722872551973,right,-0.009806513786315918,-0.16625943527411272,-1.8673427087567747,-9.489439322817326,-0.06573178676196861,0.011094472371041775,0.013452321290969849,1.6229468001551925,0.004222214221954346
1746231704990730200,2.153730224609375,-0.19482288965064734,-0.054505813866853714,-0.10900382499056595,-0.016294531524181366,0.16886501735593565,0.9773973126397713,0.3259317976204178,right,-0.0066779255867004395,-0.16571504006770374,-1.872488108821213,-9.489324756526946,-0.06555356267781834,0.011331816203892231,0.008651763200759888,1.6176815731033682,-0.0025889426469802856
1746231705030730200,2.193730224609375,-0.1964786350956762,-0.06267151236534119,-0.10964110400784725,-0.04086320847272873,0.16763658426584993,0.9775760370290891,0.3234073928482919,right,-0.0009028911590576172,-0.16453909040284634,-1.888567575354129,-9.488070372551679,-0.0649759909813011,0.029338914901018143,0.0060083866119384766,1.6063061926081776,-0.008165955543518066
1746231705070730200,2.233730224609375,-0.1986144563823953,-0.056595150381326675,-0.1104703406293416,-0.049049798399209976,0.16652171468752602,0.9777375053589624,0.32114708079367904,right,-0.0022554993629455566,-0.1626613859952638,-1.9094198092468082,-9.486955104786157,-0.06400164174034982,0.03741252422332764,0.0023492127656936646,1.5881380832329393,-0.008057042956352234
1746231705110730200,2.273730224609375,-0.20065819800847137,-0.025539198890328407,-0.11128657732874184,-0.04496271535754204,0.16586185295708847,0.9778230837833739,0.3198282635160933,right,-0.002030313014984131,-0.16078424908608963,-1.92939540643543,-9.485937452176213,-0.0629848056506223,0.03018462285399437,0.0005558580160140991,1.5699699738577007,-0.004567325115203857
1746231705150730500,2.31373046875,-0.20223123847203767,0.00034371577203273773,-0.11195817478885114,-0.030109966173768044,0.16574594358086917,0.977811428441563,0.31959664291730655,right,0.000052094459533691406,-0.15958071431839296,-1.9446929288104176,-9.484735090649128,-0.06227736359556822,0.016373421996831894,0.0006116479635238647,1.5583184067696332,-0.0025272220373153687
1746231705190730200,2.353730224609375,-0.2030325936130025,0.01856703869998455,-0.1123432187304207,-0.015790965408086777,0.1660422510466122,0.9777336499571936,0.3201813063408463,right,0.0021108388900756836,-0.159248782525395,-1.9523972195774315,-9.483679444116353,-0.06201540547016653,-0.0006547048687934875,0.00042350590229034424,1.555104559289664,-0.00047178566455841064
1746231705230730200,2.393730224609375,-0.2032264733204913,0.027867719531059265,-0.11249841993841111,-0.0016627814620733261,0.16652363064502482,0.9776253265347864,0.32111652315161004,right,0.002395153045654297,-0.15966648635892616,-1.954104608017206,-9.482664129593967,-0.062151444953203454,-0.01355550717562437,0.0004454702138900757,1.5591488662444055,0.001692846417427063
1746231705270730200,2.433730224609375,-0.203006970814214,0.028209101408720016,-0.1124884698710843,0.010789904743432999,0.16704323026922122,0.9775127856542082,0.3221154010030869,right,0.004590272903442383,-0.1605445960343704,-1.9517462083227932,-9.48174818379283,-0.06254391250396152,-0.01632753387093544,0.001175805926322937,1.5676500064775347,0.001431584358215332
1746231705310730200,2.473730224609375,-0.20243373511855295,0.020068179816007614,-0.11230104339765955,0.01272829994559288,0.16746279394420246,0.9774344943826109,0.32293192753283423,right,0.003035247325897217,-0.1614323832080382,-1.9460300226330756,-9.481498008424044,-0.06298101724605285,-0.012742441147565842,0.00024788081645965576,1.5762436472997068,0.0018201619386672974
1746231705350730200,2.513730224609375,-0.20181732517697917,0.011857313103973866,-0.1120508586839548,0.011868192814290524,0.16774494818194824,0.9773998828728024,0.32351083119111973,right,0.0014676451683044434,-0.1618652533357485,-1.940048317874968,-9.48202641621232,-0.06321231902130434,-0.00019930023699998856,-0.0021146684885025024,1.580433354074508,0.0017492622137069702
1746231705390730200,2.553730224609375,-0.20143471091862278,0.00801301933825016,-0.11187454923476664,0.0023178765550255775,0.16795468358562035,0.9773852100552092,0.32396916172273044,right,0.00025272369384765625,-0.16181499147197384,-1.9364359725967049,-9.48284591590166,-0.06319414393187105,0.006364591419696808,-0.002112865447998047,1.5799468857318162,0.0024740099906921387
1746231705430730200,2.593730224609375,-0.20127015175383103,0.0030060368590056896,-0.1117811784957983,0.0036073841620236635,0.16809392923995037,0.9773818702231345,0.3242914680154607,right,0.0016699433326721191,-0.1615107764069602,-1.9349714530020952,-9.483635020452738,-0.06304088128440348,0.007922356948256493,-0.0005431920289993286,1.57700235671252,0.002832472324371338
1746231705470730200,2.633730224609375,-0.20112159331821633,-0.0008653455879539251,-0.11169451195612191,0.005264991894364357,0.1681393653350488,0.9773910224400668,0.3244147325449524,right,0.0006559491157531738,-0.1612747659480121,-1.9336369895279406,-9.484286762359737,-0.06293083782291725,0.004000336863100529,-0.0012779980897903442,1.5747180451676248,0.0043008774518966675
1746231705510730200,2.673730224609375,-0.2008609504677877,-0.005312091670930386,-0.1115625972758903,0.009791446849703789,0.16809236628496466,0.9774133826792799,0.3243377897663281,right,-0.0002490878105163574,-0.16124697686030526,-1.9311735220238566,-9.484833290326595,-0.06294342407106344,-0.0018659047782421112,-0.001204162836074829,1.5744490189678966,0.0054378509521484375
1746231705550730200,2.713730224609375,-0.20033083836798554,-0.009153882972896099,-0.111308806241756,0.014679193496704102,0.167917077095204,0.9774616587910919,0.32399477569230384,right,-0.0006399154663085938,-0.16145864347781322,-1.9260789753638208,-9.485528871375323,-0.06311078769582694,-0.008095980621874332,-0.003067225217819214,1.576497768191248,0.003920897841453552
1746231705590730200,2.753730224609375,-0.19981176446359214,-0.007151961792260408,-0.11106910065343178,0.01319479662925005,0.16771542643293838,0.9775080309173233,0.323584806502096,right,-0.0016244053840637207,-0.16181351131336613,-1.921043757675588,-9.48597836870849,-0.06335103365854705,-0.010070348158478737,-0.003390878438949585,1.579932564945519,0.0016924738883972168
1746231705630730200,2.793730224609375,-0.19940616553399607,-0.0035563893616199493,-0.11087723825307699,0.009843511506915092,0.16757192161125173,0.9775447046168636,0.3232998280559339,right,-0.00035393238067626953,-0.16201667032409572,-1.9171325755812227,-9.486441894567012,-0.06350040510663235,-0.0005629044026136398,-0.002731531858444214,1.5818987504519522,-0.0006897598505020142
1746231705670730200,2.833730224609375,-0.19914493562500585,0.006130635738372803,-0.11074735528733354,0.005760093219578266,0.16760141793923988,0.9775552983921518,0.32338267864476206,right,-0.000044345855712890625,-0.16195302717180293,-1.9146742226436733,-9.48704102950394,-0.06348651370345819,0.005495247431099415,-0.0016276240348815918,1.5812828105106949,-0.00045621395111083984
1746231705710730200,2.873730224609375,-0.19902748651048802,0.010992763563990593,-0.11070722003522677,0.0012063435278832912,0.1677967192647321,0.9775252432111906,0.3237847328159261,right,-0.0025926828384399414,-0.1620123615594704,-1.9135414192214608,-9.48717430049479,-0.06350318068108857,-0.003623746335506439,-0.0009962469339370728,1.5818571032673119,0.0014728009700775146
1746231705750730200,2.913730224609375,-0.1993136379988343,0.013450984843075275,-0.11088770808519434,-0.014407718554139137,0.16804249130282545,0.9774548101683803,0.32423910263133354,right,-0.002581775188446045,-0.1623569921333482,-1.916148094588518,-9.486091181433201,-0.0636228673309075,-0.006291021592915058,-0.0006703287363052368,1.5851923851698637,-0.0012775808572769165
1746231705790730200,2.953730224609375,-0.20020660050794303,0.010910079814493656,-0.11136377254668851,-0.029869576916098595,0.16832110565934358,0.977349198456952,0.3247233244195976,right,-0.0012416839599609375,-0.16267577776296288,-1.924517425135523,-9.483880519646405,-0.0636770805550562,-0.003559771226719022,-0.0013034939765930176,1.588277345573157,-0.0012907683849334717
1746231705830730200,2.993730224609375,-0.20158415433733515,0.008074295707046986,-0.11206696915719838,-0.032493606209754944,0.16856152233664404,0.9772287962206455,0.3251050015904579,right,0.00033676624298095703,-0.16291088898309233,-1.9375053553938864,-9.480854449823498,-0.06365493896492176,-0.002689459826797247,-0.0003870725631713867,1.590552597028762,-0.000467643141746521
1746231705870730200,3.033730224609375,-0.20263628634479128,0.012252184562385082,-0.1125884785366796,-0.021098017692565918,0.16875194552951603,0.9771441143250478,0.3254295877903649,right,0.00022751092910766602,-0.16287310753772197,-1.9474914734877644,-9.478869413486123,-0.06352947527457518,0.003240996040403843,-0.0007061809301376343,1.590186978586763,-0.00036926567554473877
1746231705910730200,3.073730224609375,-0.20341833409895013,0.016041453927755356,-0.11299601452463623,-0.01993769034743309,0.16906286700129802,0.9770467970058047,0.32600690681533523,right,0.0012343525886535645,-0.16296671228758416,-1.9548736926935613,-9.477197680881618,-0.06347672422147317,-0.0017703394405543804,0.0000674128532409668,1.591092841385305,0.00128878653049469
1746231705950730200,3.113730224609375,-0.2038875726283754,0.013875214383006096,-0.11326513486978848,-0.012572750449180603,0.16938968693954182,0.9769553421984983,0.3266217442624902,right,0.0008080601692199707,-0.16323317603639878,-1.9592346643820404,-9.475863801929354,-0.0635327691568459,-0.004158074967563152,0.00024643540382385254,1.5936711674407125,0.001902565360069275
1746231705990730200,3.153730224609375,-0.20426066790748665,0.010812721215188503,-0.11348236832357664,-0.010223600082099438,0.16963191500272015,0.9768831974110163,0.3270692264690427,right,0.001461327075958252,-0.16350452095083406,-1.962682174487412,-9.474708202153444,-0.06360868796718665,-0.0015200302004814148,0.0004432201385498047,1.5962966936387122,0.0021856725215911865
1746231706030730200,3.193730224609375,-0.20454407462919286,0.008781010285019875,-0.11364834420036907,-0.005388109479099512,0.16983140567520508,0.9768256190153193,0.32744090353078414,right,0.00039637088775634766,-0.16370968850081125,-1.9653006864227354,-9.473830834797024,-0.06366402003950433,-0.0019138114294037223,0.0007512569427490234,1.59828187610656,0.00281485915184021
1746231706070730200,3.233730224609375,-0.2047340106554309,0.006775297224521637,-0.11376647423738448,-0.005135695915669203,0.17003662070539452,0.9767733076452884,0.327833742267358,right,0.0005697011947631836,-0.16387722508311892,-1.967045630393922,-9.473195459502936,-0.063707600972594,0.0007925514364615083,-0.000032007694244384766,1.5999029014371335,0.002324223518371582
1746231706110730200,3.273730224609375,-0.20510234947925732,0.007043587975203991,-0.11395085869244098,-0.011726396158337593,0.17021037665007066,0.9767274587676164,0.328172842773656,right,0.0007311701774597168,-0.16379522110686554,-1.970561529560387,-9.472598662653565,-0.06361680414908401,0.008045973256230354,-0.0006308108568191528,1.599109412971884,0.0011580735445022583
1746231706150730500,3.31373046875,-0.20552192387623577,0.006774574518203735,-0.11413486885929608,-0.01519398670643568,0.1703924700704668,0.9766916657259809,0.32855697958859004,right,-0.00033736228942871094,-0.1633649525665577,-1.9746759791418909,-9.472443179830908,-0.06334846054527236,0.013659035786986351,-0.0020009130239486694,1.5949463019430636,0.0016286671161651611
1746231706190730200,3.353730224609375,-0.2060268930323692,0.010319322347640991,-0.11435715180063702,-0.01243133656680584,0.17061143246058044,0.9766479270939713,0.3290180466430889,right,0.0015957951545715332,-0.16286001619638737,-1.9796235185466706,-9.472232167428732,-0.06303180441040776,0.01263398677110672,-0.0013601481914520264,1.5900602834671735,0.0013359934091567993
1746231706230730200,3.393730224609375,-0.206300023090258,0.015270584262907505,-0.11447168492387867,-0.004527556709945202,0.17088467636098323,0.9766056496011414,0.3296035128805095,right,0.0009191036224365234,-0.1623771313960459,-1.9823677026882767,-9.47244142626524,-0.06273853199051478,0.014307161793112755,-0.0021894872188568115,1.5853873232200741,-0.000013947486877441406
1746231706270730200,3.433730224609375,-0.2063285708102647,0.014921674504876137,-0.11448071047960162,-0.00021717092022299767,0.1712423041446915,0.9765565886882105,0.33036770616059635,right,-0.0007605552673339844,-0.16200396013542862,-1.9827591862238942,-9.472963404312729,-0.06250962291386737,0.0079502547159791,-0.0022684186697006226,1.581775708594173,0.0017123669385910034
1746231706310730200,3.473730224609375,-0.2063289583432622,0.00988365150988102,-0.11449047321871948,-0.0003024589968845248,0.1715346246157795,0.9765102024353082,0.33097738363933815,right,-0.0002111196517944336,-0.161881768289324,-1.982802440843731,-9.47315162036121,-0.06241486030654028,0.00517464242875576,-0.0017196685075759888,1.5805930746808647,0.0012889057397842407
1746231706350730200,3.513730224609375,-0.20634832884739662,0.009067883715033531,-0.1144899451657323,-0.0024254568852484226,0.17174314713122668,0.9764850855403782,0.3314312449609553,right,0.000972747802734375,-0.1615708730156086,-1.9830865184821187,-9.4735941034317,-0.06223499616663669,0.01868380792438984,-0.0040647536516189575,1.5775841021232306,-0.0019146203994750977
1746231706390730200,3.553730224609375,-0.2065349489485231,0.011127918027341366,-0.11452018117522313,-0.00840255618095398,0.17203909669041662,0.976465792461187,0.3321209497907882,right,0.002078413963317871,-0.16051335663900146,-1.9851954734601078,-9.474851410016417,-0.06166170344339837,0.03744294121861458,-0.004050061106681824,1.5673475163996218,-0.002013102173805237
1746231706430730200,3.593730224609375,-0.2068226483991934,0.009585104882717133,-0.11455342866346814,-0.009429450146853924,0.17234858044947288,0.9764630931467211,0.3328883363710259,right,0.0021172165870666504,-0.15883733317089324,-1.9884579823873936,-9.476837030875682,-0.060772415248678074,0.04910477250814438,-0.004237189888954163,1.5511204580895601,-0.001681983470916748
1746231706470730200,3.633730224609375,-0.2072509169598708,0.010073676705360413,-0.11463996368150667,-0.015154150314629078,0.17266339369182732,0.9764589360598839,0.33367638398926,right,0.0005993247032165527,-0.15696680571207056,-1.9931098998464643,-9.478807454165816,-0.05977454426894131,0.048297181725502014,-0.005107760429382324,1.533005101814866,-0.001811891794204712
1746231706510730200,3.673730224609375,-0.20778235841513903,0.008468360640108585,-0.11477602597050826,-0.010932311415672302,0.17295458347240908,0.9764517474224492,0.33440903233528124,right,0.00020867586135864258,-0.1551168841567205,-1.9987286165110765,-9.480505490255355,-0.05878093920424041,0.04672827944159508,-0.004436463117599487,1.5150839529380202,-0.001089632511138916
1746231706550730200,3.713730224609375,-0.20818591871612066,0.00510784424841404,-0.1148749810764431,-0.011428171768784523,0.17320767811333598,0.9764428598711333,0.33503868110461443,right,-0.00406193733215332,-0.153636231783803,-2.003015938441455,-9.481882623827456,-0.05798500075404833,0.026493588462471962,-0.0031746476888656616,1.5007364247642456,0.003439679741859436
1746231706590730200,3.753730224609375,-0.2086604095180217,-0.0016229539178311825,-0.11505848211098449,-0.009454549290239811,0.17326066634021256,0.9764339022556962,0.3351799439412427,right,-0.0030799508094787598,-0.15297287142925634,-2.00772060900107,-9.481903082093597,-0.0576110365741396,0.009229408577084541,-0.0031431913375854492,1.4943074146300552,0.0025078505277633667
1746231706630730200,3.793730224609375,-0.209075524204997,-0.00958240032196045,-0.11523964666205892,-0.009730331599712372,0.17315694648167904,0.9764379385911093,0.33496079219959485,right,-0.00047272443771362305,-0.15278002765307908,-2.011716254508495,-9.481350708907842,-0.05749329645307601,0.004191735293716192,-0.003516867756843567,1.49243825975731,0.0007003992795944214
1746231706670730200,3.833730224609375,-0.2094193638970394,-0.01687902770936489,-0.11534863290580295,-0.004975752905011177,0.1729078423844516,0.9764858688516614,0.3344833634867371,right,0.0032865405082702637,-0.15220555315949377,-2.015154120002687,-9.481495670336484,-0.0572098334962578,0.027092669159173965,-0.0038863569498062134,1.4868699581056832,-0.003567814826965332
1746231706710730200,3.873730224609375,-0.20955509187186533,-0.0335097461938858,-0.11524193803166828,-0.004409711342304945,0.17249584471581267,0.9766254963825921,0.333812907090047,right,-0.0025184154510498047,-0.15024601443749697,-2.0170431486196816,-9.484053538125753,-0.056277390576891594,0.05555619299411774,-0.004842206835746765,1.4678728505603968,0.002651408314704895
1746231706750730200,3.913730224609375,-0.20994836308085782,-0.04411281272768974,-0.11514900321150193,-0.012347215786576271,0.17181224021609443,0.9768452853335895,0.33269144861791455,right,-0.004470944404602051,-0.14700833071939137,-2.021752787615359,-9.487858191105722,-0.05472277815613295,0.08403056859970093,-0.004778310656547546,1.4364720423854886,0.004031196236610413
1746231706790730200,3.953730224609375,-0.2107397570984943,-0.05973314493894577,-0.11519151137955994,-0.014585670083761215,0.1709504909767791,0.977095867544383,0.3312488803486903,right,-0.00028765201568603516,-0.14310380072355267,-2.0304184707604347,-9.49166752026081,-0.052825819482714906,0.09335289150476456,-0.0024486929178237915,1.3985837718874214,0.005784466862678528
1746231706830730200,3.993730224609375,-0.21164473018015456,-0.06765999644994736,-0.11526681529761545,-0.01736002042889595,0.16989937449012824,0.9773755637374426,0.32943715754663705,right,-0.001317143440246582,-0.13899616497386338,-2.040196937453002,-9.49536228312552,-0.050841004754565246,0.08638777583837509,-0.002604380249977112,1.3587016972236334,0.0065641701221466064
1746231706870730200,4.033730224609375,-0.21259422069480496,-0.0681176632642746,-0.11540954121789046,-0.016158219426870346,0.16873175262147783,0.9776457807975156,0.32732957548846886,right,-0.0017393231391906738,-0.13552969710333254,-2.050193284679949,-9.497968081709741,-0.04918379603178053,0.06473609805107117,-0.0024096667766571045,1.3250270988978445,0.006107047200202942
1746231706910730200,4.073730224609375,-0.21341783156205196,-0.059773147106170654,-0.11557960701485365,-0.010254668071866035,0.1675701247657622,0.9778793336800858,0.3251357389444833,right,-0.0012385249137878418,-0.1332031348576423,-2.0586625684700905,-9.499263382217288,-0.04810112917343761,0.03088928386569023,-0.002986893057823181,1.302416915421933,0.0026895254850387573
1746231706950730200,4.113730224609375,-0.2139559398701081,-0.03823360055685043,-0.11571413514014076,-0.007910889573395252,0.16661506518568683,0.9780497205144446,0.3232617890519344,right,-0.0014758706092834473,-0.1321093568525413,-2.064075095038116,-9.499540445592999,-0.04762844477898733,0.00661778450012207,-0.004733622074127197,1.291784900639951,-0.0017888247966766357
1746231706990730200,4.153730224609375,-0.21424205683405098,-0.015991970896720886,-0.11581408276108165,-0.0027527213096618652,0.1660431814632944,0.9781368397075432,0.3220939476499173,right,-0.0005882978439331055,-0.13194961630439653,-2.066836960966885,-9.499151154014468,-0.047593945427931175,-0.006120352074503899,-0.005630940198898315,1.2902319721095263,-0.006259992718696594
1746231707030730200,4.193730224609375,-0.21436637473391318,0.007510345429182053,-0.11589658941069744,-0.006805539131164551,0.1659628777776583,0.9781323071911536,0.32188981913775466,right,-0.0006240606307983398,-0.13229917692654525,-2.067921687463671,-9.498452650356292,-0.047766805425084526,-0.01174912042915821,-0.006704449653625488,1.2936300901152193,-0.00618019700050354
1746231707070730200,4.233730224609375,-0.21458906150746257,0.023479489609599113,-0.11607107747271167,-0.0042284270748496056,0.166297583262416,0.9780411965937099,0.32249826990439984,right,0.0012194514274597168,-0.13296963002758758,-2.0698516326129437,-9.497142736801505,-0.0480416671864567,-0.0192911084741354,-0.004062339663505554,1.3001473630547522,-0.003410160541534424
1746231707110730200,4.273730224609375,-0.2144142656800587,0.025263063609600067,-0.11608548464616451,0.007367119193077087,0.16678569748713842,0.9779334915287505,0.32340598710084056,right,0.0021073222160339355,-0.13399253816345655,-2.067907512807846,-9.49619990299344,-0.048504909265392374,-0.026728050783276558,-0.001943156123161316,1.310089349745959,0.0002119988203048706
1746231707150730500,4.31373046875,-0.21366603044098048,0.015933196991682053,-0.11582413071804622,0.025749631226062775,0.16710226221636038,0.9778800431187592,0.32397629856674875,right,0.0032716989517211914,-0.1351785344865804,-2.0604706408053635,-9.4962191922158,-0.049115569477727605,-0.0274786539375782,-0.0004337728023529053,1.3216148062363267,0.00020705163478851318
1746231707190730200,4.353730224609375,-0.21232895838801344,0.002752121537923813,-0.11526443267024974,0.04242268204689026,0.16717449201751847,0.9778987844946225,0.3240767864640327,right,0.00219118595123291,-0.13637628840835656,-2.0474366794481873,-9.49741161687076,-0.049808530652800394,-0.028740327805280685,0.001509159803390503,1.3332526370599864,0.0027818530797958374
1746231707230730200,4.393730224609375,-0.21051576315262938,-0.01386946253478527,-0.11445535186336384,0.054895635694265366,0.16691615701508056,0.9779984945626264,0.3235279802475736,right,0.0009453892707824707,-0.13757136370669698,-2.0298782264038917,-9.499543368202447,-0.05057724350010786,-0.03302709013223648,0.002445325255393982,1.3448625569634138,0.003038942813873291
1746231707270730200,4.433730224609375,-0.20842421321600818,-0.02246341109275818,-0.11349040981222923,0.056435734033584595,0.16639929175255258,0.9781582951579542,0.3224755858144164,right,0.00021094083786010742,-0.1386829556490833,-2.0096943932920692,-9.50229938891232,-0.051356405441509316,-0.02777986414730549,0.002340272068977356,1.355659699179232,0.0008513480424880981
1746231707310730200,4.473730224609375,-0.20629247413734605,-0.024183044210076332,-0.11247682275188874,0.05443333834409714,0.1658117518629114,0.9783421689992949,0.3213147374526056,right,-0.0018692612648010254,-0.13946092440683736,-1.9892168379306792,-9.50552711878717,-0.05198045136595174,-0.020751897245645523,0.0028659850358963013,1.3632153752557932,0.0009889006614685059
1746231707350730200,4.513730224609375,-0.2044140161694249,-0.021606402471661568,-0.11157508505840985,0.04504861682653427,0.16524622865497876,0.9785134517958002,0.32020291955678926,right,-0.0033473968505859375,-0.1400721491743504,-1.971188137026131,-9.508429269969463,-0.052497915753462965,-0.020514782518148422,0.0018930584192276,1.369151048915088,0.000649377703666687
1746231707390730200,4.553730224609375,-0.2029986243060982,-0.01515991985797882,-0.11090313859330211,0.03184256702661514,0.16478417152253716,0.9786429972459115,0.3192807157013632,right,-0.0014862418174743652,-0.14066717693508182,-1.957563370168954,-9.51041021465361,-0.0529578045715277,-0.015176337212324142,0.002087131142616272,1.374928755533695,-0.0018455088138580322
1746231707430730200,4.593730224609375,-0.202100000972197,-0.0067444415763020515,-0.11048179127059872,0.016338422894477844,0.1645232678900342,0.9787175778973013,0.3187575763289602,right,-0.00300675630569458,-0.1410958769930883,-1.9488978331543505,-9.51158685721755,-0.05327100342023044,-0.009854571893811226,0.0010132640600204468,1.3790912820406258,-0.002416178584098816
1746231707470730200,4.633730224609375,-0.2014995687891807,0.0007352740503847599,-0.11020501627263979,0.012371641583740711,0.16445170272562923,0.9787503274172582,0.31861925991246487,right,-0.00412440299987793,-0.14137168229227004,-1.9431101896636187,-9.512382391509414,-0.05346329733349395,-0.007792886346578598,0.00014670193195343018,1.3817691229477524,0.000176355242729187
1746231707510730200,4.673730224609375,-0.20096928703410352,0.010679978877305984,-0.1099824224274099,0.00926943775266409,0.16451600319606266,0.9787504886296834,0.31873952861576893,right,-0.003796517848968506,-0.14181950309165156,-1.9379419932454824,-9.512804416313767,-0.05371994590758321,-0.013789013028144836,-0.00009265542030334473,1.3861167967632413,0.0012966543436050415
1746231707550730200,4.713730224609375,-0.2005091769862944,0.014653800055384636,-0.10982509310721879,0.011378350667655468,0.164740603134975,0.9787092163214128,0.3191566656530748,right,-0.0005764961242675781,-0.14257109177829289,-1.9333568574123083,-9.51267114532292,-0.05410354827488415,-0.01624467596411705,0.0005724579095840454,1.3934129451207815,0.0028620660305023193
1746231707590730200,4.753730224609375,-0.19989102590168473,0.006757451221346855,-0.10957891233045242,0.012012481689453125,0.16493857584259036,0.9786852572472189,0.31954133239984994,right,0.0005554556846618652,-0.14317966412835575,-1.9273074942454695,-9.513031795328855,-0.05443189112112953,-0.007904212921857834,-0.0006545782089233398,1.3993201233379542,0.004283830523490906
1746231707630730200,4.793730224609375,-0.19934339628983386,-0.007384531199932098,-0.10932648002702272,0.010545914992690086,0.16492867098530464,0.9787069803912642,0.31953305904957335,right,0.0008481740951538086,-0.14338893778889722,-1.9220394907146692,-9.513798688048123,-0.05458014877932941,-0.002047322690486908,-0.00010590255260467529,1.4013514830350875,0.005233302712440491
1746231707670730200,4.833730224609375,-0.19888473256169475,-0.019267890602350235,-0.10908456362289541,0.014988528564572334,0.16459980464978596,0.9787852046775547,0.31888640752258834,right,0.0007008910179138184,-0.14339163471731653,-1.9176748657643794,-9.514675470882654,-0.054654565845915916,-0.004716336727142334,0.0014621168375015259,1.401377640389651,0.0069226473569869995
1746231707710730200,4.873730224609375,-0.19833751959586385,-0.024858929216861725,-0.10879436600937502,0.018736926838755608,0.16406132906819273,0.9788994049657965,0.31780839755665824,right,-0.0004945993423461914,-0.1434861970155356,-1.9124419335469602,-9.515593170249462,-0.054804636012782876,-0.007777433842420578,0.00023977458477020264,1.4022953397564588,0.0036298781633377075
1746231707750730200,4.913730224609375,-0.19775413908113046,-0.020578177645802498,-0.10848270921664377,0.018627293407917023,0.1635164918459452,0.9790178184948986,0.31672370760262825,right,0.00024068355560302734,-0.1435349787395297,-1.906876992896199,-9.51664063347578,-0.054935263624611354,0.0010835444554686546,-0.0020411163568496704,1.4027689486175774,-0.0008739382028579712
1746231707790730200,4.953730224609375,-0.1971248373947206,-0.00968107022345066,-0.10813228934828542,0.012178527191281319,0.16319514621652254,0.9791151493493764,0.3161332487430944,right,-0.001422107219696045,-0.14318493576078353,-1.900983843204379,-9.51831938034296,-0.05484689233431477,0.010908625088632107,-0.0034292936325073242,1.3993714151337742,-0.002486899495124817
1746231707830730200,4.993730224609375,-0.1968045413091164,0.0016808053478598595,-0.10793699343344104,0.004995611030608416,0.1631279998542188,0.9791595425389469,0.3160566505793342,right,0.0005842447280883789,-0.14269736500298216,-1.8980682480186224,-9.519595976150036,-0.054637922315124154,0.00924752652645111,-0.0016439855098724365,1.3946386875234544,0.00014616549015045166
1746231707870730200,5.033730224609375,-0.19643295208230077,0.004840962588787079,-0.10774572168286295,0.011791575700044632,0.16319516498233042,0.979173427731904,0.31623106412399044,right,0.0013397932052612305,-0.14250843303716088,-1.894582013338059,-9.52055868370235,-0.05456612631659535,0.0001720283180475235,-0.00036337971687316895,1.3928047500945626,0.001432076096534729
1746231707910730200,5.073730224609375,-0.19590985278895126,-0.0024822582490742207,-0.10750155957642728,0.013471726328134537,0.16320842699844865,0.9791919631385534,0.31627482012867514,right,0.00017267465591430664,-0.14265245258811787,-1.889562577740848,-9.521351879906653,-0.05467712400776281,-0.004734513349831104,-0.00008790194988250732,1.3942027803242205,0.0002078711986541748
1746231707950730200,5.113730224609375,-0.19546747320484484,-0.014048062264919281,-0.10729115952214799,0.011131975799798965,0.163026538892529,0.9792362640281106,0.3159092143001419,right,-0.002284407615661621,-0.14286940172661716,-1.885291476292908,-9.521889640045165,-0.054839294119892905,-0.008433964103460312,-0.0006513893604278564,1.396308666562289,0.0007259100675582886
1746231707990730200,5.153730224609375,-0.19510216831213692,-0.02413816563785076,-0.10711745520115307,0.01526639610528946,0.16259051148475878,0.9793122291488553,0.3150042748216856,right,-0.002323150634765625,-0.14327239737625125,-1.8817038270644844,-9.522024664601682,-0.05511530187288513,-0.019803989678621292,-0.000032901763916015625,1.4002202870480716,0.002487778663635254
1746231708030730200,5.193730224609375,-0.19455965641709103,-0.02665829099714756,-0.10686931360149796,0.01976066827774048,0.16197916019105962,0.9794144755647685,0.3137248622549904,right,-0.0005935430526733398,-0.14398508316692166,-1.8763443458579478,-9.522062658524513,-0.05557753568399773,-0.02643720805644989,0.00017176568508148193,1.4071373729601502,0.0006984323263168335
1746231708070730200,5.233730224609375,-0.193910577828287,-0.02192562445998192,-0.10657487331287092,0.02221563458442688,0.1614068471840578,0.9795129979809357,0.31252702751613454,right,0.0004073977470397949,-0.14475440240536921,-1.869954206429422,-9.522213465172053,-0.056071525712438994,-0.02004864811897278,-0.0010678917169570923,1.4146033249266445,-0.0013404488563537598
1746231708110730200,5.273730224609375,-0.19328833488138764,-0.016749635338783264,-0.10627414266501628,0.01509922556579113,0.16098056362678148,0.9795994155268398,0.311659289496853,right,-0.000428617000579834,-0.14514008687764657,-1.8639236940935253,-9.522839488115906,-0.056357170372207055,-0.00931125320494175,-0.0013732165098190308,1.4183458724558353,-0.0017111599445343018
1746231708150730500,5.31373046875,-0.19292412730160624,-0.014297395013272762,-0.10607740915657372,0.009399548172950745,0.1606378604461224,0.979672851261389,0.3109796274215059,right,-0.0008739233016967773,-0.14515121767214087,-1.8604522185906767,-9.523501751416921,-0.056428001754901154,-0.00021751131862401962,-0.0012306571006774902,1.4184540090054272,-0.00094623863697052
1746231708190730200,5.353730224609375,-0.19282181713398702,-0.012965286150574684,-0.1060022998817671,0.0010888976976275444,0.16030902285810178,0.9797348935952608,0.3103217226900321,right,-0.002619802951812744,-0.14506363100666259,-1.8595017859980463,-9.523814470627903,-0.056428092521841576,-0.0014650229131802917,-0.0019078850746154785,1.4176039680473507,0.0007997453212738037
1746231708230730200,5.393730224609375,-0.19306635019256602,-0.010197052732110023,-0.1061174189866798,-0.005967199802398682,0.16002198021483943,0.9797636654497767,0.30970683982637154,right,-0.0015478134155273438,-0.14523700658644198,-1.8617833210639654,-9.523117720535398,-0.056526236851823695,-0.009978299960494041,-0.003025725483894348,1.419286368176341,-0.000392034649848938
1746231708270730200,5.433730224609375,-0.1936582063733914,0.0007729735225439072,-0.1064357351987888,-0.016230929642915726,0.15986659093153427,0.9797405840831963,0.3093088854079594,right,-0.0002561807632446289,-0.14577984336917005,-1.8672708125643431,-9.521256602838635,-0.056766561905701216,-0.017871595919132233,-0.0059271156787872314,1.4245534949243068,-0.0021272748708724976
1746231708310730200,5.473730224609375,-0.19446075725385478,0.011031772941350937,-0.10689944502164737,-0.020654570311307907,0.15999028467786833,0.9796478893631009,0.30943582059934344,right,-0.00005233287811279297,-0.1466976629201978,-1.874658000206202,-9.51846843342483,-0.05714620737990935,-0.02625191956758499,-0.005837276577949524,1.4334582475222646,0.00006027519702911377
1746231708350730200,5.513730224609375,-0.19514237674030038,0.012118156999349594,-0.10734027640906796,-0.009634939953684807,0.1601973768340973,0.9795306928301496,0.3097011805747371,right,0.0008121132850646973,-0.1480592370088582,-1.8807653771705923,-9.515264668947458,-0.05774582733290009,-0.03829614073038101,-0.005927935242652893,1.4466659580111503,0.0017851293087005615
1746231708390730200,5.553730224609375,-0.19516475176074444,0.017624089494347572,-0.10747764962816679,0.0074641406536102295,0.16041711411924256,0.9794338609802289,0.31000960795748134,right,0.00174635648727417,-0.14966820669987074,-1.8805245541520417,-9.5129271659106,-0.05851724778483541,-0.03371443971991539,-0.006325885653495789,1.4622700621172784,0.000339508056640625
1746231708430730200,5.593730224609375,-0.19450371517551338,0.020023031160235405,-0.10726005176312955,0.01871747523546219,0.16073147042712357,0.9793689122380009,0.3105862720044338,right,0.005157291889190674,-0.15088827146603806,-1.8738895000517368,-9.512410448560118,-0.05913820492684399,-0.017637494951486588,-0.005751267075538635,1.4740999083817004,0.0007870793342590332
1746231708470730200,5.633730224609375,-0.1933428491996424,0.012872682884335518,-0.10675007832643713,0.03085501119494438,0.16101520662215238,0.979357840838687,0.31118856225923897,right,0.00455784797668457,-0.15144312196659435,-1.8626881609492003,-9.513775307172537,-0.05947168488167826,-0.006236601620912552,-0.003372758626937866,1.4794791172020136,0.004170551896095276
1746231708510730200,5.673730224609375,-0.19202405242356999,-0.003176523372530937,-0.10612561492183906,0.032877758145332336,0.16105941513059918,0.9794056025612681,0.3113395811936078,right,0.0017511844635009766,-0.1516727831903552,-1.8500749092221258,-9.515889522847532,-0.05968255798021683,-0.0036149160005152225,0.000861823558807373,1.4817055610798298,0.007119476795196533
1746231708550730200,5.713730224609375,-0.19076638415241276,-0.01689818501472473,-0.10550541765166305,0.030837880447506905,0.16079365608597979,0.9795044695465325,0.3108622079611181,right,-0.0009214282035827637,-0.15180899817293475,-1.8380673683032391,-9.518010752785205,-0.05987587194340551,-0.0038387770764529705,0.002435937523841858,1.4830259960286318,0.00666441023349762
1746231708590730200,5.753730224609375,-0.1897430427560839,-0.021249189972877502,-0.10497184910515496,0.024783488363027573,0.1603506248854646,0.9796297454332892,0.3100286929954287,right,-0.0017327070236206055,-0.15170811207897417,-1.8283543680623173,-9.520033783045411,-0.059952366094875316,0.0027786423452198505,0.0020389407873153687,1.4820479447767139,0.0028143227100372314
1746231708630730200,5.793730224609375,-0.18920083312871183,-0.014863438904285431,-0.10465311496975062,0.008863646537065506,0.15996545946817736,0.9797348943047905,0.3093116522409389,right,-0.0028553009033203125,-0.15127438184845346,-1.823313012894243,-9.521654077723621,-0.05982042496325628,0.012675164267420769,0.0017483830451965332,1.4778431865632533,0.001103907823562622
1746231708670730200,5.833730224609375,-0.1890601125827819,-0.0065934546291828156,-0.1045322738694925,0.0004494674503803253,0.15979346372935252,0.9797919428141529,0.3090183474952401,right,-0.0037255287170410156,-0.15068248094640557,-1.822137100982666,-9.522768176445364,-0.05955640259613348,0.012527432292699814,0.0009464919567108154,1.4721046429112552,0.002188771963119507
1746231708710730200,5.873730224609375,-0.18924734191902406,-0.0006445725448429585,-0.1045997054536737,-0.005534152500331402,0.15979083563108384,0.9797960847463002,0.309029718327119,right,-0.0018010735511779785,-0.15034435535162086,-1.8240135623790323,-9.522914891439676,-0.059374835921376545,0.0030571604147553444,0.0014438480138778687,1.468826351892948,0.0012992322444915771
1746231708750730200,5.913730224609375,-0.189506952137449,0.00313763041049242,-0.10472646118649175,-0.004427855368703604,0.1598763507443159,0.9797725511650861,0.3091946349295373,right,-0.0004035830497741699,-0.15027141535503635,-1.8265059637166559,-9.522546058127283,-0.05930964569239485,0.00023980787955224514,0.0008128434419631958,1.4681190804064272,0.0002180039882659912
1746231708790730200,5.953730224609375,-0.18960396556310377,-0.0007519582286477089,-0.10477841731678358,-0.0016584002878516912,0.15992191515328233,0.9797595246549401,0.30927958735420197,right,-0.0001755356788635254,-0.1502976355673764,-1.8274224940396844,-9.52233095407188,-0.059310313417866384,-0.0015229640994220972,0.00010980665683746338,1.468373347428441,0.000832289457321167
1746231708830730200,5.993730224609375,-0.1896575938492882,-0.004810848738998175,-0.10481529170862532,0.00244397041387856,0.15987003235077696,0.9797581033449105,0.3091540381700732,right,-0.0005438923835754395,-0.1504942102282357,-1.8278787133745849,-9.521949261277914,-0.05940911661464079,-0.008348386734724045,-0.0003563612699508667,1.4702793271802366,0.0030936449766159058
1746231708870730200,6.033730224609375,-0.18952781279292424,-0.00881466269493103,-0.10476240543263433,0.007004633545875549,0.1596961976972045,0.9797813968227127,0.30878216161863936,right,0.0007025599479675293,-0.15079281983567042,-1.8265601781219243,-9.521755200010537,-0.05958558077831057,-0.00795429851859808,-0.001310884952545166,1.473174464099854,0.0017879307270050049
1746231708910730200,6.073730224609375,-0.189337381970163,-0.011973626911640167,-0.10466303025821845,0.005864828824996948,0.1594455133812923,0.979826554902071,0.3082715791123248,right,0.000483095645904541,-0.15091853003538647,-1.8247120660372078,-9.52192061970532,-0.0596892294204965,0.002384190447628498,-0.0016014128923416138,1.4743933383703232,0.0004429370164871216
1746231708950730200,6.113730224609375,-0.1892680526210976,-0.016117993742227554,-0.10457992081334795,0.00034336838871240616,0.15915064720264405,0.9798945998684808,0.30771116425703,right,-0.0009336471557617188,-0.15047178573323544,-1.8241756210729478,-9.522693357643485,-0.059504705794459184,0.01630665361881256,-0.0007576346397399902,1.470061885037273,-0.00022931396961212158
1746231708990730200,6.153730224609375,-0.1895040820232069,-0.019951781257987022,-0.10461494989580655,-0.008684080094099045,0.1588477619744536,0.9799655242293992,0.3071523916807889,right,-0.0024901628494262695,-0.1495881093500525,-1.826667145627737,-9.523534484642743,-0.05908123809651995,0.017280632629990578,-0.00021417438983917236,1.4614933786563575,0.001978576183319092
1746231709030730200,6.193730224609375,-0.1899931762848514,-0.02616628259420395,-0.10477967712271588,-0.013101503252983093,0.15847665709030945,0.980029877301653,0.30642761436303084,right,-0.004751920700073242,-0.14884744382897858,-1.8315287603147328,-9.523700488859415,-0.05871665548433589,0.006592246703803539,0.002039209008216858,1.4543106275454163,0.0048448145389556885
1746231709070730200,6.233730224609375,-0.19082314317214627,-0.041927605867385864,-0.10512212560246088,-0.02587563544511795,0.15783025648338456,0.9801075480387088,0.30508804840619114,right,-0.005314528942108154,-0.14850103254758903,-1.8395279423750936,-9.522671145811676,-0.058551189416034655,-0.001377226784825325,0.0007219910621643066,1.45095094185397,0.00452268123626709
1746231709110730200,6.273730224609375,-0.19245157094687915,-0.05989472568035126,-0.105841024583706,-0.04451725631952286,0.15686282632169235,0.9801944712771988,0.3030396369927785,right,-0.0022614002227783203,-0.14823207719773704,-1.8551070581704376,-9.520045473483204,-0.05839901557900853,-0.00009669817518442869,-0.0001907944679260254,1.4483423667907713,0.0018274486064910889
1746231709150730500,6.31373046875,-0.1948086324564947,-0.07069704681634903,-0.10688886676539294,-0.05470135807991028,0.1555959611519766,0.9802970573190595,0.3003498299232432,right,-0.0003592371940612793,-0.14782348537840684,-1.8776555745869874,-9.516226207455992,-0.058157245669089704,-0.0005303199868649244,-0.0014328360557556152,1.4443793083786964,-0.00005042552947998047
1746231709190730200,6.353730224609375,-0.1973429802905336,-0.0591670386493206,-0.10802067560427571,-0.052521828562021255,0.15429984823517454,0.9803933459226107,0.29759347900814864,right,0.0012943148612976074,-0.14739006949204198,-1.9018895598724483,-9.512049798554182,-0.05789607579622579,-0.002502268413081765,-0.0041061341762542725,1.4401751346871257,-0.0028077363967895508
1746231709230730200,6.393730224609375,-0.19945362569259398,-0.030241426080465317,-0.10899215643577195,-0.03933543339371681,0.15338595748693587,0.9804349035712125,0.2956120997666844,right,0.002285182476043701,-0.1473059529682013,-1.9219858608312903,-9.508133501893282,-0.05779989300975282,-0.010365849360823631,-0.00681634247303009,1.4393591421291232,-0.004536271095275879
1746231709270730200,6.433730224609375,-0.2008611992738309,0.004285149276256561,-0.10967914682921143,-0.02449553832411766,0.1531173088045277,0.9803979181356113,0.2949606318192215,right,0.005082368850708008,-0.14753404780413754,-1.935301707869768,-9.50509691067636,-0.05783971216513402,-0.006198636721819639,-0.007690310478210449,1.4415717036120592,-0.006813988089561462
1746231709310730200,6.473730224609375,-0.20148083285909085,0.026788491755723953,-0.11001000537320044,-0.010818800888955593,0.15348917905385095,0.9803051318821655,0.295674303048006,right,0.0040854811668396,-0.1476278351322724,-1.9411640240319072,-9.503763031724095,-0.05779909320744327,0.007250403519719839,-0.006943538784980774,1.4424815119333565,-0.005420193076133728
1746231709350730200,6.513730224609375,-0.20150452875355424,0.02836001291871071,-0.11003890707436983,0.0038421014323830605,0.15413281410268423,0.9802141920173076,0.29701376067689494,right,0.004759490489959717,-0.1473210037907097,-1.9414777661561964,-9.504150569736957,-0.05757286188845246,0.014710169285535812,-0.0023603439331054688,1.4395051264710723,-0.0013645440340042114
1746231709390730200,6.553730224609375,-0.20110499393148323,0.009621623903512955,-0.10984528454362424,0.008824987336993217,0.15455886906576605,0.9801800769800656,0.29793793017188425,right,-0.0022052526473999023,-0.14697227000498114,-1.9377805190734565,-9.505416644150019,-0.057381595982074034,0.0036665238440036774,-0.0017664581537246704,1.4361222060345114,0.002791866660118103
1746231709430730200,6.593730224609375,-0.20082101168475988,-0.0019788965582847595,-0.10971106921277221,0.009114382788538933,0.15459008918560926,0.9801880067492325,0.2980147207644897,right,-0.00031369924545288086,-0.1470116586113662,-1.935069798810035,-9.505911149668693,-0.05741867649737354,-0.0046261148527264595,-0.00040753185749053955,1.4365043372198938,0.002177804708480835
1746231709470730200,6.633730224609375,-0.20043618904181373,-0.005334404297173023,-0.10952625697029002,0.013208860531449318,0.15443377796797136,0.9802252676031784,0.2977019667885826,right,0.002961099147796631,-0.14719422264706963,-1.9313592538543045,-9.506398056402801,-0.05755522369546871,-0.0012571970000863075,0.0005008429288864136,1.4382752924151718,-0.0012207478284835815
1746231709510730200,6.673730224609375,-0.19994538422408772,0.0009837611578404903,-0.10928686722250991,0.012624447233974934,0.1543481232149302,0.9802604224890388,0.2975489075329307,right,0.0005713701248168945,-0.14727384079466851,-1.9266705115161835,-9.507232169139385,-0.057640594703495675,-0.0045375945046544075,-0.00013338029384613037,1.4390475919619201,0.00014087557792663574
1746231709550730200,6.713730224609375,-0.19939591896789796,0.01220005378127098,-0.10905021192955018,0.013947086408734322,0.15442788425209011,0.9802607071087719,0.29770825245148497,right,0.0010089874267578125,-0.14767514274753024,-1.9213317808367312,-9.507722583004831,-0.05787143728474171,-0.01086305920034647,0.000055983662605285645,1.4429403616167604,0.00010055303573608398
1746231709590730200,6.753730224609375,-0.19869672395424126,0.024975739419460297,-0.10876976123489876,0.015239001251757145,0.15476805082379755,0.980219620778423,0.2983898440102384,right,0.00007587671279907227,-0.1482815126566219,-1.914510556514561,-9.508204229041933,-0.05818622264795772,-0.009152869693934917,0.00008814036846160889,1.4488218208707868,-0.00033536553382873535
1746231709630730200,6.793730224609375,-0.19796155231660073,0.0298930574208498,-0.10846309138955572,0.01093996874988079,0.15531499940224575,0.9801586939310359,0.2995235973250245,right,0.00012004375457763672,-0.14857464900787964,-1.9074362342141566,-9.509192655557394,-0.05832562934555691,0.0034522227942943573,-0.0004644244909286499,1.4516649353422224,-0.00031910836696624756
1746231709670730200,6.833730224609375,-0.19743309962173017,0.029972439631819725,-0.1082218264042211,0.009500606916844845,0.1559222857723167,0.9800989555419449,0.30081916449662144,right,0.0000540614128112793,-0.14829103419962547,-1.9024914712883532,-9.510602522355317,-0.05815726533853692,0.017767969518899918,-0.00020876526832580566,1.4489141753293573,-0.0001436471939086914
1746231709710730200,6.873730224609375,-0.19703124442556877,0.02502867393195629,-0.10801828425632415,0.0022151763550937176,0.15649626141373701,0.9800496211938186,0.30206722431867783,right,-0.0008957982063293457,-0.1476873810707993,-1.898840255304426,-9.51222223251164,-0.05782470929819561,0.018677275627851486,0.0005564689636230469,1.4430590195603668,0.0009544640779495239
1746231709750730200,6.913730224609375,-0.19697670573737547,0.018246497958898544,-0.1079797477311839,-0.0019425922073423862,0.15693624048513516,0.9800021942298089,0.3030165747381899,right,-0.0007134079933166504,-0.14713705503262522,-1.8984766826890407,-9.513103106999397,-0.05750745053275534,0.014019079506397247,0.004449218511581421,1.4377207272723316,0.0014307647943496704
1746231709790730200,6.953730224609375,-0.1970067133056906,0.00700733345001936,-0.10799372389751055,-0.0022800283040851355,0.15717601727719868,0.9799701049064801,0.3035229091822837,right,-0.0027036666870117188,-0.14692313039616556,-1.898822281256318,-9.513347437149285,-0.057372700879087954,-0.00028994120657444,0.004131615161895752,1.435645528433472,0.0033560991287231445
1746231709830730200,6.993730224609375,-0.19705516615912572,0.00596312340348959,-0.10804523879414493,-0.0028550841379910707,0.15725717580643597,0.9799424200591301,0.3036563402456119,right,-0.0016802549362182617,-0.14725816386986074,-1.8991889226116239,-9.512783373525739,-0.057526210397587714,-0.012775617651641369,0.002429187297821045,1.4388956162706017,0.0013044029474258423
1746231709870730200,7.033730224609375,-0.19696484848465223,0.01653350703418255,-0.10806036778064777,-0.00006683077663183212,0.15747154974042457,0.9798876214558613,0.30404001292610777,right,0.00036221742630004883,-0.14793379807285326,-1.8981391212977468,-9.511998945149779,-0.05784436122501927,-0.016401464119553566,0.0011502951383590698,1.4454492756977677,0.0010043084621429443
1746231709910730200,7.073730224609375,-0.1966932799511696,0.02361229807138443,-0.1080057883984648,0.004112841561436653,0.1578721088747701,0.9798074950308071,0.30480500528802534,right,0.000826418399810791,-0.14871925499661115,-1.8953334162272513,-9.511398056647181,-0.05821013007565922,-0.014052757993340492,0.0008967369794845581,1.4530673494860529,0.0013760030269622803
1746231709950730200,7.113730224609375,-0.19648496690701045,0.014189842157065868,-0.10797019979980557,0.0010097951162606478,0.15827317770366855,0.9797303896123377,0.3055829477738332,right,0.00020515918731689453,-0.14932862797821927,-1.893178722411394,-9.510922255828977,-0.058483789817426184,-0.008908906951546669,0.0011678487062454224,1.4589770119212566,0.0016738325357437134
1746231709990730200,7.153730224609375,-0.19654654733641952,-0.0028582578524947166,-0.10802228251689107,-0.007912194356322289,0.15840759835926752,0.9796981238884355,0.3058361014526072,right,-0.0007361173629760742,-0.14953034920922156,-1.8937069840691982,-9.510517182159424,-0.05856428393987055,-0.0005478821694850922,0.0006761699914932251,1.4609332605555652,0.0016047358512878418
1746231710030730200,7.193730224609375,-0.19706618599147693,-0.019750505685806274,-0.10825428891146906,-0.014152225106954575,0.15820219027086238,0.9797106824613739,0.30539751331447407,right,-0.00041615962982177734,-0.14939531832604175,-1.8986872566998003,-9.509725154998899,-0.05848057200279291,-0.0010027990210801363,0.00009049475193023682,1.459623785392195,0.003041014075279236
1746231710070730200,7.233730224609375,-0.19766419733377016,-0.020496206358075142,-0.10852917705535943,-0.01076342910528183,0.15778307376766548,0.979744379508895,0.3044960694482384,right,-0.0012163519859313965,-0.1495112864234207,-1.9043406062863766,-9.508421671184896,-0.05853912351908747,-0.013485080562531948,-0.0014633238315582275,1.4607484055079518,0.003661021590232849
1746231710110730200,7.273730224609375,-0.19805624944194045,-0.009411415085196495,-0.10875114020833405,-0.00784651841968298,0.15744228853104278,0.9797520776467192,0.30371186627184366,right,-0.000044345855712890625,-0.150251614888381,-1.9078550441481172,-9.506611406892537,-0.05891432287272022,-0.024488890543580055,-0.0036561042070388794,1.4679270649656653,0.0006677061319351196
1746231710150730500,7.31373046875,-0.1982131221065612,0.0070632100105285645,-0.10889212893391416,-0.0014248639345169067,0.15738738073578237,0.9797160818205257,0.3035036525105033,right,0.000488579273223877,-0.15123695479699692,-1.9090606205455958,-9.504889405405521,-0.05939710045265908,-0.02129770629107952,-0.004652813076972961,1.4774803446002305,-0.0006930381059646606
1746231710190730200,7.353730224609375,-0.19811968963078241,0.013213071972131729,-0.10891670302110561,0.00842991378158331,0.1575738899450396,0.9796583945233981,0.30381485378912865,right,0.002903759479522705,-0.15209307403290356,-1.9079228486873208,-9.503824406522511,-0.0598078463851255,-0.013313326053321362,-0.0023397207260131836,1.4857796786509454,0.0000035017728805541992
1746231710230730200,7.393730224609375,-0.197646000323208,0.006556218024343252,-0.10873976036574184,0.014244116842746735,0.1577249700335666,0.9796327237594754,0.3040949657120223,right,0.0006718039512634277,-0.15274693871030523,-1.9032295763045548,-9.50377238407433,-0.06015096528198304,-0.012860175222158432,-0.0021538585424423218,1.4921175033703447,0.0012224912643432617
1746231710270730200,7.433730224609375,-0.19699464124625707,0.007556389085948467,-0.10846876381656408,0.015705596655607224,0.15782737398733057,0.9796260529277636,0.30429271022519944,right,-0.000060558319091796875,-0.15333615346667667,-1.8968664710134266,-9.504145893561839,-0.0604808876498006,-0.013832895085215569,-0.0013977885246276855,1.4978282822325826,0.0016067326068878174
1746231710310730200,7.473730224609375,-0.1963413504606206,0.0023350873962044716,-0.10819580757993011,0.01639847829937935,0.15788630440318055,0.9796252985272098,0.3044002263049375,right,0.0006289482116699219,-0.15394853715525336,-1.8904777928896248,-9.50448199364841,-0.060827279821278876,-0.011861655861139297,-0.0005049705505371094,1.5037629329785704,0.0023581087589263916
1746231710350730200,7.513730224609375,-0.19586533635019607,0.0010710074566304684,-0.10799130670808,0.00752129964530468,0.15787393787565018,0.9796347173435737,0.30436869840163483,right,-0.001185595989227295,-0.15436277589593214,-1.8858318667799234,-9.504768993896246,-0.06106993526099523,-0.005440447945147753,-0.0009314119815826416,1.507777137055993,0.0024263709783554077
1746231710390730200,7.553730224609375,-0.1958161350342411,0.0017273789271712303,-0.1079846965174955,-0.002459600567817688,0.15788998286107622,0.979625332948042,0.30438392670682857,right,-0.001361072063446045,-0.15460085184022915,-1.8852942527718841,-9.504509466177225,-0.061189883633276786,-0.003697871696203947,-0.0012281090021133423,1.5100839526936412,0.0047850459814071655
1746231710430730200,7.593730224609375,-0.19606070586260352,0.008760390803217888,-0.10813164623948664,-0.009809441864490509,0.1579982375027363,0.9795842083055747,0.3045634547008517,right,-0.0007068514823913574,-0.15490384358432913,-1.887529610608518,-9.503598781073093,-0.061309622421179155,-0.006462106481194496,-0.0007788240909576416,1.5130198600150644,0.004488170146942139
1746231710470730200,7.633730224609375,-0.19643017248586903,0.013183411210775375,-0.10834798126063828,-0.016047589480876923,0.1582646982901377,0.979512119299591,0.3050599740515573,right,-0.0005237460136413574,-0.1551853394659699,-1.890957539230585,-9.502482344263791,-0.061391733021601155,0.0001816311851143837,-0.0017558634281158447,1.5157472391523419,0.0027785301208496094
1746231710510730200,7.673730224609375,-0.19698778782367102,0.016078999266028404,-0.10863694556767621,-0.016878599300980568,0.1586194055832392,0.9794302184817499,0.3057559575351574,right,0.00021082162857055664,-0.1551091725407129,-1.8962785881228743,-9.501540094977617,-0.061272413478013474,0.01170047465711832,-0.0013635754585266113,1.5150092802666126,0.0014873892068862915
1746231710550730200,7.713730224609375,-0.19765668104297066,0.011193052865564823,-0.10894467144872295,-0.022542288526892662,0.15893391263043674,0.9793674316670723,0.3064045357317859,right,-0.0003834366798400879,-0.15455746359955325,-1.9027974684976041,-9.501087675034999,-0.06091321983821014,0.01995466649532318,-0.002690643072128296,1.509663535324484,0.0015678554773330688
1746231710590730200,7.753730224609375,-0.19851016772433802,0.0043771411292254925,-0.10931608558336561,-0.020812949165701866,0.15917374350046246,0.9793192407874979,0.3069168975126638,right,0.0012930631637573242,-0.15369569481548187,-1.911161684478074,-9.500731701204181,-0.06039440139488594,0.0226556695997715,-0.0014877617359161377,1.5013126172170042,0.002207458019256592
1746231710630730200,7.793730224609375,-0.19921574148945545,-0.0013554394245147705,-0.10960507600520179,-0.013774055987596512,0.15926698510234155,0.97930242043442,0.30714116106228034,right,0.0010491013526916504,-0.15281855261029234,-1.9181245092280208,-9.500667988318204,-0.059895439875484055,0.01913527026772499,-0.001240745186805725,1.4928116231143473,0.0012269765138626099
1746231710670730200,7.833730224609375,-0.1995679156805796,-0.002257321961224079,-0.10973640717917399,-0.004713329486548901,0.15927628785859824,0.9793057207363562,0.3071908086314392,right,0.0009360313415527344,-0.15222806860077923,-1.9216446461781858,-9.500854450801015,-0.059574855884327135,0.009145182557404041,-0.0011266469955444336,1.4870882770314813,0.0007740706205368042
1746231710710730200,7.873730224609375,-0.19955899046939463,-0.0022700957488268614,-0.1097086405836646,0.005089331418275833,0.15922688149237585,0.9793253483750458,0.30711641665842343,right,0.0003180503845214844,-0.15193449324587727,-1.9216463997438549,-9.501299271959066,-0.059435556019011945,0.004959111101925373,-0.0019331425428390503,1.484242532211542,-0.0005024820566177368
1746231710750730200,7.913730224609375,-0.1991743621987088,-0.0002491797786206007,-0.10950763120070778,0.010766368359327316,0.159198814953048,0.9793554876795717,0.30709724921415094,right,-0.00041741132736206055,-0.15176680630366055,-1.9180409225977957,-9.50228126873374,-0.059384920249658725,0.004104063846170902,-0.0017552226781845093,1.4826169768363235,-0.0012991875410079956
1746231710790730200,7.953730224609375,-0.19856942225173047,0.006028973497450352,-0.10919812305433135,0.014669675379991531,0.15924702252571693,0.9793871866890884,0.3072542418295396,right,-0.000026941299438476562,-0.15151829178746293,-1.912364922787994,-9.503801025646924,-0.05930251708219756,0.007543317507952452,-0.0017946809530258179,1.4802078698679804,-0.0009304136037826538
1746231710830730200,7.993730224609375,-0.1979720799428467,0.012694450095295906,-0.10890757017984658,0.01639477163553238,0.15942995097004709,0.9793926233884118,0.3076767825023591,right,0.00030744075775146484,-0.15137213822897774,-1.9067301317714154,-9.50515360929966,-0.05925532929565634,0.004226554185152054,0.00008715689182281494,1.47879098880738,0.00532706081867218
1746231710870730200,8.033730224609375,-0.19718669985352547,0.006729471497237682,-0.10851950426814591,0.016862355172634125,0.15962608585639637,0.9794087033032349,0.3081457620327722,right,0.0018031597137451172,-0.15113264801099216,-1.8993337379097937,-9.506994853252172,-0.05917492777566067,0.017977721989154816,0.00024674832820892334,1.4764691217310726,0.006047859787940979
1746231710910730200,8.073730224609376,-0.19661836956501616,-0.00420009158551693,-0.10814690460327701,0.005413302220404148,0.15971427370684046,0.9794762835811704,0.30848526232048007,right,0.0006440281867980957,-0.14969523955807446,-1.8943429438851773,-9.510144257193803,-0.0584963518279793,0.05695057660341263,-0.001034170389175415,1.462532220184803,0.002823770046234131
1746231710950730200,8.113730224609375,-0.19668593773004048,-0.02231704629957676,-0.10794927388252272,-0.011661193333566189,0.15960359148649342,0.9796090239026033,0.30853393201316004,right,-0.000865936279296875,-0.1465002735089365,-1.8958890042833982,-9.51455038319826,-0.05691995974762033,0.09571373462677002,-0.0009773820638656616,1.431543207681179,0.003871321678161621
1746231710990730200,8.153730224609374,-0.19738267773930615,-0.042115747928619385,-0.10796284520593787,-0.020092837512493134,0.15919356823967343,0.9797967249606544,0.3080358075491525,right,-0.002177715301513672,-0.14218318432185964,-1.9037119529940187,-9.519199085786939,-0.05477188305897272,0.10533645749092102,0.0003406107425689697,1.389647308976948,0.005177989602088928
1746231711030730200,8.193730224609375,-0.19850157733178356,-0.05266018211841583,-0.10816267698919284,-0.02666633203625679,0.158506938059235,0.9800060663925024,0.3069627879839217,right,-0.0010088682174682617,-0.13778107221099128,-1.915549544173479,-9.522968082931637,-0.05257951413602509,0.09493763744831085,-0.00006996095180511475,1.3468996157489717,0.0031168758869171143
1746231711070730200,8.233730224609374,-0.1998375754243849,-0.04856826364994049,-0.10851065946251963,-0.02940480224788189,0.15773713117193025,0.9801912327375039,0.3056591482106945,right,-0.0009437203407287598,-0.13400893133095515,-1.9292653503149746,-9.52531201570928,-0.05069208448144854,0.07486209273338318,-0.001367717981338501,1.3102486319608986,0.0002371370792388916
1746231711110730200,8.273730224609375,-0.2012551477864359,-0.03971342742443085,-0.1089797980327006,-0.029335541650652885,0.15703988124725085,0.9803208453456309,0.30440807056648916,right,-0.0007505416870117188,-0.13131438548246385,-1.943464848320186,-9.525992399188876,-0.049325165429403725,0.04403712600469589,-0.0029476583003997803,1.2840563522145152,-0.001433536410331726
1746231711150730500,8.31373046875,-0.20238336848151067,-0.021361269056797028,-0.10940382747779419,-0.015620630234479904,0.15648341801586424,0.9803992629199132,0.30334742199524284,right,0.0005035400390625,-0.1298809411441403,-1.9545790936611591,-9.525586740997433,-0.048590569854859184,0.019705915823578835,-0.003427252173423767,1.2701188661463558,-0.004061877727508545
1746231711190730200,8.353730224609375,-0.20273127721599477,0.0060342419892549515,-0.1095398479778964,-0.0007609454914927483,0.15634054899678151,0.9804169121576634,0.30307448135249876,right,0.00020563602447509766,-0.1294918373794955,-1.9579922631055116,-9.525389757120609,-0.04838717595396831,-0.005694512277841568,-0.0037209540605545044,1.2663351098239422,-0.0022257566452026367
1746231711230730200,8.393730224609374,-0.20225751211664839,0.0235702283680439,-0.10936577116642025,0.019663486629724503,0.15659582641622463,0.9803793217171362,0.30355937789759496,right,0.0016251802444458008,-0.13013831278411964,-1.9533144805528222,-9.525511922195554,-0.04871524639219134,-0.02351524867117405,-0.0022433847188949585,1.2726214966170488,-0.00044198334217071533
1746231711270730200,8.433730224609375,-0.20108527214859373,0.027312785387039185,-0.10890411273335464,0.030750494450330734,0.15700535468496032,0.9803306160284103,0.30433429932903966,right,0.0015721321105957031,-0.13144486520978996,-1.9418131355904042,-9.526157818883657,-0.04940660875722864,-0.032044459134340286,-0.0018911659717559814,1.2853249108456075,0.001052960753440857
1746231711310730200,8.473730224609374,-0.1996522897053547,0.01864035055041313,-0.10832770400482218,0.03333546593785286,0.15736034698443335,0.9802957742964368,0.3049938726305508,right,0.000858008861541748,-0.13296516819885487,-1.9277705817125736,-9.527004791101813,-0.050230118614082206,-0.03474680706858635,0.00003905594348907471,1.300103962304443,0.002730816602706909
1746231711350730200,8.513730224609375,-0.1981911278312748,0.005354556255042553,-0.10772852611197206,0.03306911513209343,0.15750142066818756,0.9802947308988361,0.30521902437177156,right,-0.002163410186767578,-0.13450776632497033,-1.9134508183285592,-9.527833643141388,-0.05109062853366948,-0.03819252550601959,0.0011797696352005005,1.3150965103834866,0.0047561973333358765
1746231711390730200,8.553730224609374,-0.19692648717040048,-0.011649996973574162,-0.10720075744320133,0.026811884716153145,0.1573063450554764,0.980340092495015,0.3047595015021309,right,-0.0020987391471862793,-0.13594888697095828,-1.9010272439546883,-9.528377248498797,-0.05192268771598334,-0.03519130498170853,0.00027535855770111084,1.3291000474251806,0.002536565065383911
1746231711430730200,8.593730224609375,-0.1961760316543898,-0.019008079543709755,-0.10687954868656671,0.010970167815685272,0.15690651366464936,0.980408500750343,0.30389905158032854,right,-0.0026262998580932617,-0.13690959691105978,-1.8936263200484216,-9.528544421759248,-0.052499591635061585,-0.019456272944808006,-0.0007654577493667603,1.3384338390901684,-0.0002502650022506714
1746231711470730200,8.633730224609375,-0.1962550456220389,-0.018576717004179955,-0.10692412311464047,-0.010091660544276237,0.1564730872865988,0.9804594756133279,0.3029736012771213,right,-0.0020751357078552246,-0.1373305862423036,-1.8942691479966043,-9.527841241925953,-0.052749670781303895,-0.009029925800859928,-0.0016282498836517334,1.342523592621833,-0.0016907602548599243
1746231711510730200,8.673730224609375,-0.19698940189282435,-0.007277416065335274,-0.10727501824419788,-0.022217724472284317,0.15622407040779832,0.9804604062990371,0.30241934714562074,right,-0.0009000897407531738,-0.1374078211183441,-1.9012452706195413,-9.526346034932136,-0.05275988251640842,-0.003686449956148863,-0.0012522637844085693,1.343273972597718,-0.0009613186120986938
1746231711550730200,8.713730224609375,-0.19782750154608542,0.0050817010924220085,-0.10768664836042587,-0.023137599229812622,0.15622611328983382,0.9804176514224189,0.30237605609264817,right,-0.0018590092658996582,-0.13743470292316312,-1.909221510195732,-9.52471346529424,-0.05270994809092494,-0.00047534401528537273,-0.0012734830379486084,1.3435351077519357,0.0008515417575836182
1746231711590730200,8.753730224609376,-0.19873441899454353,0.005587562918663025,-0.1081384379699084,-0.023869989439845085,0.1563565463808382,0.9803509818123384,0.30259147824436766,right,-0.0027517080307006836,-0.1374564251226041,-1.9178529988102613,-9.522949962753056,-0.05263812346486148,0.0024270571302622557,-0.0012024492025375366,1.3437461201541125,0.002885475754737854
1746231711630730200,8.793730224609375,-0.19980746054333692,-0.0028747841715812683,-0.10865044955414119,-0.029198776930570602,0.1564081293979873,0.9802965994212749,0.3026589146836856,right,-0.0034503936767578125,-0.13723628685362552,-1.9281291858918963,-9.521175938817859,-0.052442436887848026,0.009461361914873123,-0.0018187612295150757,1.341607646820694,0.004015147686004639
1746231711670730200,8.833730224609376,-0.20107420704694876,-0.017004363238811493,-0.10921652408927247,-0.029901238158345222,0.1562451811012964,0.9802808039327103,0.3023169216192798,right,-0.0027089715003967285,-0.1365937119539145,-1.9403603064335881,-9.51956850362122,-0.05204643359885713,0.015939142554998398,-0.0018315911293029785,1.3353650991693138,0.004260599613189697
1746231711710730200,8.873730224609375,-0.20240245631289713,-0.026407964527606964,-0.10978122337093682,-0.029323918744921684,0.1558939090414672,0.9803019243799423,0.3016171448389197,right,-0.004107654094696045,-0.13563641733219473,-1.953258950973302,-9.518231117537617,-0.051510896733511946,0.017159489914774895,-0.0012848973274230957,1.3260640407301485,0.008379369974136353
1746231711750730200,8.913730224609376,-0.20362043365117308,-0.03335609659552574,-0.11030048121940557,-0.023174848407506943,0.155343834703111,0.9803504025717923,0.300494302112585,right,-0.00751417875289917,-0.13494756524528873,-1.965034728962928,-9.516737079587578,-0.05113954839342306,0.0033414755016565323,-0.0005442053079605103,1.3193703883104027,0.012407436966896057
1746231711790730200,8.953730224609375,-0.20464984044236045,-0.04383128508925438,-0.11073880482465612,-0.014916435815393925,0.15454757128074387,0.9804350225295566,0.2988479944196424,right,-0.0025107860565185547,-0.13460440007300103,-1.9749222089879213,-9.515151856222749,-0.05098220230309089,0.0035876091569662094,-0.00043782591819763184,1.3160356909297406,0.006996408104896545
1746231711830730200,8.993730224609376,-0.20559513069932414,-0.03719647601246834,-0.11109535448994146,-0.024340741336345673,0.1537247580928562,0.9805467411106468,0.29720693316588903,right,0.000599205493927002,-0.13367648202778426,-1.9841643768467008,-9.514472057265042,-0.050544507795778404,0.027586912736296654,-0.003318220376968384,1.307017687215656,-0.0011261999607086182
1746231711870730200,9.033730224609375,-0.20703891589726553,-0.023364510387182236,-0.11166118746395333,-0.03719634562730789,0.15320882974690392,0.9806083696274756,0.2962385496274173,right,0.004688858985900879,-0.13199328789243156,-1.998348531152308,-9.513737313249706,-0.04966069809057889,0.04363725334405899,-0.003049612045288086,1.2906566272623836,-0.0036948025226593018
1746231711910730200,9.073730224609376,-0.20870833964318358,-0.007022544741630554,-0.11233311462339943,-0.040409378707408905,0.15300755745581973,0.980617504444479,0.2959328819174317,right,0.008854389190673828,-0.13000140355386944,-2.0147569373786447,-9.512883911290764,-0.0485713863552756,0.04871535301208496,-0.002387136220932007,1.2712902480132877,-0.007024027407169342
1746231711950730200,9.113730224609375,-0.21017514561342837,0.007094576954841614,-0.11291914827835123,-0.030438009649515152,0.1531374130616956,0.9805856161279555,0.2963207802935614,right,0.010569930076599121,-0.1279628516208512,-2.029244750805944,-9.512433244913815,-0.04743574772469827,0.053810447454452515,-0.0024884939193725586,1.2514648729503155,-0.00913257896900177
1746231711990730200,9.153730224609374,-0.21108041943831193,0.013644177466630936,-0.113245268864694,-0.010965501889586449,0.1534732457076967,0.9805470438157536,0.2971510347557169,right,0.007792532444000244,-0.12600454000584713,-2.0383648997202513,-9.512970420530438,-0.046357354901699274,0.048045866191387177,-0.001443415880203247,1.2324150123044848,-0.007117308676242828
1746231712030730200,9.193730224609375,-0.21149211068729076,0.011388499289751053,-0.11338435485386222,-0.006942874286323786,0.15378142458740296,0.9805121445976417,0.2978694325039453,right,-0.0008692145347595215,-0.12487635188488139,-2.0425717037603257,-9.513483630749583,-0.045730812374177435,0.015751056373119354,-0.0021965354681015015,1.2214382757380604,-0.0012580975890159607
1746231712070730200,9.233730224609374,-0.21150814628696574,0.011440545320510864,-0.1134256732769428,0.005556980613619089,0.15401009441329755,0.9804649947527104,0.29830276016845503,right,-0.0014477968215942383,-0.12521048580653674,-2.04263833925575,-9.513051669073104,-0.04586914236047902,-0.02474665641784668,0.000283658504486084,1.2246893864884971,0.0013573616743087769
1746231712110730200,9.273730224609375,-0.2109720506826925,0.012731173075735569,-0.11327578226914946,0.020105991512537003,0.15415380451170868,0.9804223793587404,0.29847175407106147,right,0.0015903115272521973,-0.126757116565172,-2.0371391573175788,-9.512281853744387,-0.04666058390533624,-0.045730940997600555,-0.00026004016399383545,1.2397364412337541,-0.00023934245109558105
1746231712150730500,9.31373046875,-0.2101525851122049,0.018131321296095848,-0.11302784199193537,0.020178724080324173,0.15430643698171104,0.9803738603648475,0.2986175164566189,right,0.0014446377754211426,-0.12888993193583814,-2.028787216296792,-9.511340188980101,-0.047763163836871354,-0.05160398408770561,-0.002081632614135742,1.2604815614901483,-0.00039152801036834717
1746231712190730200,9.353730224609375,-0.2093175997851713,0.021917026489973068,-0.11279587184721944,0.018620263785123825,0.15456603329396676,0.9802993379977138,0.2989591839003234,right,0.001761019229888916,-0.13128814522256188,-2.0202108188703654,-9.510046642038226,-0.04898630741710406,-0.0569363497197628,-0.0014052540063858032,1.2838013545401394,0.001561671495437622
1746231712230730200,9.393730224609374,-0.20856414647467833,0.02661980502307415,-0.11261233482713608,0.015918651595711708,0.15492182212572225,0.9802020725098812,0.2994909690452593,right,0.0015606880187988281,-0.13373429867960024,-2.0123886008121072,-9.508465510326623,-0.050216075318803524,-0.05403921753168106,-0.0012469589710235596,1.3075795588821173,0.00282306969165802
1746231712270730200,9.433730224609375,-0.2079663696799193,0.027965836226940155,-0.11249232734539791,0.007643423974514008,0.15536717507380152,0.9800894985337271,0.3002244206375525,right,0.000484466552734375,-0.1359187369012221,-2.006109666673094,-9.50684930730164,-0.05129398978948383,-0.03967978060245514,-0.0014671683311462402,1.3288072019584476,0.0022030919790267944
1746231712310730200,9.473730224609374,-0.2076170453052979,0.027116969227790833,-0.11243195107423345,0.0012781177647411823,0.1558823566622225,0.9799845356261054,0.3011797673182728,right,-0.0006585121154785156,-0.1371353245442791,-2.0024539206445215,-9.505960249507426,-0.05186489163992984,-0.012810176238417625,-0.002606630325317383,1.3406268190898,0.0030660629272460938
1746231712350730200,9.513730224609375,-0.20773894643675203,0.01771775633096695,-0.11252438644664572,-0.011893797665834427,0.15634320440875354,0.9799005315017985,0.30210226422530245,right,0.00003695487976074219,-0.1372589753763936,-2.0035785407602784,-9.505554006794094,-0.05186421368097331,0.014925794675946236,-0.001996248960494995,1.341828011573106,0.0038683563470840454
1746231712390730200,9.553730224609374,-0.20823699997857079,0.0012507792562246323,-0.11270878705757086,-0.014650233089923859,0.15657744888805494,0.9798724825681537,0.3026515965767918,right,0.0017794966697692871,-0.13622314432872937,-2.0085987070098517,-9.505909396103023,-0.05128571241064218,0.03906440734863281,-0.0014858543872833252,1.3317647365897893,0.004325747489929199
1746231712430730200,9.593730224609375,-0.20884041732702918,-0.016429012641310692,-0.11286325369025303,-0.01388790737837553,0.15650909974586402,0.979918668638931,0.30266830520408483,right,0.002351522445678711,-0.13423778520970248,-2.014878664062172,-9.507263733321428,-0.05026271211440146,0.05698828399181366,-0.0014257580041885376,1.3124728838816284,0.003359586000442505
1746231712470730200,9.633730224609375,-0.2093432131030983,-0.027087543159723282,-0.11291191936683558,-0.0062062302604317665,0.1561802760151135,0.9800312579569447,0.3022199877515074,right,0.002981126308441162,-0.13162174521972472,-2.0203652787797153,-9.509575517395138,-0.04896415392875878,0.0628722757101059,-0.0014544278383255005,1.2870445742450654,0.0032459795475006104
1746231712510730200,9.673730224609375,-0.20959493579121793,-0.031831294298172,-0.11282645384865891,-0.0013461285270750523,0.15567220211884536,0.9801850194610872,0.30142443728306817,right,0.0016914010047912598,-0.12895990893000525,-2.0234645599693057,-9.512383560553193,-0.04768225952476494,0.057910460978746414,-0.0021156221628189087,1.261162091100216,0.0011053979396820068
1746231712550730200,9.713730224609375,-0.20980167044594444,-0.02909134142100811,-0.11274847758106753,-0.0018927911296486855,0.15512909415896245,0.9803309478301647,0.3005188769829173,right,0.00009232759475708008,-0.12673814140695733,-2.026009568277001,-9.51468248514533,-0.04662608369602587,0.04232920706272125,-0.002731114625930786,1.2395518784470856,-0.0011521130800247192
1746231712590730200,9.753730224609376,-0.2100285644134062,-0.019382663071155548,-0.11273482527358937,-0.003900854615494609,0.15468770437692725,0.9804360429228018,0.2997525871419968,right,-0.0011149048805236816,-0.12522757628079073,-2.0285564762808383,-9.51604266758263,-0.04590975046750746,0.022850466892123222,-0.0027272552251815796,1.224855682966113,-0.0017732307314872742
1746231712630730200,9.793730224609375,-0.21026168966525044,-0.006509203463792801,-0.11280122291306638,-0.005576943978667259,0.1544471481961705,0.9804781433440766,0.2993019985569292,right,-0.0024001598358154297,-0.12469693417674746,-2.0309101998001338,-9.516203995624185,-0.045656485402152794,-0.0021131131798028946,-0.0032815486192703247,1.2196924549840389,-0.0007664188742637634
1746231712670730200,9.833730224609376,-0.21047934922861822,0.00931665487587452,-0.112935133163312,-0.00620728824287653,0.15446306997829365,0.9804520945993547,0.29928684852852877,right,-0.0018209218978881836,-0.12508648233792288,-2.0328820843949913,-9.5152962331295,-0.045831880126652465,-0.015905262902379036,-0.003767833113670349,1.223482860242948,-0.0022147223353385925
1746231712710730200,9.873730224609375,-0.21076034988996012,0.021648870781064034,-0.11313920199756536,-0.008384322747588158,0.15476533190755465,0.98036572392928,0.2998166132795503,right,0.0009042620658874512,-0.1258512873182881,-2.0353594342939556,-9.51380687135458,-0.04615587779770126,-0.014809718355536461,-0.0037413686513900757,1.2309240430943666,-0.002463310956954956
1746231712750730200,9.913730224609376,-0.21081121588555615,0.027054058387875557,-0.11322250715329525,-0.0006851190701127052,0.15527970582616843,0.980266052885238,0.3008157294786148,right,0.0018074512481689453,-0.12634824827128094,-2.03571511586383,-9.513104276043176,-0.04633947742025583,0.0008268766105175018,-0.0038730651140213013,1.2357589159049094,-0.0007711350917816162
1746231712790730200,9.953730224609375,-0.2105339040420535,0.030829312279820442,-0.11310908023306589,0.005718570202589035,0.15589302680857936,0.9801864732500136,0.302089666469127,right,0.0012364983558654785,-0.1262500263255342,-2.0331023030169306,-9.51378699761033,-0.04624072948358025,0.014164402149617672,-0.0028457343578338623,1.2348033687457443,0.0026517361402511597
1746231712830730200,9.993730224609376,-0.2099277142942373,0.01930394023656845,-0.11281339952356667,0.015855561941862106,0.15647287800995213,0.9801381162301671,0.30333812247475633,right,0.0036156773567199707,-0.12586719687002018,-2.0274330252088606,-9.515479188480972,-0.04602955492294395,0.017132066190242767,0.00015670061111450195,1.2310787952646611,0.007755488157272339
1746231712870730200,10.033730224609375,-0.20882793998814975,-0.003703715279698372,-0.11224802109084396,0.027295686304569244,0.15667813004558043,0.9801799141629305,0.30385953922195996,right,0.0013814568519592285,-0.12533282915615412,-2.0171030621133745,-9.518345683827995,-0.04582390303879601,0.013463838957250118,0.0010712593793869019,1.2258797653168438,0.008587032556533813
1746231712910730200,10.073730224609376,-0.20754768797848538,-0.028188563883304596,-0.11153971498962229,0.033915843814611435,0.15639380245594478,0.9803229411887002,0.30343300875417006,right,0.0010257363319396973,-0.12434346251977071,-2.0051644947774707,-9.522101821491121,-0.04546208578647781,0.032453153282403946,0.0006906837224960327,1.2162529089894145,0.003896482288837433
1746231712950730200,10.113730224609375,-0.20604455141535002,-0.02813505195081234,-0.11062231001527646,0.043001528829336166,0.1558521174571709,0.9805565768923846,0.30261019208046575,right,0.0029819607734680176,-0.12208622952363105,-1.9914058724075554,-9.527768176689744,-0.04451641624187447,0.07264618575572968,-0.000999152660369873,1.1942848228093237,-0.0007596909999847412
1746231712990730200,10.153730224609374,-0.2043655505712994,-0.016671251505613327,-0.10955345327927023,0.037866465747356415,0.15553543545308526,0.980793708585375,0.30235318243922393,right,0.000516355037689209,-0.11874212448267751,-1.9762053806662558,-9.53495604236722,-0.04301842190332347,0.08584760874509811,-0.002335876226425171,1.1617278303366154,0.0030829012393951416
1746231713030730200,10.193730224609375,-0.20309490554628543,-0.006598369218409061,-0.1086912883904567,0.026137281209230423,0.15545422944161066,0.9809703669597352,0.3025584573169578,right,-0.0014690756797790527,-0.11535643148365443,-1.9648703321814536,-9.54125718833804,-0.041442494108447525,0.08026689291000366,-0.0019689202308654785,1.1287527585823087,0.003093503415584564
1746231713070730200,10.233730224609374,-0.2023147596343037,-0.0036519530694931746,-0.10811142183637758,0.011228123679757118,0.15549988353376,0.9810836022021299,0.30294899883708976,right,-0.004174590110778809,-0.11250862022504705,-1.958064159297943,-9.545897123098372,-0.0400826106868801,0.0611804723739624,-0.0026095062494277954,1.101006308196485,0.004674956202507019
1746231713110730200,10.273730224609375,-0.20221275584008358,-0.005799422040581703,-0.1079313292036988,-0.0016245460137724876,0.15550693124600468,0.9811392246818691,0.30313997282863026,right,-0.003483712673187256,-0.11065459229902627,-1.9574970269344747,-9.548080312356353,-0.039169147336798535,0.030810074880719185,-0.00012414157390594482,1.0829375675424933,0.006015866994857788
1746231713150730500,10.31373046875,-0.20223192513660268,-0.011851869523525238,-0.10789462501257299,0.0025908066891133785,0.15536106067016664,0.9811770854432537,0.3028951508917233,right,-0.0024067163467407227,-0.11008224720855916,-1.957804193187505,-9.548648467633127,-0.038899605865059195,-0.0011965427547693253,-0.00083141028881073,1.0773589636925607,0.004924885928630829
1746231713190730200,10.353730224609375,-0.20216504811321495,-0.014300213195383549,-0.10787913316940659,0.0070014093071222305,0.1550544430804879,0.9812175024770168,0.30223380331436633,right,0.0002390146255493164,-0.11050143538120645,-1.957074709869176,-9.548335748422145,-0.03914647555148244,-0.016606271266937256,-0.0022342056035995483,1.0814448447667062,0.0007167533040046692
1746231713230730200,10.393730224609374,-0.2018585441741932,-0.010937242768704891,-0.10776592511086493,0.011305028572678566,0.1547417170942034,0.981262936748299,0.3015430571208909,right,0.002312004566192627,-0.11120711910197432,-1.9539945717714726,-9.548185526296496,-0.03955426851370628,-0.017813950777053833,-0.0030619949102401733,1.0883226946469395,-0.002141997218132019
1746231713270730200,10.433730224609375,-0.2013354226362354,-0.004450284410268068,-0.10755304380212667,0.016980167478322983,0.15454560685641985,0.9812999633393238,0.3010965059145122,right,0.002334415912628174,-0.11194082527423124,-1.9488392348349093,-9.54842108861804,-0.03997935904920637,-0.01877402700483799,-0.0021701306104660034,1.0954732239887117,-0.0016476437449455261
1746231713310730200,10.473730224609374,-0.20052706608750748,-0.002139460761100054,-0.10721308088439227,0.025404907763004303,0.15441810227901354,0.9813363695141086,0.30078879781420037,right,0.0015014410018920898,-0.11281787602481952,-1.940927877188474,-9.549048280605673,-0.0404893917290613,-0.024435102939605713,-0.0011322945356369019,1.1040198838640003,-0.0004682019352912903
1746231713350730200,10.513730224609375,-0.19948637651360937,-0.0011547715403139591,-0.1067735846164471,0.028560277074575424,0.15430809112445,0.9813757054579393,0.30050929649412594,right,-0.0002862215042114258,-0.11389136142406617,-1.9307533969156443,-9.54989583734572,-0.041112310925221635,-0.02587330900132656,-0.0006094574928283691,1.114479610818997,-0.000613771378993988
1746231713390730200,10.553730224609374,-0.19845364588041103,-0.0018360918620601296,-0.10633461354405618,0.022431332617998123,0.15422517093176244,0.9814115455840833,0.3002916636328148,right,-0.0012795329093933105,-0.11490209781562101,-1.9206667410567402,-9.550775542789697,-0.041700387973460706,-0.021064553409814835,-0.0018954575061798096,1.1243267588336021,-0.0008343607187271118
1746231713430730200,10.593730224609375,-0.19780624804016747,-0.0004424853250384331,-0.10606480636910597,0.011556250974535942,0.15417314554623915,0.9814315562961601,0.3001486968352161,right,-0.0011638998985290527,-0.11561400154517618,-1.914325409206003,-9.551229716297984,-0.04210783852865615,-0.013676252216100693,-0.002186805009841919,1.1312618187937884,-0.0000977441668510437
1746231713470730200,10.633730224609375,-0.1976112176354099,-0.0006552874692715704,-0.10600507753252483,0.001217360608279705,0.1541518017892121,0.981429309070572,0.30006579859833016,right,-0.0012621283531188965,-0.11614209313599977,-1.9123450490437446,-9.551015781286358,-0.04238686093090944,-0.011652223765850067,-0.0016329139471054077,1.1364059036839753,0.0012325048446655273
1746231713510730200,10.673730224609375,-0.19764867477683823,-0.003964419011026621,-0.10605008437301748,-0.003144229296594858,0.154108434939074,0.9814223773057826,0.2999386662404289,right,-0.0006282329559326172,-0.11655292110260039,-1.912611006503552,-9.550485619932413,-0.04259266449155253,-0.008313559927046299,-0.001033201813697815,1.1404075405407696,0.0012714043259620667
1746231713550730200,10.713730224609375,-0.19785367001246398,-0.005337886977940798,-0.10615694848109261,-0.003107094671577215,0.15402503845788112,0.9814210725773688,0.2997466759578264,right,0.00018447637557983398,-0.11669819122705846,-1.914536129347235,-9.5499309086591,-0.04265846873944126,-0.000026920810341835022,-0.0014888942241668701,1.1418224488399922,0.0006737262010574341
1746231713590730200,10.753730224609376,-0.198015722891997,-0.005181693471968174,-0.10622049873431232,-0.0013929845299571753,0.15391724183646768,0.9814346120505035,0.29953451456437724,right,0.0005125999450683594,-0.11653761739739935,-1.9161197452768681,-9.54979997575581,-0.04257832352720787,0.002637198194861412,-0.001477077603340149,1.1402584143936634,0.0011842846870422363
1746231713630730200,10.793730224609375,-0.19808492623267,-0.00243507232517004,-0.10624148955789367,-0.0010017432505264878,0.15381703105187686,0.9814504902323368,0.2993385010462762,right,-0.00019019842147827148,-0.11641416573052674,-1.9168083120629191,-9.549805236452817,-0.04252272421350911,0.0004040086641907692,-0.002651989459991455,1.1390559798013418,0.0014103278517723083
1746231713670730200,10.833730224609376,-0.19804099070346068,0.0022866688668727875,-0.10622644962728728,0.0007273164810612798,0.1537970526220378,0.981452717842503,0.2992900807869279,right,0.0004013180732727051,-0.11652016997482606,-1.9163649522095918,-9.549771334183216,-0.04258078504722857,-0.004820927046239376,-0.002297699451446533,1.1400885377194732,0.0007450133562088013
1746231713710730200,10.873730224609375,-0.1979970478582292,0.007008410058915615,-0.10621140265864211,0.002456376329064369,0.15377707419219871,0.9814549454526694,0.29924166797159674,right,0.0009927749633789062,-0.11662616991554922,-1.9159215923562645,-9.549736847391724,-0.04263884326474411,-0.010045863687992096,-0.0019434094429016113,1.1411209495071322,0.00007970631122589111
1746231713750730200,10.913730224609376,-0.1977771255959507,-0.006438377313315868,-0.1061251764922138,0.010808520950376987,0.15377990341964823,0.9814563520741535,0.2992290534272524,right,0.003403782844543457,-0.11693453467343103,-1.9137519932322202,-9.549812250715494,-0.042808011876435056,-0.006821286398917437,-0.0005744844675064087,1.1441243691068141,0.0034323707222938538
1746231713790730200,10.953730224609375,-0.19724182866290685,-0.024912279099225998,-0.10585402428256072,0.02209397405385971,0.15344300843500955,0.9815332167088642,0.2985584195838186,right,-0.0013342499732971191,-0.11701773840543565,-1.9086212062150238,-9.550742225041985,-0.042925569376177475,0.0008152895607054234,-0.0006459802389144897,1.1449347356416284,0.0012547001242637634
1746231713830730200,10.993730224609376,-0.19644095651847227,-0.010884717106819153,-0.10541761912605911,0.011220913380384445,0.15306332617595497,0.9816437085814996,0.2978556727394969,right,-0.006769776344299316,-0.11661921546770705,-1.9010605617024003,-9.552714401897788,-0.04282812281547817,0.002776018576696515,-0.0023446977138519287,1.1410532180331647,0.003572523593902588
1746231713870730200,11.033730224609375,-0.19602384458604824,-0.0014351224526762962,-0.1052095381565159,0.014313163235783577,0.15291885287980364,0.9816857247968961,0.29757619828038223,right,0.0006148219108581543,-0.11665650366058104,-1.8970675465434788,-9.553464928004145,-0.04289307993586548,-0.004942099563777447,-0.0010009557008743286,1.1414164253223686,0.003311753273010254
1746231713910730200,11.073730224609376,-0.19538373668325895,0.016674425452947617,-0.10493710043415123,0.011527868919074535,0.15301777827124294,0.9816862476409481,0.2977580185103928,right,0.0013582706451416016,-0.11719073245036139,-1.8908331821985542,-9.554077506944537,-0.043195160246526386,-0.01338026113808155,-0.0006685853004455566,1.14661961998865,0.002695329487323761
1746231713950730200,11.113730224609375,-0.19481258145599117,0.015960711985826492,-0.1047111245795727,0.013303015381097794,0.15328805107778415,0.981654318098392,0.2982797847479615,right,0.0017314553260803223,-0.11779786558192791,-1.8852409151494502,-9.554470890176296,-0.04351006801564227,-0.008063696324825287,0.0014585256576538086,1.152532497294247,0.0026778802275657654
1746231713990730200,11.153730224609374,-0.1942288685646192,0.009459198452532291,-0.10443906443772964,0.008905240334570408,0.15344858639045922,0.9816548774982256,0.29862406475287007,right,-0.003478705883026123,-0.11789561775765142,-1.8796417799681424,-9.555459316691756,-0.04358489080892755,0.008809136226773262,-0.0006684213876724243,1.1534844642568378,0.0033993497490882874
1746231714030730200,11.193730224609375,-0.1940326982606287,-0.005587019957602024,-0.10430294678068204,-0.0017055114731192589,0.15347243411683703,0.9816781208127024,0.29873393483915434,right,0.0006128549575805664,-0.11730181708910546,-1.877899027954042,-9.556498596611618,-0.04330224919051791,0.020292162895202637,-0.0005529224872589111,1.1477014969412236,0.0020232200622558594
1746231714070730200,11.233730224609374,-0.19479163326016735,-0.01297821570187807,-0.10460658606014078,-0.022075917571783066,0.15327550586190333,0.9816969785689724,0.29837585852914134,right,-0.003327488899230957,-0.11644145944245252,-1.8853415990449487,-9.556035655274986,-0.042839722452846805,0.019876644015312195,-0.0015956461429595947,1.139321864195913,0.0030846670269966125
1746231714110730200,11.273730224609375,-0.19589200676354718,-0.01602381281554699,-0.10508992192615871,-0.030076999217271805,0.15301490039400387,0.9817022223228862,0.297854594730403,right,-0.0015516877174377441,-0.11579806145529194,-1.8959980176158249,-9.554672550228238,-0.04246643844116924,0.005579809658229351,-0.0006266981363296509,1.1330547666251658,0.004144854843616486
1746231714150730500,11.31373046875,-0.1969884219591234,-0.01340201310813427,-0.10560161845432067,-0.014749332331120968,0.1527730265261717,0.9816920212217863,0.29733409587736187,right,0.002630949020385742,-0.11557996951158465,-1.90652101906538,-9.552830137231945,-0.04230280385331233,0.0005651144310832024,-0.000032201409339904785,1.1309303218171,0.0015076622366905212
1746231714190730200,11.353730224609375,-0.19733841426576826,-0.006264007184654474,-0.1057476318324758,-0.004549370147287846,0.1525769814327366,0.9817122799482588,0.2969419892624192,right,-0.0001437067985534668,-0.11533251547013534,-1.9099191370710729,-9.552436169478296,-0.042175133158559634,0.004469824489206076,-0.0029916614294052124,1.1285197535440326,-0.0002502650022506714
1746231714230730200,11.393730224609374,-0.1975512544067255,-0.004452674183994532,-0.1058314136300863,-0.0010002297349274158,0.15251120132225512,0.9817193456039677,0.2968221239711923,right,0.0003026127815246582,-0.11507542823180632,-1.9120090950876474,-9.552313419881463,-0.04203883033788245,0.0017131012864410877,-0.0027106404304504395,1.1260152964424341,0.0019496604800224304
1746231714270730200,11.433730224609375,-0.197613662707229,-0.0058374833315610886,-0.10586095324350356,0.0016804705373942852,0.15237673343628066,0.981735188178329,0.2965392876483111,right,0.002152860164642334,-0.11514422371473965,-1.9125901098459959,-9.552118189570308,-0.042082868564435015,-0.007573399227112532,-0.0021465271711349487,1.126685523854196,0.004312954843044281
1746231714310730200,11.473730224609374,-0.19737339117568153,-0.018978571519255638,-0.10574963148745868,0.007342866621911526,0.152097323856838,0.9817827218928803,0.29595610866318867,right,0.0013889670372009277,-0.11541256763200641,-1.9102356556743383,-9.55228068665564,-0.04226395892058221,-0.0038404702208936214,-0.0002856701612472534,1.1292995788101106,0.0014668181538581848
1746231714350730200,11.513730224609375,-0.19732877134629226,-0.02556474320590496,-0.10569758435190335,0.003951171413064003,0.15164940420339895,0.9818588094701389,0.29506003107777196,right,0.0003458261489868164,-0.11525312158217375,-1.9098446105301379,-9.552542552462219,-0.042236308412772754,0.0024646357633173466,-0.0017793923616409302,1.127746358018741,-0.0005439594388008118
1746231714390730200,11.553730224609374,-0.1974915943455642,-0.023158418014645576,-0.10572657617506366,-0.008682949468493462,0.15113597096285483,0.9819419671284796,0.29404543812423123,right,-0.0021733641624450684,-0.11483133895216623,-1.9114931083895266,-9.552696866241098,-0.042070185932253874,0.0072931693866848946,-0.002692997455596924,1.1236373883299529,-0.002300269901752472
1746231714430730200,11.593730224609375,-0.1980502516663274,-0.010761742480099201,-0.10596159228920612,-0.014645041897892952,0.1507521429977507,0.9819826217674303,0.2932696658467292,right,-0.0015985965728759766,-0.11450240073592999,-1.9169021278262137,-9.551989594754577,-0.041907303471567015,-0.0006675003096461296,-0.003255113959312439,1.1204328201349825,-0.0004319325089454651
1746231714470730200,11.633730224609375,-0.19852843343690965,0.008549059741199017,-0.10621689910135537,-0.008706245571374893,0.15077016130496648,0.9819475168795491,0.293258834880129,right,0.0005391836166381836,-0.11479984634073309,-1.9214036770291625,-9.550744563129543,-0.04201811963226625,-0.01183831226080656,-0.003642752766609192,1.1233305874031037,-0.0011915042996406555
1746231714510730200,11.673730224609375,-0.1987449438998135,0.026902444660663605,-0.10639136866344412,-0.0050323279574513435,0.15114853481741322,0.9818564381892487,0.2939502273821533,right,0.0024318695068359375,-0.11556712203742611,-1.9233007428221403,-9.54948024228215,-0.04234236481486999,-0.014415740966796875,-0.0018473416566848755,1.1308051610674708,-0.002716563642024994
1746231714550730200,11.713730224609375,-0.19865712269674507,0.028644351288676262,-0.10642734922564635,0.004557623527944088,0.15166230954792226,0.9817575303279713,0.29492463275994385,right,0.0002506375312805176,-0.11640088310383317,-1.9222753452971577,-9.548721532869338,-0.042707169315198565,-0.015496092848479748,-0.0013717412948608398,1.1389266543332486,0.0008523315191268921
1746231714590730200,11.753730224609376,-0.19846022645312444,0.02076982520520687,-0.10641476953691985,0.0009024711325764656,0.15208294078510678,0.9816743513974553,0.29570287972553666,right,-0.0019410252571105957,-0.11736034073863541,-1.9201788114093243,-9.548024198254943,-0.04315248455246013,-0.023527687415480614,-0.0018233954906463623,1.1482714788489043,0.00432809442281723
1746231714630730200,11.793730224609375,-0.19835460053778436,0.006109165959060192,-0.10645253490743758,0.003787318477407098,0.152309892686246,0.9816102441305491,0.2960643644920669,right,-0.00008124113082885742,-0.11852287662890854,-1.9189060149945318,-9.54691185309887,-0.04371288327563435,-0.02732338383793831,-0.001333862543106079,1.1595928641345352,0.003947988152503967
1746231714670730200,11.833730224609376,-0.19810422991937768,0.004081059247255325,-0.10639906968583575,0.005472532007843256,0.1524072840501213,0.9815795230126817,0.2961880972076282,right,0.001595139503479004,-0.11947086483095706,-1.91629846284464,-9.546309795552492,-0.04419146492099576,-0.010343639180064201,-0.002023160457611084,1.1688237068817018,0.0009147748351097107
1746231714710730200,11.873730224609375,-0.1978439410300247,-0.003880937583744526,-0.10627230888040003,0.0030396596994251013,0.1523714826613252,0.9815970304966557,0.2961237810121788,right,0.003468632698059082,-0.11950514596260003,-1.9138057692460715,-9.546769229757786,-0.04423157163878446,0.007809057831764221,-0.00026160478591918945,1.1691575419459492,-0.0007083937525749207
1746231714750730200,11.913730224609376,-0.19746597446254718,-0.012227621860802174,-0.1060251487073489,-0.0007234716322273016,0.1522518727799951,0.9816589211095862,0.2959719127887582,right,-0.008592724800109863,-0.11867630681346317,-1.9103867545828221,-9.54843862427473,-0.04386089303091539,0.01845099776983261,-0.004804179072380066,1.1610869751498103,0.003911659121513367
1746231714790730200,11.953730224609375,-0.1977602950026582,-0.0069941324181854725,-0.10610269812375162,-0.005434040911495686,0.1520099296541899,0.9817058772237175,0.29553981466209794,right,-0.0036717653274536133,-0.11785859426499992,-1.9133828676588833,-9.548803950455785,-0.04345935119361914,0.00958303827792406,-0.0017804205417633057,1.1531239603813737,0.003146909177303314
1746231714830730200,11.993730224609376,-0.19773936054581795,-0.0019499496556818485,-0.10607761576491194,0.006424873135983944,0.15192932579476606,0.98172424039171,0.2953914594651771,right,0.00497204065322876,-0.11769365965444359,-1.9132202244430778,-9.549030160427092,-0.04338771088897472,-0.000024263747036457062,-0.0005434304475784302,1.151517694228515,0.004145905375480652
1746231714870730200,12.033730224609375,-0.19736855047970603,0.004655137658119202,-0.10590129222332981,0.009957263246178627,0.15187767463363716,0.9817474031581068,0.2952925476177941,right,0.0022104978561401367,-0.11780543891788246,-1.9096539102636276,-9.549612928751111,-0.04347608014496889,-0.008309234865009785,-0.000765576958656311,1.15260629318282,0.003419533371925354
1746231714910730200,12.073730224609376,-0.1969079786273208,0.00322740594856441,-0.1057233136335202,0.014577142894268036,0.15189388190088582,0.9817475123068229,0.29528402566888023,right,0.00033605098724365234,-0.11849346367352086,-1.9050999002210796,-9.549711128428578,-0.043849828808998216,-0.02431560307741165,0.0007877051830291748,1.1593064484085887,0.006650149822235107
1746231714950730200,12.113730224609375,-0.19632497945817654,0.0007592902984470129,-0.10551827242557274,0.010540878400206566,0.15185575036493673,0.981746399304646,0.2951241574045325,right,-0.0026868581771850586,-0.1197002622284678,-1.8992577500641346,-9.549441079315542,-0.04449596497463972,-0.034013401716947556,-0.0011326223611831665,1.1710573111526668,0.005482427775859833
1746231714990730200,12.153730224609374,-0.1958955789132317,-0.000269348849542439,-0.10539579050298813,0.007101607974618673,0.15181404140230736,0.9817343497517095,0.2949407922565049,right,-0.002077937126159668,-0.12101843483290128,-1.8948549850605427,-9.548733223307131,-0.045186426523791436,-0.027783142402768135,-0.00180073082447052,1.1838906353712082,0.004543714225292206
1746231715030730200,12.193730224609375,-0.19573087145047247,-0.0007065855897963047,-0.1053689154179476,0.002918181475251913,0.15174221703634838,0.9817281185089096,0.2947270872497922,right,0.001937568187713623,-0.1218585163398898,-1.8930881215184925,-9.548066283831,-0.04562328571301273,-0.006581949070096016,-0.0012898445129394531,1.192068315803632,0.0019345805048942566
1746231715070730200,12.233730224609374,-0.19579372993862224,0.006322032772004604,-0.10540905505772938,-0.010534239932894707,0.151772289900886,0.9817168342552842,0.29477499027210524,right,-0.002131164073944092,-0.12197557277458676,-1.8936610991008578,-9.547810847765207,-0.045673552525002166,0.004242388531565666,-0.0038231760263442993,1.1932077681623399,0.0043305903673172
1746231715110730200,12.273730224609375,-0.19612086017177133,0.00903360079973936,-0.10557511338139852,-0.005796290934085846,0.15197935363904164,0.9816703920503792,0.29518661131441487,right,0.0022698044776916504,-0.12191981697262677,-1.8967973512999712,-9.547255551970004,-0.045599583178436424,0.0053984634578228,-0.0006382763385772705,1.1926650395877658,0.005593068897724152
1746231715150730500,12.31373046875,-0.19614412531635736,0.00834991317242384,-0.10558107023866455,0.0035543255507946014,0.15219898997614298,0.9816422605261477,0.29565353199967137,right,0.002702772617340088,-0.12169056519297573,-1.8970726611100137,-9.547479423853755,-0.045460440238924336,0.008146170526742935,-0.0012829601764678955,1.190433481143415,0.005390875041484833
1746231715190730200,12.353730224609375,-0.19589197601203506,0.0020668678916990757,-0.105438708923352,0.006202409975230694,0.15234947559365022,0.9816427596983871,0.2960055868741754,right,-0.0012248754501342773,-0.12131211251799762,-1.89475283986032,-9.548398876786232,-0.04527498196361624,0.014362577348947525,-0.00024569034576416016,1.186749458868429,0.003032013773918152
1746231715230730200,12.393730224609374,-0.19552468749677138,-0.008394379168748856,-0.1052126174211442,0.00699445977807045,0.15239992329451907,0.9816744159221849,0.296188589799049,right,0.0010410547256469727,-0.12060220885656142,-1.8914089362598954,-9.549918049177528,-0.0449442669680503,0.020633762702345848,-0.00019137561321258545,1.1798385835014282,0.004213757812976837
1746231715270730200,12.433730224609375,-0.19527857830046788,-0.013111590407788754,-0.10500505308019024,0.004894590936601162,0.15217670151055582,0.9817547142339567,0.29584521903685623,right,-0.0011879205703735352,-0.11947805041237297,-1.889314740459621,-9.551678629109263,-0.04442828154708237,0.0307927206158638,-0.0006134957075119019,1.1688937033779918,0.001456916332244873
1746231715310730200,12.473730224609374,-0.19507829513233318,-0.02131575345993042,-0.10480374108845461,0.004930791445076466,0.15185205729688597,0.9818532166617935,0.29530847987098624,right,0.00005632638931274414,-0.11818121213390458,-1.88769386125952,-9.553535655152798,-0.04383393216360327,0.03205619007349014,-0.0008921772241592407,1.1562657655384392,-0.0001749768853187561
1746231715350730200,12.513730224609375,-0.1952680748447805,-0.016026729717850685,-0.10479042494155477,-0.003774571232497692,0.1515281964034112,0.9819334435508188,0.29476064599891527,right,0.0002887845039367676,-0.11683387040883986,-1.8898074924126267,-9.554697100147605,-0.043185637526761834,0.030275462195277214,-0.0009500682353973389,1.1431439067021012,-0.002999722957611084
1746231715390730200,12.553730224609374,-0.19549262724204117,-0.005781425163149834,-0.10481771095442752,-0.008562199771404266,0.1514080903321054,0.9819738382167466,0.29460783301073307,right,-0.001093745231628418,-0.11569753977288451,-1.8922040321603417,-9.555540565234422,-0.042617781981262114,0.017799008637666702,-0.0007071048021316528,1.1320755463294685,-0.0017850399017333984
1746231715430730200,12.593730224609375,-0.19589411724105804,0.005023173056542873,-0.10499497357061746,-0.009895558468997478,0.15143168869567597,0.9819591139985795,0.2946654668218687,right,-0.0025963783264160156,-0.11539684624224097,-1.8961064464263617,-9.555113279733062,-0.0424364776711001,-0.006111849099397659,-0.0008439868688583374,1.1291464340750128,0.0009406283497810364
1746231715470730200,12.633730224609375,-0.19638708539744884,0.013174645602703094,-0.10529265561010565,-0.016650397330522537,0.1516229480991701,0.9818850832043163,0.29497069235019857,right,-0.0004075765609741211,-0.11609742314303356,-1.9006617716431617,-9.5533994615525,-0.0427276211983151,-0.019874410703778267,-0.0024856925010681152,1.1359708002023399,-0.0013997256755828857
1746231715510730200,12.673730224609375,-0.1970002583837336,0.020870596170425415,-0.10566046228523526,-0.017002111300826073,0.15200714699015735,0.9817739198554681,0.2956598527689119,right,0.001646280288696289,-0.11683791968527861,-1.9063541380658744,-9.551404488343,-0.04300887446679154,-0.008361821994185448,-0.0025300532579421997,1.143183361929655,-0.0008932054042816162
1746231715550730200,12.713730224609375,-0.19765318708720295,0.014798201620578766,-0.10602196390865909,-0.0115235336124897,0.15242390771452805,0.9816669495360288,0.29644945652679244,right,0.0027788877487182617,-0.11717885314345006,-1.9125135374784468,-9.549775425836444,-0.04308503592298907,0.0010686367750167847,-0.0006663352251052856,1.1465039577197282,-0.00023001432418823242
1746231715590730200,12.753730224609376,-0.1980014292298688,0.004997413605451584,-0.10619961702968221,-0.006789080332964659,0.15262387342312891,0.981619296429108,0.29684385440603744,right,0.00038313865661621094,-0.11715387303530436,-1.9158447277277706,-9.549136543411016,-0.04302527125696207,0.0026640710420906544,-0.0016926378011703491,1.1462606504831463,0.00209740549325943
1746231715630730200,12.793730224609375,-0.19821551174079563,0.008174879476428032,-0.10630798747525778,-0.003178851678967476,0.15280371688007638,0.9815825329418508,0.29720668802595757,right,0.00004088878631591797,-0.11709017606182616,-1.9179032676927745,-9.548798105236887,-0.04295833114103074,0.0005132544320076704,-0.0017431527376174927,1.1456402535624801,0.004958294332027435
1746231715670730200,12.833730224609376,-0.19811569606711563,0.0010403385385870934,-0.10627574851841105,0.006296020932495594,0.15286154775693223,0.981572536030488,0.2973102659004978,right,0.0024860501289367676,-0.11729567625593523,-1.9169037352614104,-9.548758357748389,-0.04306148701533049,-0.003997022286057472,-0.0009702444076538086,1.1476417295780033,0.004147827625274658
1746231715710730200,12.873730224609375,-0.19783950617229382,-0.007417349144816399,-0.10615827651525998,0.006256697233766317,0.1527628741532947,0.9815921720934204,0.29709214434326237,right,0.0014728307723999023,-0.11761806048751546,-1.9141935995198784,-9.54892377744317,-0.04325267425120761,-0.011109625920653343,-0.0010894984006881714,1.1507814158432186,0.00401218980550766
1746231715750730200,12.913730224609376,-0.19756385394937898,-0.005447568371891975,-0.10604564306296375,0.010566716082394123,0.1525581815657048,0.981624257439608,0.2966458399374341,right,0.00028377771377563477,-0.11807626419451353,-1.9114577448152004,-9.548933129793404,-0.04352267369529941,-0.014629876241087914,-0.0017222166061401367,1.155243729014322,0.002475917339324951
1746231715790730200,12.953730224609375,-0.19718949680886075,0.00033380230888724327,-0.10589159079629362,0.011201475746929646,0.1524448159867641,0.9816456490354623,0.2963862556074547,right,0.0003101825714111328,-0.11857785643997226,-1.9077691194303332,-9.549078675743937,-0.04381159445676008,-0.010317988693714142,-0.0022134780883789062,1.160128286185488,0.0008710622787475586
1746231715830730200,12.993730224609376,-0.19678527804664267,0.007693630177527666,-0.10571648902688903,0.0032803425565361977,0.15250418012452102,0.9816476744414849,0.29649866629482413,right,-0.0011128783226013184,-0.11887344343219214,-1.9038418629840015,-9.549512390986084,-0.04398180006426445,-0.002318349666893482,-0.004426747560501099,1.163006545035541,-0.0019735097885131836
1746231715870730200,13.033730224609375,-0.1965812836141263,0.011254680342972279,-0.10562428026646623,0.0031566889956593513,0.15275235093095602,0.9816206298747326,0.2970178842097965,right,-0.000582277774810791,-0.11882384462951812,-1.901905049702525,-9.549957212144136,-0.04394554814247525,0.00436320761218667,-0.0019496828317642212,1.1625235838241874,0.0012662336230278015
1746231715910730200,13.073730224609376,-0.196600277313697,0.00932872574776411,-0.10564184795680738,-0.003311741631478071,0.15296813742265683,0.9815867292560433,0.29745852265105627,right,-0.001890718936920166,-0.11880363988509748,-1.9020910737939178,-9.549943768140674,-0.043910888995798265,-0.0025716926902532578,-0.0018543601036071777,1.1623268922083079,0.004156187176704407
1746231715950730200,13.113730224609375,-0.19664639192159042,0.003586886916309595,-0.10569403624297448,0.0005055645015090704,0.15313226484952414,0.9815491716290237,0.29776181763857534,right,0.0022544264793395996,-0.11912693563343248,-1.902457861279696,-9.549487256544827,-0.04405028506416455,-0.009453324601054192,-0.0009918063879013062,1.1654749079104512,0.004075534641742706
1746231715990730200,13.153730224609374,-0.19638062316769986,0.0018898509442806244,-0.10559636899834034,0.010120282880961895,0.15321492664790426,0.9815369210404329,0.2979046909906899,right,0.001127779483795166,-0.11954508307418651,-1.899824590166658,-9.549513560029864,-0.044268670765802605,-0.00596245750784874,-0.0022341012954711914,1.1695463951330631,0.0016707256436347961
1746231716030730200,13.193730224609375,-0.19607121804749122,0.0014275484718382359,-0.10546780486911937,0.006991981528699398,0.1532597015800744,0.9815361182190182,0.2979826677821768,right,0.0010113716125488281,-0.11984941386664179,-1.896800420039892,-9.549751460438966,-0.04443788287471842,-0.0024010741617530584,-0.002754718065261841,1.1725094827223568,0.0025890320539474487
1746231716070730200,13.233730224609374,-0.19572148038306306,0.0005424917326308787,-0.10529704726240179,0.005955751985311508,0.15326022014149768,0.9815530557300496,0.2979989082116668,right,0.0003903508186340332,-0.11985683848385126,-1.893458708396554,-9.550405540433525,-0.04446747747160176,0.0036500783171504736,-0.0027085989713668823,1.1725817442409694,0.0020723864436149597
