time,seconds_elapsed,roll,rotationRateZ,quaternionY,rotationRateY,quaternionZ,quaternionW,yaw,devicelocation,accelerationZ,pitch,gravityX,gravityZ,quaternionX,rotationRateX,accelerationX,gravityY,accelerationY
2025-04-30 01:01:01.809731600,0.475731689453125,0.8593382980211393,-0.0006184577941894,0.4129898573608052,0.0008597039850428,5.990849641104822e-17,0.9071820427750849,0.0671548780592035,left,-0.312150239944458,-0.1463490728648187,7.348260822093486,-6.334691682070494,-0.080373732343063,0.0045637069270014,-0.7212147116661072,1.4300766422599551,0.140860378742218
2025-04-30 01:01:01.849731300,0.5157314453125,0.3266527944220064,0.0112295215949416,0.1727425579001203,0.0063311606645584,-0.1106692902250518,0.971082733328677,-0.1806811917158393,left,-0.045953631401062,-0.2789963592574297,3.02503025072664,-8.92894128279686,-0.1221092469560483,-0.0051531251519918,-0.2810118198394775,2.7006632720485326,0.013197124004364
2025-04-30 01:01:01.889731300,0.5557314453125,0.1051012158895331,0.0054431315511465,0.0728005036569321,-0.0021998854354023,-0.1524989499661879,0.9760939798026548,-0.2944268771909401,left,-0.002156913280487,-0.2932355894955424,0.984879636633396,-9.33623555100858,-0.1366913491342745,-0.0061345370486378,-0.0727221146225929,2.834624583248794,-0.00340536236763
2025-04-30 01:01:01.929731300,0.5957314453125,0.0520475028781781,0.0009234920144081,0.0488554373893649,-0.0020529150497168,-0.1621928565751613,0.975505919634609,-0.3218118296989531,left,0.0007910728454589,-0.2938602468717299,0.4883119977969676,-9.37355668914318,-0.1403380194185383,-0.00075318897143,-0.0226147137582302,2.8404885068461296,-0.0021918416023254
2025-04-30 01:01:01.969731600,0.635731689453125,0.0355484557121869,-0.0006727772997692,0.0413496971455052,-0.0015822385903447,-0.1651403217526994,0.9752376594223444,-0.3302348666289044,left,-3.80873680114e-05,-0.2931978448376977,0.3336646030511707,-9.382215211895108,-0.1411748540304902,-0.0003866757033392,-0.00875661149621,2.834270362983644,-5.20050525665e-05
2025-04-30 01:01:02.009731600,0.675731689453125,0.0298403599672562,-0.0008792398148216,0.0387272148801347,0.0011181801091879,-0.1661231329057493,0.9751530676528214,-0.3330732218800609,left,-0.0010367035865783,-0.2927044636779018,0.2801465460164472,-9.38536344679296,-0.1413499831834565,-0.0044209831394255,-0.0048135537654161,2.829638027007878,0.0004079341888427
2025-04-30 01:01:02.049731600,0.715731689453125,0.028770686843458,-0.0002728959079831,0.0382531421987931,0.0090036010369658,-0.1663320078288159,0.9751195284899996,-0.3336575082297218,left,-0.001230776309967,-0.2927804324786225,0.2701009345539845,-9.385442941769956,-0.1414647111405911,-0.003925017081201,-0.0015476644039154,2.83035143597424,0.0009067356586456
2025-04-30 01:01:02.089731300,0.7557314453125,0.0281224818923765,-0.0053012631833553,0.0379633650292467,0.0077107385732233,-0.1665002063113522,0.975099668856354,-0.3340959103525569,left,0.0027673840522766,-0.2927218611114296,0.2640218521023169,-9.385781964465975,-0.1414817182159558,0.0044930214062333,0.0002301279455423,2.829801400876045,-0.0030046105384826
2025-04-30 01:01:02.129731300,0.7957314453125,0.0278126460723569,-0.0082710171118378,0.0378094969196563,0.0071025006473064,-0.1667679955987308,0.9750964190219026,-0.3346841650085888,left,0.0008453726768493,-0.2921760375694182,0.2611566901958547,-9.387405766275524,-0.1412300813113152,0.0117217116057872,0.0007338039577007,2.8246760206863284,-0.0010182261466979
2025-04-30 01:01:02.169731300,0.8357314453125,0.0278126460723569,-0.0009176647290587,0.0378094969196563,0.0010098717175424,-0.1667679955987308,0.9750964190219026,-0.3346841650085888,left,0.0006649494171142,-0.2921760375694182,0.2611566901958547,-9.387405766275524,-0.1412300813113152,0.001633608713746,0.0008738692849874,2.8246760206863284,0.0011093020439147
2025-04-30 01:01:02.209731600,0.875731689453125,0.0278126460723569,0.0110846990719437,0.0378094969196563,-0.0008182731689885,-0.1667679955987308,0.9750964190219026,-0.3346841650085888,left,0.001163899898529,-0.2921760375694182,0.2611566901958547,-9.387405766275524,-0.1412300813113152,-0.0070887152105569,0.0013169255107641,2.8246760206863284,0.0008982419967651
2025-04-30 01:01:02.249731600,0.915731689453125,0.0278126460723569,0.0048599932342767,0.0378094969196563,-0.0040077520534396,-0.1667679955987308,0.9750964190219026,-0.3346841650085888,left,0.0032591223716735,-0.2921760375694182,0.2611566901958547,-9.387405766275524,-0.1412300813113152,-0.0034261581022292,0.0016167573630809,2.8246760206863284,-0.0025351345539093
2025-04-30 01:01:02.289731600,0.955731689453125,0.0278126460723569,-0.0068796398118138,0.0378094969196563,-0.0069701308384537,-0.1667679955987308,0.9750964190219026,-0.3346841650085888,left,0.0011538863182067,-0.2921760375694182,0.2611566901958547,-9.387405766275524,-0.1412300813113152,-0.0005389980506151,0.0010337978601455,2.8246760206863284,-0.000426560640335
2025-04-30 01:01:02.329731600,0.995731689453125,0.0278126460723569,-0.0061853798106312,0.0378094969196563,-0.0056735938414931,-0.1667679955987308,0.9750964190219026,-0.3346841650085888,left,0.0014050602912902,-0.2921760375694182,0.2611566901958547,-9.387405766275524,-0.1412300813113152,-0.0019184767734259,-0.0011684745550155,2.8246760206863284,0.003808319568634
2025-04-30 01:01:02.369731300,1.0357314453125,0.0278126460723569,0.0073654586449265,0.0378094969196563,-0.007182418834418,-0.1667679955987308,0.9750964190219026,-0.3346841650085888,left,0.0030803084373474,-0.2921760375694182,0.2611566901958547,-9.387405766275524,-0.1412300813113152,0.0036353070754557,-0.0025034993886947,2.8246760206863284,0.0030151009559631
2025-04-30 01:01:02.409731300,1.0757314453125,0.0278126460723569,0.0088449036702513,0.0378094969196563,-0.0079086627811193,-0.1667679955987308,0.9750964190219026,-0.3346841650085888,left,0.0017818808555603,-0.2921760375694182,0.2611566901958547,-9.387405766275524,-0.1412300813113152,0.0060319695621728,-0.0017608888447284,2.8246760206863284,0.0003979802131652
2025-04-30 01:01:02.449731600,1.115731689453125,0.0272673330715784,0.0029059168882668,0.0375193232611409,-0.0043568233959376,-0.1664591465924384,0.9751394657812484,-0.3341317169687491,left,-0.0015214681625366,-0.2923571054213646,0.2560236381563358,-9.387035179397463,-0.1413742603462581,0.0033736850600689,-0.002143207937479,2.826376394863426,-0.0015414357185363
2025-04-30 01:01:02.489731600,1.155731689453125,0.0272673330715784,-0.0023853732272982,0.0375193232611409,0.000109314918518,-0.1664591465924384,0.9751394657812484,-0.3341317169687491,left,-0.0002673268318176,-0.2923571054213646,0.2560236381563358,-9.387035179397463,-0.1413742603462581,0.0012423440348356,-0.0021269991993904,2.826376394863426,-0.0015497505664825
2025-04-30 01:01:02.529731600,1.195731689453125,0.0272673330715784,-0.0026294882409274,0.0375193232611409,-0.0019180397503077,-0.1664591465924384,0.9751394657812484,-0.3341317169687491,left,0.0023093223571777,-0.2923571054213646,0.2560236381563358,-9.387035179397463,-0.1413742603462581,4.11763321608e-05,-0.00123474560678,2.826376394863426,8.35955142974e-05
2025-04-30 01:01:02.569731600,1.235731689453125,0.0272673330715784,0.0006732959300279,0.0375193232611409,0.0014329082332551,-0.1664591465924384,0.9751394657812484,-0.3341317169687491,left,0.0009735822677612,-0.2923571054213646,0.2560236381563358,-9.387035179397463,-0.1413742603462581,0.0027702366933226,-0.0009757168591022,2.826376394863426,-0.0001294314861297
2025-04-30 01:01:02.609731300,1.2757314453125,0.0267216249140347,0.00302230194211,0.0372245537879052,-0.003112397622317,-0.1664380821895551,0.9751747893035204,-0.3341632948698844,left,0.0012975335121154,-0.2919766973706605,0.2509297125508077,-9.388248062318564,-0.1412334792189191,0.0069139790721237,-0.0007540453225374,2.822803797073662,-0.0025507807731628
2025-04-30 01:01:02.649731300,1.3157314453125,0.0267216249140347,0.0044056829065084,0.0372245537879052,0.0090423375368118,-0.1664380821895551,0.9751747893035204,-0.3341632948698844,left,-0.005979299545288,-0.2919766973706605,0.2509297125508077,-9.388248062318564,-0.1412334792189191,-0.0089030563831329,0.0002405997365713,2.822803797073662,0.002847284078598
2025-04-30 01:01:02.689731300,1.3557314453125,0.0267216249140347,0.0012255667243152,0.0372245537879052,0.0039021479897201,-0.1664380821895551,0.9751747893035204,-0.3341632948698844,left,0.0038384199142456,-0.2919766973706605,0.2509297125508077,-9.388248062318564,-0.1412334792189191,-0.0200743302702903,-0.0012702923268079,2.822803797073662,-0.0012074708938598
2025-04-30 01:01:02.729731600,1.395731689453125,0.0267216249140347,-0.0044265072792768,0.0372245537879052,0.0048054559156298,-0.1664380821895551,0.9751747893035204,-0.3341632948698844,left,0.0026191473007202,-0.2919766973706605,0.2509297125508077,-9.388248062318564,-0.1412334792189191,-0.000878669321537,-4.39956784248e-05,2.822803797073662,-0.0014736056327819
2025-04-30 01:01:02.769731600,1.435731689453125,0.0267216249140347,-0.0018306418787688,0.0372245537879052,0.0062225563451647,-0.1664380821895551,0.9751747893035204,-0.3341632948698844,left,0.0011197328567504,-0.2919766973706605,0.2509297125508077,-9.388248062318564,-0.1412334792189191,0.0018871761858463,0.000451348721981,2.822803797073662,0.0007766187191009
2025-04-30 01:01:02.809731600,1.475731689453125,0.0267216249140347,0.0005947775207459,0.0372245537879052,-0.0017634406685829,-0.1664380821895551,0.9751747893035204,-0.3341632948698844,left,0.0013321042060852,-0.2919766973706605,0.2509297125508077,-9.388248062318564,-0.1412334792189191,-0.0025267787277698,-0.000146921724081,2.822803797073662,0.001962661743164
2025-04-30 01:01:02.849731300,1.5157314453125,0.0267216249140347,-0.0022010691463947,0.0372245537879052,-0.0025981119833886,-0.1664380821895551,0.9751747893035204,-0.3341632948698844,left,-0.000314712524414,-0.2919766973706605,0.2509297125508077,-9.388248062318564,-0.1412334792189191,-0.0007851268164813,-0.0006686672568321,2.822803797073662,0.0005614757537841
2025-04-30 01:01:02.889731300,1.5557314453125,0.0267216249140347,0.0015733034815639,0.0372245537879052,-0.0007993918843567,-0.1664380821895551,0.9751747893035204,-0.3341632948698844,left,0.000267744064331,-0.2919766973706605,0.2509297125508077,-9.388248062318564,-0.1412334792189191,0.0046663894318044,7.5489282608e-05,2.822803797073662,-0.0017422437667846
2025-04-30 01:01:02.929731300,1.5957314453125,0.0267216249140347,-0.0041250605136156,0.0372245537879052,0.0112803187221288,-0.1664380821895551,0.9751747893035204,-0.3341632948698844,left,-0.0029534697532653,-0.2919766973706605,0.2509297125508077,-9.388248062318564,-0.1412334792189191,0.0140424203127622,0.0020251348614692,2.822803797073662,-0.0044066607952117
2025-04-30 01:01:02.969731600,1.635731689453125,0.0267216249140347,-0.0082920882850885,0.0372245537879052,0.0008671311661601,-0.1664380821895551,0.9751747893035204,-0.3341632948698844,left,-7.93933868408e-05,-0.2919766973706605,0.2509297125508077,-9.388248062318564,-0.1412334792189191,-0.0019380562007427,1.91666185855e-05,2.822803797073662,-3.27825546264e-05
2025-04-30 01:01:03.009731600,1.675731689453125,0.0267216249140347,0.0049979612231254,0.0372245537879052,0.0003190415445715,-0.1664380821895551,0.9751747893035204,-0.3341632948698844,left,0.000470221042633,-0.2919766973706605,0.2509297125508077,-9.388248062318564,-0.1412334792189191,-0.0117722488939762,-0.0004232935607433,2.822803797073662,0.0009498298168182
2025-04-30 01:01:03.049731600,1.715731689453125,0.0267216249140347,0.0076440828852355,0.0372245537879052,0.0025689182803034,-0.1664380821895551,0.9751747893035204,-0.3341632948698844,left,0.0007739663124084,-0.2919766973706605,0.2509297125508077,-9.388248062318564,-0.1412334792189191,-0.0023124255239963,4.119053483e-05,2.822803797073662,3.92198562622e-05
2025-04-30 01:01:03.089731300,1.7557314453125,0.0267216249140347,-0.0020731412805616,0.0372245537879052,0.0035278315190225,-0.1664380821895551,0.9751747893035204,-0.3341632948698844,left,0.0006658434867858,-0.2919766973706605,0.2509297125508077,-9.388248062318564,-0.1412334792189191,0.0012099060695618,0.0019704550504684,2.822803797073662,-0.0024641156196594
2025-04-30 01:01:03.129731300,1.7957314453125,0.0267216249140347,-0.011887963861227,0.0372245537879052,-0.0016104152891784,-0.1664380821895551,0.9751747893035204,-0.3341632948698844,left,0.0009412169456481,-0.2919766973706605,0.2509297125508077,-9.388248062318564,-0.1412334792189191,-0.0002938145771622,0.0011628102511167,2.822803797073662,-0.0007763504981994
2025-04-30 01:01:03.169731300,1.8357314453125,0.0267705792714152,-0.0054635507985949,0.0373559887442495,-0.0036911589559167,-0.166951112047737,0.9750564553802674,-0.3352131363721342,left,0.001290738582611,-0.2923866328645919,0.2513583132264204,-9.38707784949541,-0.1414098309994175,-0.0006147380918264,0.0003917962312698,2.826653458239138,0.0009998381137847
2025-04-30 01:01:03.209731600,1.875731689453125,0.0267705792714152,0.0057549430057406,0.0373559887442495,-0.0024749108124524,-0.166951112047737,0.9750564553802674,-0.3352131363721342,left,0.0005611777305603,-0.2923866328645919,0.2513583132264204,-9.38707784949541,-0.1414098309994175,-0.0018610573606565,-0.0013587847352027,2.826653458239138,0.001336395740509
2025-04-30 01:01:03.249731600,1.915731689453125,0.0267705792714152,0.0088651040568947,0.0373559887442495,0.0010209325700998,-0.166951112047737,0.9750564553802674,-0.3352131363721342,left,-0.0003993511199951,-0.2923866328645919,0.2513583132264204,-9.38707784949541,-0.1414098309994175,-0.0011778699699789,-0.0003058705478906,2.826653458239138,-0.0001290738582611
2025-04-30 01:01:03.289731600,1.955731689453125,0.0267705792714152,-0.0003590183332562,0.0373559887442495,0.0060079838149249,-0.166951112047737,0.9750564553802674,-0.3352131363721342,left,0.0006690621376037,-0.2923866328645919,0.2513583132264204,-9.38707784949541,-0.1414098309994175,0.0037719986867159,-0.0001118928194046,2.826653458239138,-0.0027428865432739
2025-04-30 01:01:03.329731600,1.995731689453125,0.0267705792714152,-0.0106812184676527,0.0373559887442495,0.0059685762971639,-0.166951112047737,0.9750564553802674,-0.3352131363721342,left,0.0013737082481384,-0.2923866328645919,0.2513583132264204,-9.38707784949541,-0.1414098309994175,0.0075291828252375,0.0004696920514106,2.826653458239138,-0.0017507672309875
2025-04-30 01:01:03.369731300,2.0357314453125,0.0267705792714152,-0.00378243252635,0.0373559887442495,0.0010748822242021,-0.166951112047737,0.9750564553802674,-0.3352131363721342,left,0.0027185082435607,-0.2923866328645919,0.2513583132264204,-9.38707784949541,-0.1414098309994175,0.0049243485555052,-0.001120300963521,2.826653458239138,-0.0015980005264282
2025-04-30 01:01:03.409731300,2.0757314453125,0.0267705792714152,0.0031163529492914,0.0373559887442495,-0.0038188113830983,-0.166951112047737,0.9750564553802674,-0.3352131363721342,left,0.0040633082389831,-0.2923866328645919,0.2513583132264204,-9.38707784949541,-0.1414098309994175,0.0023195147514343,-0.0027102939784526,2.826653458239138,-0.0014452338218688
2025-04-30 01:01:03.449731600,2.115731689453125,0.0267705792714152,0.0144746955484151,0.0373559887442495,0.0147930197417736,-0.166951112047737,0.9750564553802674,-0.3352131363721342,left,-0.0044012069702148,-0.2923866328645919,0.2513583132264204,-9.38707784949541,-0.1414098309994175,-0.0001270286738872,0.0011129640042781,2.826653458239138,0.0031647086143493
2025-04-30 01:01:03.489731600,2.155731689453125,0.0277444535923006,0.0097293201833963,0.0377986558191626,0.003633527085185,-0.166811607181337,0.9750755334799792,-0.3347855309758232,left,0.0038195252418518,-0.2923632566708324,0.2605018612826243,-9.38689489414394,-0.1413252010706996,-0.0060015623457729,0.0003077108412981,2.8264339702695604,-0.0017887651920318
2025-04-30 01:01:03.529731600,2.195731689453125,0.0277444535923006,0.0023799939081072,0.0377986558191626,-0.0002842210233211,-0.166811607181337,0.9750755334799792,-0.3347855309758232,left,0.0030639171600341,-0.2923632566708324,0.2605018612826243,-9.38689489414394,-0.1413252010706996,0.0017937715165317,0.00058957003057,2.8264339702695604,-0.0004920363426208
2025-04-30 01:01:03.569731600,2.235731689453125,0.0277444535923006,0.0070528676733374,0.0377986558191626,0.0023824905510991,-0.166811607181337,0.9750755334799792,-0.3347855309758232,left,0.0011199116706848,-0.2923632566708324,0.2605018612826243,-9.38689489414394,-0.1413252010706996,4.20594587922e-05,0.0003445874899625,2.8264339702695604,0.0003571510314941
2025-04-30 01:01:03.609731300,2.2757314453125,0.0277444535923006,0.0006349124014377,0.0377986558191626,-0.0001645786687731,-0.166811607181337,0.9750755334799792,-0.3347855309758232,left,0.0009113550186157,-0.2923632566708324,0.2605018612826243,-9.38689489414394,-0.1413252010706996,-0.005100970622152,0.0011497903615236,2.8264339702695604,0.0004136264324188
2025-04-30 01:01:03.649731300,2.3157314453125,0.0277444535923006,-0.0055876625701785,0.0377986558191626,-0.0008656480931676,-0.166811607181337,0.9750755334799792,-0.3347855309758232,left,8.8632106781e-05,-0.2923632566708324,0.2605018612826243,-9.38689489414394,-0.1413252010706996,-0.00199033645913,0.0025373958051204,2.8264339702695604,-0.0009556710720062
2025-04-30 01:01:03.689731300,2.3557314453125,0.0277444535923006,-0.0033993513789027,0.0377986558191626,-0.0054313694126904,-0.166811607181337,0.9750755334799792,-0.3347855309758232,left,0.000200867652893,-0.2923632566708324,0.2605018612826243,-9.38689489414394,-0.1413252010706996,0.0049037826247513,0.0009184516966342,2.8264339702695604,-0.0012862980365753
2025-04-30 01:01:03.729731600,2.395731689453125,0.0280586764811461,0.0175146907567977,0.0377036653547358,0.0106613356620073,-0.1664668214889535,0.9753072325714685,-0.3340073618937045,left,0.0062856674194335,-0.2899845034934347,0.263639300791826,-9.393506421238184,-0.1401530450343442,0.1815014034509658,0.0032089203596115,2.804088282948732,-0.0378587841987609
2025-04-30 01:01:03.769731600,2.435731689453125,0.0288624019380339,0.0612597689032554,0.0367238739741091,0.0752220973372459,-0.1661419244328197,0.976505149911264,-0.3330736929810864,left,-0.0314961671829223,-0.2738676865933696,0.2724579460089095,-9.437243856155872,-0.1322339395697045,0.6757376194000244,0.013948542997241,2.6522777190640565,-0.056736871600151
2025-04-30 01:01:03.809731600,2.475731689453125,0.0318881586627523,0.0786681547760963,0.0353995101477937,0.0833088681101799,-0.1656787164305588,0.9787328261558506,-0.3315254194481404,left,-0.001982569694519,-0.2404591021981916,0.3036680721836164,-9.519657935470342,-0.115669285785699,0.9024566411972046,-0.0023251697421073,2.3354399668470025,0.0518468022346496
2025-04-30 01:01:03.849731300,2.5157314453125,0.0354868080376675,0.0927326455712318,0.0344472615956722,0.066113106906414,-0.1646230359023466,0.9806914131269192,-0.3289128146693896,left,-0.0006332993507385,-0.2085668794418475,0.3403942400997504,-9.58808615953028,-0.099784917997605,0.6286931037902832,-0.0107539016753435,2.0305463349238035,0.0862503051757812
2025-04-30 01:01:03.889731300,2.5557314453125,0.0370976832542698,0.0556078851222991,0.0339824989899263,-0.0147220268845558,-0.163570077837204,0.9815798682378872,-0.3266288951098179,left,0.0125288367271423,-0.1942975027494859,0.356877392062731,-9.61550315876603,-0.0926874469386711,0.127631664276123,-0.0163750629872083,1.8934420495226976,0.0538349151611328
2025-04-30 01:01:03.929731300,2.5957314453125,0.0356620403905237,-0.0193167850375175,0.0334416094796701,-0.0692994445562362,-0.1629743781016402,0.9815592471805372,-0.3255462421609254,left,0.0104508996009826,-0.196979748561735,0.3428902946991846,-9.610895372709631,-0.0941400792654208,-0.2184401154518127,0.0028980709612369,1.9192441609077155,-0.0148592144250869
2025-04-30 01:01:03.969731600,2.635731689453125,0.03271476715452,-0.0282567404210567,0.0331235699976483,-0.0590332001447677,-0.1632453122189004,0.9808378128466098,-0.3263877876582119,left,-0.0030248761177062,-0.2105921101946579,0.3136792516535148,-9.58486310583055,-0.101048525911579,-0.4117016494274139,0.0067742690443992,2.04997248153612,-0.0218299031257629
2025-04-30 01:01:04.009731600,2.675731689453125,0.0312299252194745,0.0185914561152458,0.0337295971880133,-0.0300027579069137,-0.1629789010980195,0.9799558076723908,-0.3260394898183217,left,-0.0051872730255126,-0.2275302647113493,0.2983197882245295,-9.5492394192636,-0.1094833590411378,-0.4341387450695038,0.0021950062364339,2.2121074555583298,-0.0317994207143783
2025-04-30 01:01:04.049731600,2.715731689453125,0.0305668621280238,0.0421889722347259,0.034439684304982,-0.0424784123897552,-0.1619441567602368,0.9792761535790006,-0.3240595831189608,left,0.00156831741333,-0.2419651548797928,0.290981682155095,-9.516524313619732,-0.1166455364368978,-0.328248918056488,-0.0017068125307559,2.3497817959323526,-0.0341114252805709
2025-04-30 01:01:04.089731300,2.7557314453125,0.0293318870430373,0.0267096981406211,0.0344957973869465,-0.0414665564894676,-0.1609404605025497,0.9788414886005414,-0.3222107004493306,left,-0.0062701702117919,-0.2517338025963929,0.2785422891575843,-9.49347836907506,-0.1215620471578815,-0.2174806594848632,0.0009956657886505,2.442675183685124,-0.0238326340913772
2025-04-30 01:01:04.129731300,2.7957314453125,0.0285237803040431,0.0008444264531135,0.0345300168458496,-0.0138047486543655,-0.1604376538744536,0.9785329286911276,-0.3213238496169613,left,-0.0065107941627502,-0.2579002025839039,0.2704357194663025,-9.47846375529468,-0.1246615859905799,-0.1461873650550842,0.0014772787690162,2.5011940081492066,-0.0187182426452636
2025-04-30 01:01:04.169731300,2.8357314453125,0.0281749935084672,-0.0364463329315185,0.0347905788436209,-0.0021297456696629,-0.1607019774185394,0.978163460833934,-0.321944430288082,left,-0.0008646249771118,-0.2628974218944648,0.2667743108819239,-9.465945049983262,-0.1271248051478297,-0.1573438197374344,-0.0023409184068441,2.548547879998386,-0.002135694026947
2025-04-30 01:01:04.209731600,2.875731689453125,0.0279592356433365,-0.0333645977079868,0.0353778637682226,-0.0012970594689249,-0.1612713562637131,0.9775470654686368,-0.3231981361297421,left,0.0081452131271362,-0.2706772694340131,0.2641696448088623,-9.445896533688902,-0.1309262975325137,-0.2562304437160492,-0.0056937988847494,2.62214298530221,0.0125329196453094
2025-04-30 01:01:04.249731600,2.915731689453125,0.0272665222556018,-0.0151156987994909,0.0359168237852835,-0.0061800871044397,-0.1615997181230369,0.9767729268622982,-0.3240569556622346,left,0.0026849508285522,-0.2810785180739701,0.2568688020098954,-9.418303593364357,-0.1360519414422656,-0.2361488789319992,0.0009641367942094,2.720286840929091,-0.0069493949413299
2025-04-30 01:01:04.289731600,2.955731689453125,0.0268832370376577,-0.0462607629597187,0.0360794189721171,0.0065627871081233,-0.1621151909266354,0.9764447232417038,-0.325199881555175,left,0.001851201057434,-0.2845134723659115,0.2530062265639193,-9.409005019143224,-0.1377407578386258,0.0642574280500412,0.0021823775023221,2.7526342823043466,-0.0095492303371429
2025-04-30 01:01:04.329731600,2.995731689453125,0.0267906358111534,-0.0518983379006385,0.0356369597652416,0.0236439071595668,-0.1632457791678209,0.9767489479976874,-0.3274597128188003,left,0.0029696822166442,-0.2775820869440561,0.2526399688011035,-9.427875139307975,-0.1343210701773754,0.2446213215589523,-0.006075968965888,2.6873276973962783,0.0347993075847625
2025-04-30 01:01:04.369731300,3.0357314453125,0.0277442271696579,-0.032291792333126,0.0354198632484289,0.0425108224153518,-0.1643283648315594,0.9772613469797988,-0.3294548137004542,left,-3.27229499816e-05,-0.2674109033397473,0.2623748886128887,-9.454464455547928,-0.1292357841747263,0.2375316470861435,-0.0081823468208312,2.591263278391957,0.0450084209442138
2025-04-30 01:01:04.409731300,3.0757314453125,0.0292056132861763,-0.0095906443893909,0.0356017759657042,0.0428057946264743,-0.1649999253285181,0.97763783487762,-0.3305796690220446,left,0.0031760334968566,-0.2599075123915506,0.2767512227560393,-9.473239883166553,-0.125426094507553,0.1642120480537414,-0.0072198063135147,2.5202231182679533,0.0273154377937316
2025-04-30 01:01:04.449731600,3.115731689453125,0.0306578698642102,0.0159848947077989,0.0360144889554745,0.0298243295401334,-0.1651142287527326,0.9778495160938314,-0.3306038844332093,left,0.0054956078529357,-0.2562021947505016,0.2907927537205629,-9.482096558839082,-0.123493202530808,0.0659151375293731,-0.0039544943720102,2.485089553305506,0.0116036832332611
2025-04-30 01:01:04.489731600,3.155731689453125,0.0317174781220895,0.0345234349370002,0.0364674043531805,0.0170451812446117,-0.1647045241147626,0.9779145413149082,-0.3296317863874826,left,0.0036150217056274,-0.2561378895475779,0.3008449593205936,-9.481942829582094,-0.1233919917786946,-0.0246018692851066,-0.0005227401852607,2.4844796047136186,0.0003710985183715
2025-04-30 01:01:04.529731600,3.195731689453125,0.0323973964566106,0.0328155383467674,0.0368826383241133,0.0075714029371738,-0.1639966998328361,0.9778845248809852,-0.3281100028106233,left,-0.0003344416618347,-0.2583473225821837,0.3071132807340472,-9.47622620550096,-0.124445066116134,-0.0597294755280017,0.0034752935171127,2.505433545415104,-0.0183079242706298
2025-04-30 01:01:04.569731600,3.235731689453125,0.0330233975926219,0.0083694346249103,0.0372695862208478,0.008072217926383,-0.1634974604198456,0.9778406774767155,-0.3270186566824509,left,-0.001037061214447,-0.2602150490496852,0.3128902932329103,-9.47133901798129,-0.1253278818533875,-0.0297529585659503,0.0054828450083732,2.5231375444099307,-0.0242033451795578
2025-04-30 01:01:04.609731300,3.2757314453125,0.0330233975926219,-0.0163173507899045,0.0372695862208478,-0.0022843452170491,-0.1634974604198456,0.9778406774767155,-0.3270186566824509,left,0.0012572407722473,-0.2602150490496852,0.3128902932329103,-9.47133901798129,-0.1253278818533875,0.0022662468254566,0.0034039318561553,2.5231375444099307,-0.0178766250610351
2025-04-30 01:01:04.649731300,3.3157314453125,0.032911711866633,-0.0083158845081925,0.0372196147518387,-0.001940599293448,-0.1637485904820339,0.977822909018335,-0.3275447956879876,left,0.0005843043327331,-0.259859816008301,0.3118619730984792,-9.472268992307782,-0.1251534177593731,-0.0080383960157632,0.0011586993932724,2.519770990586281,-0.0099440962076187
2025-04-30 01:01:04.689731600,3.355731689453125,0.032911711866633,-0.000314419157803,0.0372196147518387,-0.0015968533698469,-0.1637485904820339,0.977822909018335,-0.3275447956879876,left,-0.0001834630966186,-0.259859816008301,0.3118619730984792,-9.472268992307782,-0.1251534177593731,-0.0183430388569831,-0.0011913925409317,2.519770990586281,-0.0023548603057861
2025-04-30 01:01:04.729731600,3.395731689453125,0.0328237622214398,0.0061925305053591,0.0372657486544555,-0.0007376211578957,-0.1638460939056569,0.9777449025449316,-0.3277604254459024,left,0.0007449388504028,-0.2608073605564848,0.3109503746788948,-9.46990577030778,-0.125620188775715,-0.052701823413372,-0.0014989040791988,2.528750123594701,0.0009033679962158
2025-04-30 01:01:04.769731600,3.435731689453125,0.0327177880377494,-0.0002720933407545,0.0373953966862282,-0.0059173619374632,-0.1637526608231401,0.977602337092034,-0.3275959786471864,left,0.0013267993927001,-0.263211687987597,0.3097470267711207,-9.463834925961494,-0.1268080910455269,-0.0679406449198722,0.0004785470664501,2.551523973199725,0.0010299086570739
2025-04-30 01:01:04.809731600,3.475731689453125,0.0323049265677654,-0.0068437382578849,0.0374148876249557,-0.0098025687038898,-0.1637732830501041,0.9774226363700286,-0.3277073931018249,left,0.0028883814811706,-0.2658966568017674,0.3056173796204849,-9.457080191004277,-0.1281530589827369,-0.0639900937676429,0.0008728597313165,2.576938400441408,0.0038135349750518
2025-04-30 01:01:04.849731300,3.5157314453125,0.0316748329006637,-0.0036840152461081,0.0372930471751552,-0.0181001089513301,-0.1637760715854816,0.9772755407208842,-0.3278101162640135,left,0.0019207000732421,-0.2681460191425892,0.2994741458914242,-9.451453583294152,-0.1293027086276586,-0.0475878566503524,6.01559877395e-05,2.5982152894869444,0.0080795884132385
2025-04-30 01:01:04.889731300,3.5557314453125,0.0309184601107685,0.0042006270959973,0.037036640971276,-0.0181085728108882,-0.1636734773548869,0.9771966470092068,-0.32771058340202,left,-0.0004737377166748,-0.2696451396152156,0.2922044836820103,-9.447773433476684,-0.1300994968281249,-0.0237472001463174,-0.0011657252907752,2.61238848400712,0.0073371529579162
2025-04-30 01:01:04.929731300,3.5957314453125,0.030396668087526,0.0023170546628534,0.0368232103305884,-0.009923349134624,-0.1635183605214024,0.977177573136001,-0.3274678157516976,left,0.0004329085350036,-0.2703639362235423,0.2872175438486039,-9.446045586770772,-0.1304980973795631,-0.006521813571453,-0.0021988544613122,2.6191820896700024,0.0057634711265563
2025-04-30 01:01:04.969731600,3.635731689453125,0.030396668087526,-0.0015993388369679,0.0368232103305884,-0.0063878064975142,-0.1635183605214024,0.977177573136001,-0.3274678157516976,left,0.0014034509658813,-0.2703639362235423,0.2872175438486039,-9.446045586770772,-0.1304980973795631,0.009787730872631,-0.002617647871375,2.6191820896700024,0.0015870034694671
2025-04-30 01:01:05.009731600,3.675731689453125,0.030396668087526,0.0004278954584151,0.0368232103305884,0.0014635529369115,-0.1635183605214024,0.977177573136001,-0.3274678157516976,left,0.0001207590103149,-0.2703639362235423,0.2872175438486039,-9.446045586770772,-0.1304980973795631,0.0157930813729763,-0.0014682803303003,2.6191820896700024,0.0011864304542541
2025-04-30 01:01:05.049731600,3.715731689453125,0.0299882678822726,0.0062163891270756,0.0365478112548796,0.0003950335085391,-0.1634910535278524,0.9772494701638376,-0.3274594170376673,left,-8.32676887512e-05,-0.2694195610174525,0.2834337875261902,-9.448630342566966,-0.1300699099967623,0.0169591717422008,-0.0010591074824333,2.610256148153544,0.0005353689193725
2025-04-30 01:01:05.089731300,3.7557314453125,0.0302033250325534,0.0074432492256164,0.0365968710316136,0.0066518443636596,-0.1633771591487826,0.97730011909311,-0.3271942152623451,left,-0.0012555122375488,-0.2689330717466759,0.2855040909942239,-9.44983738026917,-0.1298192950490932,0.0041106417775154,-0.0011501777917146,2.6056571299254894,0.0015067756175994
2025-04-30 01:01:05.129731300,3.7957314453125,0.0302033250325534,0.0010425047948956,0.0365968710316136,-0.0003043678589165,-0.1633771591487826,0.97730011909311,-0.3271942152623451,left,0.0037300586700439,-0.2689330717466759,0.2855040909942239,-9.44983738026917,-0.1298192950490932,-0.0055872006341814,-0.0010624155402183,2.6056571299254894,-0.000211477279663
2025-04-30 01:01:05.169731300,3.8357314453125,0.0302033250325534,0.0004204223514534,0.0365968710316136,-0.0004250072233844,-0.1633771591487826,0.97730011909311,-0.3271942152623451,left,0.0030484795570373,-0.2689330717466759,0.2855040909942239,-9.44983738026917,-0.1298192950490932,-0.0006284629926085,-0.0007958021014928,2.6056571299254894,-0.0002457499504089
2025-04-30 01:01:05.209731600,3.875731689453125,0.0302033250325534,-0.0002016600919887,0.0365968710316136,-0.0005456465878523,-0.1633771591487826,0.97730011909311,-0.3271942152623451,left,0.0023669004440307,-0.2689330717466759,0.2855040909942239,-9.44983738026917,-0.1298192950490932,0.0043302755802869,-0.0005291886627674,2.6056571299254894,-0.0002800226211547
2025-04-30 01:01:05.249731600,3.915731689453125,0.0302033250325534,0.0009452843805775,0.0365968710316136,0.0008625153568573,-0.1633771591487826,0.97730011909311,-0.3271942152623451,left,-0.0003359913825988,-0.2689330717466759,0.2855040909942239,-9.44983738026917,-0.1298192950490932,0.0013271800708025,0.0007649529725313,2.6056571299254894,0.0018714666366577
2025-04-30 01:01:05.289731600,3.955731689453125,0.0302033250325534,0.0025595417246222,0.0365968710316136,0.0007623790297657,-0.1633771591487826,0.97730011909311,-0.3271942152623451,left,-0.0006560683250427,-0.2689330717466759,0.2855040909942239,-9.44983738026917,-0.1298192950490932,-0.0044295545667409,0.0002261046320199,2.6056571299254894,0.002283900976181
2025-04-30 01:01:05.329731600,3.995731689453125,0.0302033250325534,0.0051189763471484,0.0365968710316136,-0.0043075792491436,-0.1633771591487826,0.97730011909311,-0.3271942152623451,left,0.0008680820465087,-0.2689330717466759,0.2855040909942239,-9.44983738026917,-0.1298192950490932,-0.0004170592874288,-0.0004516523331403,2.6056571299254894,-9.21785831451e-05
2025-04-30 01:01:05.369731300,4.0357314453125,0.0302033250325534,0.0016244950238615,0.0365968710316136,0.0021982374601066,-0.1633771591487826,0.97730011909311,-0.3271942152623451,left,-0.0003548264503479,-0.2689330717466759,0.2855040909942239,-9.44983738026917,-0.1298192950490932,0.0024903996381908,-0.0008495040237903,2.6056571299254894,-0.0002373158931732
2025-04-30 01:01:05.409731300,4.0757314453125,0.0302033250325534,-0.0039759585633873,0.0365968710316136,-0.0025169379077851,-0.1633771591487826,0.97730011909311,-0.3271942152623451,left,-6.103515625e-05,-0.2689330717466759,0.2855040909942239,-9.44983738026917,-0.1298192950490932,-0.0026386624667793,8.15689563751e-05,2.6056571299254894,0.001013159751892
2025-04-30 01:01:05.449731600,4.115731689453125,0.0302033250325534,-0.0050424779765307,0.0365968710316136,0.0029118340462446,-0.1633771591487826,0.97730011909311,-0.3271942152623451,left,0.0005335211753845,-0.2689330717466759,0.2855040909942239,-9.44983738026917,-0.1298192950490932,0.0011501521803438,0.0001091547310352,2.6056571299254894,0.0009777545928955
2025-04-30 01:01:05.489731600,4.155731689453125,0.0302033250325534,-0.0021550990641117,0.0365968710316136,-0.0006356930825859,-0.1633771591487826,0.97730011909311,-0.3271942152623451,left,0.0031520128250122,-0.2689330717466759,0.2855040909942239,-9.44983738026917,-0.1298192950490932,0.0014767156681045,0.0002266280353069,2.6056571299254894,0.0024613738059997
2025-04-30 01:01:05.529731600,4.195731689453125,0.0302033250325534,-0.0006004434544593,0.0365968710316136,-0.0020696544088423,-0.1633771591487826,0.97730011909311,-0.3271942152623451,left,0.0023991465568542,-0.2689330717466759,0.2855040909942239,-9.44983738026917,-0.1298192950490932,-0.0002219195012003,0.0001793969422578,2.6056571299254894,0.0023538172245025
2025-04-30 01:01:05.569731600,4.235731689453125,0.0302033250325534,-0.0021418342366814,0.0365968710316136,-0.0063444119878113,-0.1633771591487826,0.97730011909311,-0.3271942152623451,left,0.0006054639816284,-0.2689330717466759,0.2855040909942239,-9.44983738026917,-0.1298192950490932,-0.0016511495923623,-0.0008880142122507,2.6056571299254894,0.0010839402675628
2025-04-30 01:01:05.609731300,4.2757314453125,0.0302033250325534,-0.0037765733432024,0.0365968710316136,-0.0061998921446502,-0.1633771591487826,0.97730011909311,-0.3271942152623451,left,0.0010082721710205,-0.2689330717466759,0.2855040909942239,-9.44983738026917,-0.1298192950490932,-0.00290133128874,-0.0019807610660791,2.6056571299254894,0.0020869672298431
2025-04-30 01:01:05.649731300,4.3157314453125,0.0293929251953275,0.0023230642545968,0.0362588989100793,-0.0071836519055068,-0.1634948752526191,0.977256421929068,-0.3275461793840238,left,5.93066215515e-05,-0.2693738644338536,0.2778120751868933,-9.448916758292912,-0.1300946400520164,-0.0002069571055471,-0.0018715914338827,2.609824186477065,0.0010249316692352
2025-04-30 01:01:05.689731600,4.355731689453125,0.0293929251953275,0.0067529892548918,0.0362588989100793,-0.0021704104728996,-0.1634948752526191,0.977256421929068,-0.3275461793840238,left,-9.3936920166e-05,-0.2693738644338536,0.2778120751868933,-9.448916758292912,-0.1300946400520164,0.0003530735266394,-0.0014449842274188,2.609824186477065,0.0005396306514739
2025-04-30 01:01:05.729731600,4.395731689453125,0.0293929251953275,0.0021357014775276,0.0362588989100793,-0.0010523316450417,-0.1634948752526191,0.977256421929068,-0.3275461793840238,left,0.0004493594169616,-0.2693738644338536,0.2778120751868933,-9.448916758292912,-0.1300946400520164,0.0014109476469457,-0.000887643545866,2.609824186477065,-0.00030979514122
2025-04-30 01:01:05.769731600,4.435731689453125,0.0293929251953275,-0.0015977835282683,0.0362588989100793,-0.0034844728652387,-0.1634948752526191,0.977256421929068,-0.3275461793840238,left,0.0037483572959899,-0.2693738644338536,0.2778120751868933,-9.448916758292912,-0.1300946400520164,0.0003488571383059,-0.0028465706855058,2.609824186477065,-0.0004344284534454
2025-04-30 01:01:05.809731600,4.475731689453125,0.0293929251953275,-0.0053312685340642,0.0362588989100793,-0.0059166140854358,-0.1634948752526191,0.977256421929068,-0.3275461793840238,left,0.007047414779663,-0.2693738644338536,0.2778120751868933,-9.448916758292912,-0.1300946400520164,-0.0007132333703339,-0.0048054978251457,2.609824186477065,-0.0005590617656707
2025-04-30 01:01:05.849731300,4.5157314453125,0.0286308088401062,-0.0029378836043179,0.0359077500698084,0.0056591555476188,-0.1636395414798778,0.9772414847887804,-0.3279432292445664,left,-0.0044002532958984,-0.2693163034275267,0.2706151128875091,-9.44927565473318,-0.1301216720665731,-0.0004823517811018,-0.0002833846956491,2.609279996597767,0.0020765662193298
2025-04-30 01:01:05.889731300,4.5557314453125,0.0286308088401062,0.0029843035154044,0.0359077500698084,0.0095606930553913,-0.1636395414798778,0.9772414847887804,-0.3279432292445664,left,0.0020063519477844,-0.2693163034275267,0.2706151128875091,-9.44927565473318,-0.1301216720665731,-0.0114998649805784,-0.0008425079286098,2.609279996597767,0.0038626790046691
2025-04-30 01:01:05.929731300,4.5957314453125,0.0289826469363531,0.0054786959663033,0.0361216143420573,-0.0012054136022925,-0.1635704062548985,0.9772047126816764,-0.3277602811859461,left,0.0049379467964172,-0.2699906586006631,0.2738886546654626,-9.447418628689649,-0.1304258852496909,-0.0069273118861019,-0.0010683760046958,2.615654207804799,0.0008716285228729
2025-04-30 01:01:05.969731600,4.635731689453125,0.0289826469363531,0.0114799812436103,0.0361216143420573,-0.0003019459545612,-0.1635704062548985,0.9772047126816764,-0.3277602811859461,left,0.0027337670326232,-0.2699906586006631,0.2738886546654626,-9.447418628689649,-0.1304258852496909,-0.0022046449594199,-0.0012598652392625,2.615654207804799,0.0023754239082336
2025-04-30 01:01:06.009731600,4.675731689453125,0.0289826469363531,0.0036656102165579,0.0361216143420573,0.004036346450448,-0.1635704062548985,0.9772047126816764,-0.3277602811859461,left,0.0004091262817382,-0.2699906586006631,0.2738886546654626,-9.447418628689649,-0.1304258852496909,-0.0037473137490451,-0.0001264177262783,2.615654207804799,0.0005068778991699
2025-04-30 01:01:06.049731600,4.715731689453125,0.0289826469363531,-0.0068353833630681,0.0361216143420573,0.0086344555020332,-0.1635704062548985,0.9772047126816764,-0.3277602811859461,left,-0.0009834766387939,-0.2699906586006631,0.2738886546654626,-9.447418628689649,-0.1304258852496909,0.0012591434642672,0.0015299934893846,2.615654207804799,-0.0013542175292968
2025-04-30 01:01:06.089731300,4.7557314453125,0.0295849836401239,-0.0097878063097596,0.0364391511052941,0.0013189516030251,-0.163622739327553,0.9771733511793004,-0.3277890673288446,left,0.0025930404663085,-0.2702581588193948,0.2795584256638773,-9.446552367249131,-0.1305068778234182,0.0071644969284534,8.8270753622e-06,2.6181822649776936,-0.0002559721469879
2025-04-30 01:01:06.129731300,4.7957314453125,0.0295849836401239,0.002561081200838,0.0364391511052941,0.0057937745004892,-0.163622739327553,0.9771733511793004,-0.3277890673288446,left,-0.0007389783859252,-0.2702581588193948,0.2795584256638773,-9.446552367249131,-0.1305068778234182,0.0074001075699925,0.000784832984209,2.6181822649776936,0.0009696781635284
2025-04-30 01:01:06.169731300,4.8357314453125,0.0295849836401239,0.006512586493045,0.0364391511052941,0.00569155998528,-0.163622739327553,0.9771733511793004,-0.3277890673288446,left,0.0009914636611938,-0.2702581588193948,0.2795584256638773,-9.446552367249131,-0.1305068778234182,0.0025486317463219,-0.0002433862537145,2.6181822649776936,-0.0003589391708374
2025-04-30 01:01:06.209731600,4.875731689453125,0.030094096832008,0.0026784858200699,0.0366260536617115,-0.0024146232753992,-0.1634906799550977,0.977225540131436,-0.3274471353665215,left,0.0008828043937683,-0.2697623973424783,0.2844067790105007,-9.447705044415592,-0.1302290962263014,-0.0021986993961036,0.0003417022526264,2.6134967375099656,-0.0007567405700683
2025-04-30 01:01:06.249731600,4.915731689453125,0.030094096832008,-0.0029327108059078,0.0366260536617115,-0.0019090129062533,-0.1634906799550977,0.977225540131436,-0.3274471353665215,left,0.0017141103744506,-0.2697623973424783,0.2844067790105007,-9.447705044415592,-0.1302290962263014,-0.0062572211027145,-0.0002426821738481,2.6134967375099656,-0.0005497932434082
2025-04-30 01:01:06.289731600,4.955731689453125,0.030094096832008,0.0001456197351217,0.0366260536617115,-0.0024351170286536,-0.1634906799550977,0.977225540131436,-0.3274471353665215,left,0.0009747147560119,-0.2697623973424783,0.2844067790105007,-9.447705044415592,-0.1302290962263014,-0.0085100093856453,-0.000389989465475,2.6134967375099656,0.0017703175544738
2025-04-30 01:01:06.329731600,4.995731689453125,0.030094096832008,0.0005618734867312,0.0366260536617115,0.0010746512562036,-0.1634906799550977,0.977225540131436,-0.3274471353665215,left,0.0009161829948425,-0.2697623973424783,0.2844067790105007,-9.447705044415592,-0.1302290962263014,-0.0049684969708323,-5.72931021451e-05,2.6134967375099656,0.0015424191951751
2025-04-30 01:01:06.369731300,5.0357314453125,0.030094096832008,-0.0041387658566236,0.0366260536617115,0.0001522042439319,-0.1634906799550977,0.977225540131436,-0.3274471353665215,left,0.0023282170295715,-0.2697623973424783,0.2844067790105007,-9.447705044415592,-0.1302290962263014,0.0020672767423093,-0.000306773930788,2.6134967375099656,0.0011118054389953
2025-04-30 01:01:06.409731300,5.0757314453125,0.030094096832008,-0.0015634824521839,0.0366260536617115,-0.0021831158082932,-0.1634906799550977,0.977225540131436,-0.3274471353665215,left,0.0011695027351379,-0.2697623973424783,0.2844067790105007,-9.447705044415592,-0.1302290962263014,0.0042844889685511,-0.0008005164563655,2.6134967375099656,0.0013805329799652
2025-04-30 01:01:06.449731600,5.115731689453125,0.030094096832008,0.003949609119445,0.0366260536617115,-0.0017508630407974,-0.1634906799550977,0.977225540131436,-0.3274471353665215,left,8.29696655273e-05,-0.2697623973424783,0.2844067790105007,-9.447705044415592,-0.1302290962263014,0.0045375633053481,-0.0024098884314298,2.6134967375099656,0.0012604594230651
2025-04-30 01:01:06.489731600,5.155731689453125,0.030094096832008,0.0031057624146342,0.0366260536617115,0.0013685639714822,-0.1634906799550977,0.977225540131436,-0.3274471353665215,left,0.000538170337677,-0.2697623973424783,0.2844067790105007,-9.447705044415592,-0.1302290962263014,0.0017121671698987,-0.0011282078921794,2.6134967375099656,0.0001255273818969
2025-04-30 01:01:06.529731600,5.195731689453125,0.030094096832008,-0.0037484243512153,0.0366260536617115,0.0010933554731309,-0.1634906799550977,0.977225540131436,-0.3274471353665215,left,-0.0011007785797119,-0.2697623973424783,0.2844067790105007,-9.447705044415592,-0.1302290962263014,0.0015543600311502,-0.0001692622900009,2.6134967375099656,-0.0014319419860839
2025-04-30 01:01:06.569731600,5.235731689453125,0.030094096832008,-0.0063731493428349,0.0366260536617115,0.0010229386389255,-0.1634906799550977,0.977225540131436,-0.3274471353665215,left,0.0051924586296081,-0.2697623973424783,0.2844067790105007,-9.447705044415592,-0.1302290962263014,0.0044740331359207,-0.0022195819765329,2.6134967375099656,-0.0017435252666473
2025-04-30 01:01:06.609731300,5.2757314453125,0.030094096832008,-0.0023997453972697,0.0366260536617115,0.0119815412908792,-0.1634906799550977,0.977225540131436,-0.3274471353665215,left,-0.0031121969223022,-0.2697623973424783,0.2844067790105007,-9.447705044415592,-0.1302290962263014,0.0024863041471689,0.0006797965615987,2.6134967375099656,0.0008768439292907
2025-04-30 01:01:06.649731300,5.3157314453125,0.030094096832008,0.0027212770655751,0.0366260536617115,0.0136197470128536,-0.1634906799550977,0.977225540131436,-0.3274471353665215,left,0.0013046264648437,-0.2697623973424783,0.2844067790105007,-9.447705044415592,-0.1302290962263014,-0.0108050480484962,0.0003236718475818,2.6134967375099656,0.0020793974399566
2025-04-30 01:01:06.689731600,5.355731689453125,0.0308319359566088,0.0044488068670034,0.0370431499680343,0.0003587771207094,-0.1635997829686346,0.9771604055598032,-0.3275763313502574,left,0.0036758184432983,-0.2703662885146718,0.2913288698912598,-9.445913484823704,-0.1304616585754824,-0.0124769695103168,-0.0002491548657417,2.6192043015018105,0.0012683272361755
2025-04-30 01:01:06.729731600,5.395731689453125,0.0310346705333268,0.0090667400509119,0.0371635912226323,-0.0017199115827679,-0.1635485124423066,0.977141934491865,-0.3274469598296488,left,0.0021000504493713,-0.2707405581546307,0.2932134415288455,-9.444873620381951,-0.1306304553844691,-0.0044527547433972,0.0003745723515748,2.622740951195359,0.002237319946289
2025-04-30 01:01:06.769731600,5.435731689453125,0.0310346705333268,0.0040750736370682,0.0371635912226323,-0.0018095320556312,-0.1635485124423066,0.977141934491865,-0.3274469598296488,left,0.001167356967926,-0.2707405581546307,0.2932134415288455,-9.444873620381951,-0.1306304553844691,-0.0006482859607785,0.0003135856240987,2.622740951195359,0.0012665688991546
2025-04-30 01:01:06.809731600,5.475731689453125,0.0310346705333268,-0.0021388852037489,0.0371635912226323,-0.0011845371918752,-0.1635485124423066,0.977141934491865,-0.3274469598296488,left,4.04119491577e-05,-0.2707405581546307,0.2932134415288455,-9.444873620381951,-0.1306304553844691,0.0015862553846091,0.0007478911429643,2.622740951195359,-0.0002143681049346
2025-04-30 01:01:06.849731300,5.5157314453125,0.0310346705333268,-0.0053726453334093,0.0371635912226323,-0.0058334288187325,-0.1635485124423066,0.977141934491865,-0.3274469598296488,left,0.0036712288856506,-0.2707405581546307,0.2932134415288455,-9.444873620381951,-0.1306304553844691,0.0051120091229677,-0.0006506089121103,2.622740951195359,-0.0008080303668975
2025-04-30 01:01:06.889731300,5.5557314453125,0.0310346705333268,0.0009113731794059,0.0371635912226323,-0.0017009992152452,-0.1635485124423066,0.977141934491865,-0.3274469598296488,left,-0.0002623796463012,-0.2707405581546307,0.2932134415288455,-9.444873620381951,-0.1306304553844691,0.0068995631299912,0.0002686847001314,2.622740951195359,0.0006723999977111
2025-04-30 01:01:06.929731300,5.5957314453125,0.0310619527874726,0.0052947136573493,0.0371179713990247,-0.0002712907735258,-0.1634440316942712,0.9771973998568328,-0.3272256041190546,left,0.001534104347229,-0.2701820478789491,0.2935165709275752,-9.44632849536538,-0.1303592615807182,0.0043143052607774,-0.0017138086259365,2.617463010792434,-0.0001573264598846
2025-04-30 01:01:06.969731600,5.635731689453125,0.0310619527874726,0.001323539763689,0.0371179713990247,-0.0027836130466312,-0.1634440316942712,0.9771973998568328,-0.3272256041190546,left,0.0009232759475708,-0.2701820478789491,0.2935165709275752,-9.44632849536538,-0.1303592615807182,-0.0022013350389897,-0.0009423214942216,2.617463010792434,-0.0005904138088226
2025-04-30 01:01:07.009731600,5.675731689453125,0.0310619527874726,0.0011454739142209,0.0371179713990247,0.0021645107772201,-0.1634440316942712,0.9771973998568328,-0.3272256041190546,left,0.0012112259864807,-0.2701820478789491,0.2935165709275752,-9.44632849536538,-0.1303592615807182,-0.0012146132066845,-0.0008584130555391,2.617463010792434,-0.0010334849357604
2025-04-30 01:01:07.049731600,5.715731689453125,0.0310619527874726,-0.0018588495440781,0.0371179713990247,0.0014430601149797,-0.1634440316942712,0.9771973998568328,-0.3272256041190546,left,0.0013278722763061,-0.2701820478789491,0.2935165709275752,-9.44632849536538,-0.1303592615807182,-0.0025678435340523,-0.000479232519865,2.617463010792434,-0.0002372860908508
2025-04-30 01:01:07.089731300,5.7557314453125,0.0310619527874726,-0.0053747976198792,0.0371179713990247,0.001534966751933,-0.1634440316942712,0.9771973998568328,-0.3272256041190546,left,0.0012903809547424,-0.2701820478789491,0.2935165709275752,-9.44632849536538,-0.1303592615807182,-0.0010843313066288,-0.0007086042314767,2.617463010792434,0.0012045502662658
2025-04-30 01:01:07.129731300,5.7957314453125,0.0310619527874726,-0.0027047719340771,0.0371179713990247,-0.0021529437508434,-0.1634440316942712,0.9771973998568328,-0.3272256041190546,left,0.001636266708374,-0.2701820478789491,0.2935165709275752,-9.44632849536538,-0.1303592615807182,-0.0010959466453641,-0.0014770030975341,2.617463010792434,0.0023890733718872
2025-04-30 01:01:07.169731300,5.8357314453125,0.0310619527874726,0.0017366053070873,0.0371179713990247,-0.0039988672360777,-0.1634440316942712,0.9771973998568328,-0.3272256041190546,left,0.0008274316787719,-0.2701820478789491,0.2935165709275752,-9.44632849536538,-0.1303592615807182,0.0036422081757336,-0.0020283255726099,2.617463010792434,0.0018268823623657
2025-04-30 01:01:07.209731600,5.875731689453125,0.0310619527874726,0.0003328106831759,0.0371179713990247,-5.27477823197e-05,-0.1634440316942712,0.9771973998568328,-0.3272256041190546,left,0.0007327198982238,-0.2701820478789491,0.2935165709275752,-9.44632849536538,-0.1303592615807182,0.0055911727249622,-0.0017224624752998,2.617463010792434,0.000221699476242
2025-04-30 01:01:07.249731600,5.915731689453125,0.0310619527874726,-0.0010709837079048,0.0371179713990247,0.0038933712057769,-0.1634440316942712,0.9771973998568328,-0.3272256041190546,left,0.000637948513031,-0.2701820478789491,0.2935165709275752,-9.44632849536538,-0.1303592615807182,0.0075401365756988,-0.0014165993779897,2.617463010792434,-0.0013835132122039
2025-04-30 01:01:07.289731600,5.955731689453125,0.0310619527874726,-0.008286147378385,0.0371179713990247,0.0013712097425013,-0.1634440316942712,0.9771973998568328,-0.3272256041190546,left,0.0020187497138977,-0.2701820478789491,0.2935165709275752,-9.44632849536538,-0.1303592615807182,0.0052933720871806,-0.0007412564009428,2.617463010792434,-0.0017949044704437
2025-04-30 01:01:07.329731600,5.995731689453125,0.030600505757097,-0.004604497924447,0.0368726765831653,0.0021078367717564,-0.1635569314790917,0.9772151162088832,-0.3275147836383278,left,0.0010315179824829,-0.2696969697394973,0.2891963696409017,-9.447730763378738,-0.1301544587301442,0.0026456695050001,-0.0007805302739143,2.612878313350677,5.09619712829e-05
2025-04-30 01:01:07.369731300,6.0357314453125,0.030600505757097,0.0026646773330867,0.0368726765831653,0.0031472919508814,-0.1635569314790917,0.9772151162088832,-0.3275147836383278,left,-0.0007405877113342,-0.2696969697394973,0.2891963696409017,-9.447730763378738,-0.1301544587301442,0.0051252814009785,-0.0008930806070566,2.612878313350677,-0.0001208484172821
2025-04-30 01:01:07.409731300,6.0757314453125,0.030600505757097,0.008683331310749,0.0368726765831653,0.0125824706628918,-0.1635569314790917,0.9772151162088832,-0.3275147836383278,left,-0.0025818347930908,-0.2696969697394973,0.2891963696409017,-9.447730763378738,-0.1301544587301442,-0.0039966804906725,0.0006954707205295,2.612878313350677,0.0008213520050048
2025-04-30 01:01:07.449731600,6.115731689453125,0.030600505757097,0.0015200371854007,0.0368726765831653,0.0036531277000904,-0.1635569314790917,0.9772151162088832,-0.3275147836383278,left,0.0027304887771606,-0.2696969697394973,0.2891963696409017,-9.447730763378738,-0.1301544587301442,-0.0109522305428981,0.0002711005508899,2.612878313350677,0.0004535019397735
2025-04-30 01:01:07.489731600,6.155731689453125,0.030600505757097,0.0021093976683914,0.0368726765831653,0.0017402381636202,-0.1635569314790917,0.9772151162088832,-0.3275147836383278,left,0.0027973651885986,-0.2696969697394973,0.2891963696409017,-9.447730763378738,-0.1301544587301442,-0.0052236337214708,0.0008643753826618,2.612878313350677,0.002157986164093
2025-04-30 01:01:07.529731600,6.195731689453125,0.0310765735269994,0.0051997555419802,0.0370938616824616,-0.0017630488146096,-0.1633304475208104,0.9772298125963504,-0.3269897865807903,left,0.0027534961700439,-0.269982434600753,0.2936709212390705,-9.446846381759643,-0.13026485187396,-0.0033402252011001,0.0005956254899501,2.6155764663934704,0.0025510787963867
2025-04-30 01:01:07.569731600,6.235731689453125,0.0310765735269994,0.0042614759877324,0.0370938616824616,-0.0043704034760594,-0.1633304475208104,0.9772298125963504,-0.3269897865807903,left,0.0014582276344299,-0.269982434600753,0.2936709212390705,-9.446846381759643,-0.13026485187396,-0.0041946461424231,0.0003672689199447,2.6155764663934704,0.001549482345581
2025-04-30 01:01:07.609731300,6.2757314453125,0.0310613897490164,-0.0029978896491229,0.0370884999952945,-0.0008703309576958,-0.1631822358685679,0.9772362953488918,-0.3266903821246809,left,-0.0003909468650817,-0.2702536287875077,0.2935054284790531,-9.44614144836068,-0.1304042331704014,-0.0004732045345008,0.0002637859433889,2.618139594879746,0.0004893839359283
2025-04-30 01:01:07.649731300,6.3157314453125,0.0310613897490164,-0.0011124587617814,0.0370884999952945,-0.0010860895272344,-0.1631822358685679,0.9772362953488918,-0.3266903821246809,left,-0.0002374649047851,-0.2702536287875077,0.2935054284790531,-9.44614144836068,-0.1304042331704014,0.005046616308391,-0.0006007999181747,2.618139594879746,0.000377595424652
2025-04-30 01:01:07.689731600,6.355731689453125,0.0310613897490164,0.0044448329135775,0.0370884999952945,0.0042919469997286,-0.1631822358685679,0.9772362953488918,-0.3266903821246809,left,-0.0001735091209411,-0.2702536287875077,0.2935054284790531,-9.44614144836068,-0.1304042331704014,0.0106946770101785,-0.0004769898951053,2.618139594879746,-0.0010634064674377
2025-04-30 01:01:07.729731600,6.395731689453125,0.0310613897490164,0.0064105540513992,0.0370884999952945,3.3906660974e-05,-0.1631822358685679,0.9772362953488918,-0.3266903821246809,left,0.0004885196685791,-0.2702536287875077,0.2935054284790531,-9.44614144836068,-0.1304042331704014,0.0050985971465706,-0.0017125569283962,2.618139594879746,-0.0013009011745452
2025-04-30 01:01:07.769731600,6.435731689453125,0.0310613897490164,0.0087539795786142,0.0370884999952945,0.0067238407209515,-0.1631822358685679,0.9772362953488918,-0.3266903821246809,left,4.65512275695e-05,-0.2702536287875077,0.2935054284790531,-9.44614144836068,-0.1304042331704014,-0.0012214272283017,-0.0006284806877374,2.618139594879746,-0.0017701983451843
2025-04-30 01:01:07.809731600,6.475731689453125,0.031640845883877,0.0044097993522882,0.0372978215415413,0.0100719388574361,-0.1629183388112614,0.9773045176810852,-0.3260702373884702,left,0.0005638003349304,-0.2698328742002431,0.2990138349032961,-9.447069669121504,-0.1301627891441249,-0.0008016887004487,0.0001700390130281,2.6141628002032635,-0.0012178421020507
2025-04-30 01:01:07.849731300,6.5157314453125,0.031640845883877,-0.0090994536876678,0.0372978215415413,0.0115126958116889,-0.1629183388112614,0.9773045176810852,-0.3260702373884702,left,0.0003445744514465,-0.2698328742002431,0.2990138349032961,-9.447069669121504,-0.1301627891441249,0.0042003565467894,0.0014491397887468,2.6141628002032635,-0.0019254684448242
2025-04-30 01:01:07.889731300,6.5557314453125,0.0323828234830233,-0.0093224914744496,0.0376240816914523,0.012833522632718,-0.1631431828911869,0.9773121256448348,-0.3264269773216895,left,0.0011495947837829,-0.2690835606730681,0.3060866045674309,-9.448800438436866,-0.1297292112301931,0.0176551640033721,-0.0007698684930801,2.6070798562049866,0.0021165609359741
2025-04-30 01:01:07.929731300,6.5957314453125,0.0329917682911699,0.0055014248937368,0.0378563524288986,0.004166480153799,-0.1631890307897341,0.9773558442910372,-0.3264352196227953,left,0.0001822113990783,-0.268254687666209,0.3119115113286301,-9.45076910816133,-0.1292740349459313,0.0100054051727056,-0.0058001913130283,2.5992428789690134,0.0063675343990325
2025-04-30 01:01:07.969731600,6.635731689453125,0.03357215829401,0.0241323541849851,0.0381073982203158,0.010319422930479,-0.1628641752463522,0.977392202707939,-0.3256947565290367,left,-0.0022681355476379,-0.2684474522052484,0.3173797866718843,-9.450085217550397,-0.1293350585264178,-0.0202802158892154,-0.0073393695056438,2.601065710482001,0.0054266452789306
2025-04-30 01:01:08.009731600,6.675731689453125,0.0345105004841063,0.0191762931644916,0.0386064520626929,0.0265747252851724,-0.1624578210780831,0.9773642073653818,-0.3247454622256046,left,-0.0024670958518981,-0.2697375144634579,0.3261309926759451,-9.44642201886773,-0.1299078733931618,-0.0364077538251876,-0.0025754328817129,2.613261467449367,-0.0009142458438873
2025-04-30 01:01:08.049731600,6.715731689453125,0.0361156466596697,0.0009529646486043,0.0394547910607805,0.0367469750344753,-0.1622935760632768,0.9772915474560768,-0.3242014174570704,left,0.0027104020118713,-0.2709979717794495,0.3411742480289191,-9.442586970749495,-0.1304045871754706,-0.0243253707885742,0.0005813986063003,2.62517343903929,-0.0041193068027496
2025-04-30 01:01:08.089731300,6.7557314453125,0.0371190711043729,-0.019791392609477,0.040051437046724,0.0180555153638124,-0.1625553982558983,0.977169454225848,-0.3246072480228063,left,0.007365345954895,-0.2720117707230522,0.3505500522047281,-9.439575513973832,-0.1308107953990637,-0.0264069959521293,-0.0004361420869827,2.6347511224627493,0.003910481929779
2025-04-30 01:01:08.129731300,6.7957314453125,0.0373382052909299,-0.0220774263143539,0.0403023797411452,0.0070255119353532,-0.1629955712214017,0.9770185794245432,-0.3254830550160419,left,0.0043179988861083,-0.2731080322452249,0.3525105386227369,-9.436606142774224,-0.1313114004093951,-0.0308214481920003,-0.0027345679700374,2.645104758694768,0.0045939981937408
2025-04-30 01:01:08.169731300,6.8357314453125,0.0373584741395021,0.0043627955019474,0.0405103699425,0.0033188348170369,-0.163221076125883,0.9768342264791232,-0.3259504406325278,left,-0.0021126866340637,-0.2752246037029644,0.3524919069875031,-9.430983626717328,-0.1323350446817852,-0.089287094771862,4.26061451435e-05,2.665086054971814,0.0148843526840209
2025-04-30 01:01:08.209731600,6.875731689453125,0.0379951496756018,0.0264835562556982,0.041130781354721,0.0021858876571059,-0.1627239235395395,0.9765719534088,-0.3248652164022443,left,0.0017339587211608,-0.2800644144987318,0.3580021583089605,-9.41775764991939,-0.1346708907297334,-0.144365131855011,-0.0001017227768898,2.7107307848155497,0.0002132356166839
2025-04-30 01:01:08.249731600,6.915731689453125,0.0381993245999702,0.0128524387255311,0.0415793543702626,-0.0023123286664485,-0.1622299572455031,0.9762725235736078,-0.3238475218345567,left,0.0042806267738342,-0.2853841813431317,0.3593692088784649,-9.403141095545887,-0.1372748256272929,-0.106883093714714,0.0009117051959037,2.7608286946758627,-0.0072506964206695
2025-04-30 01:01:08.289731600,6.955731689453125,0.0383162085495673,-0.0334455519914627,0.0418681226768044,0.0051121702417731,-0.1623214977640078,0.9760541254734924,-0.3240310482857189,left,0.0026067495346069,-0.2881769827651048,0.360171538237296,-9.395357602062822,-0.1386258487009739,-0.0393133908510208,-0.0003146789968013,2.787098277442157,-0.0079894959926605
2025-04-30 01:01:08.329731600,6.995731689453125,0.0379491439437986,-0.0912040024995803,0.0419071946774154,0.0157502740621566,-0.1635728124332689,0.9758148844257032,-0.3266497868242771,left,0.0013692378997802,-0.2886409341783518,0.3566736861841753,-9.394196157068013,-0.1388275039945906,0.0226189196109771,-0.0017180368304252,2.7914599797829984,-0.0074666440486907
2025-04-30 01:01:08.369731300,7.0357314453125,0.0373763067657016,-0.1306906938552856,0.0418311249635748,0.0226147156208753,-0.1659281617671229,0.9755460906128276,-0.331550215328338,left,-0.0013057589530944,-0.2869386027090987,0.3514693590067327,-9.399133613470196,-0.1379408947150971,0.0637564361095428,-0.0029194615781307,2.7754525555729863,-0.0005344748497009
2025-04-30 01:01:08.409731300,7.0757314453125,0.0372672138118583,-0.1245610862970352,0.04195652954454,0.051458440721035,-0.1686910495015472,0.9752604684405808,-0.3372161573761594,left,-0.0014398097991943,-0.2843444715941923,0.3507110514527186,-9.406335507673024,-0.1365650162562389,0.0746235623955726,-0.0015032701194286,2.7510435059815643,-4.30345535278e-05
2025-04-30 01:01:08.449731600,7.115731689453125,0.038405918051016,-0.0784874707460403,0.0425592547822825,0.0613624677062034,-0.1709784053383276,0.9750763414448907,-0.3417316633444416,left,0.0004839301109313,-0.2811986293938107,0.3617523776879534,-9.41453108908832,-0.1348376331458156,0.0855237916111946,-0.0029062069952487,2.721418475307524,-0.0006183385848999
2025-04-30 01:01:08.489731600,7.155731689453125,0.0402823130050027,-0.0260465070605278,0.0433560031713326,0.0571750439703464,-0.172229695407198,0.9750689992444246,-0.3440251454986289,left,0.0021494626998901,-0.2779296983577096,0.3797733336774632,-9.422674648055434,-0.1330321243128217,0.0821256712079048,-0.0026904754340648,2.690605988414585,-0.0001450777053833
2025-04-30 01:01:08.529731600,7.195731689453125,0.0419354425581951,-0.0059193614870309,0.0439762701323784,0.0371857210993766,-0.1727383499066863,0.975162711973993,-0.3448337573658406,left,0.0012235045433044,-0.2750633721186837,0.3956714157614857,-9.429700601169468,-0.1314730083045123,0.0586533918976783,-0.0003540217876434,2.66356454449296,0.0020478963851928
2025-04-30 01:01:08.569731600,7.235731689453125,0.0429595229251103,0.0041417004540562,0.0443295011245145,0.0190906785428524,-0.1728609559675507,0.9752573720648948,-0.3449424958966827,left,0.0031375885009765,-0.2732290576163611,0.4055371223460882,-9.434155827012658,-0.1304868026954861,0.0354462414979934,-0.0007790625095367,2.6462477912500497,-0.0018068253993988
2025-04-30 01:01:08.609731300,7.2757314453125,0.043378734261915,0.0111862225458025,0.0444140433689096,0.0035957926884293,-0.1727971411944773,0.9753530284389792,-0.3447527501361982,left,0.0042707920074462,-0.271941613214351,0.4096393700331449,-9.43738063427806,-0.1298263071014183,0.028708916157484,-0.0003091767430305,2.634088274639845,-0.0011204779148101
2025-04-30 01:01:08.649731300,7.3157314453125,0.0434403415237986,0.0297405011951923,0.0443033173258673,-0.0079467091709375,-0.1724265114184449,0.9754927439597212,-0.3439824146572286,left,0.0027685165405273,-0.270852256534811,0.4103451436823234,-9.440216734486818,-0.1293062344263654,0.0189268235117197,-0.0001998767256736,2.623796597728133,0.0019158422946929
2025-04-30 01:01:08.689731600,7.355731689453125,0.0431669783356169,0.04237562417984,0.0440147230715673,-0.017289537936449,-0.1716840849076483,0.9756753304876494,-0.3424952233661499,left,0.0005900263786315,-0.2701402434204485,0.4078450339622795,-9.442192418473958,-0.1290149160379601,0.0113231297582387,-0.000145886093378,2.6170678739950057,0.0002714395523071
2025-04-30 01:01:08.729731600,7.395731689453125,0.0429596658736852,0.0521798878908157,0.043741956458071,-0.0188193973153829,-0.1706817862093288,0.9758871223206744,-0.3404673427172136,left,0.00064617395401,-0.2696459473537488,0.4059430727984756,-9.44356838300228,-0.1288357424077962,0.0082849618047475,-0.0005331970751285,2.612396082791686,-0.0011160373687744
2025-04-30 01:01:08.769731600,7.435731689453125,0.0428319470872092,0.0436750687658786,0.043513779911017,-0.0171961169689893,-0.1696580017320386,0.9760932469403956,-0.3383855361848767,left,0.0005701184272766,-0.2692590394361245,0.4047802030315622,-9.44462929023206,-0.1287030343663948,0.0033965324983,-0.0009765923023223,2.608738729327917,-0.0006125271320343
2025-04-30 01:01:08.809731600,7.475731689453125,0.0430175868311241,0.0344951376318931,0.0434890831613724,-0.0043039927259087,-0.1688068699940499,0.976240127013738,-0.3366172194088918,left,-2.02059745788e-05,-0.2692406858179297,0.4065355222662911,-9.444601817703246,-0.128716816686384,-0.0050768442451953,0.0009887777268886,2.6085651263266803,-0.0002212226390838
2025-04-30 01:01:08.849731300,7.5157314453125,0.0435042838553492,0.017404681071639,0.0436670132323318,0.0014442922547459,-0.1682673528498741,0.9763150322845856,-0.3354480469138478,left,0.0017018914222717,-0.2694326365237781,0.4111103559011593,-9.443902145001292,-0.128795066970396,-0.0055736531503498,-0.0001682229340076,2.610379774533212,-0.0008191466331481
2025-04-30 01:01:08.889731300,7.5557314453125,0.0436761883763117,0.0066676205024123,0.04373544026819,-0.0019606116693466,-0.1680020941824762,0.9763412823573072,-0.3348822767675519,left,-0.0018905401229858,-0.2696908532074625,0.4127043836269527,-9.44315804863572,-0.1289191549640971,-0.0081417271867394,0.0011400803923606,2.612820445683598,0.0020026862621307
2025-04-30 01:01:08.929731300,7.5957314453125,0.0436238682634924,0.0110440030694007,0.0437257611834721,-0.0109518934041261,-0.1678039283860709,0.9763409986099012,-0.3344838492262597,left,0.0044912099838256,-0.2702037895089629,0.4121517912454903,-9.441839367252587,-0.1291829027507464,-0.0131221851333975,-0.0011630915105342,2.617668470236659,0.0044458210468292
2025-04-30 01:01:08.969731600,7.635731689453125,0.0432077415358462,0.0165861509740352,0.0435138348723934,-0.017695827409625,-0.1674495821229358,0.9763770344060108,-0.333813607016136,left,0.0023965835571289,-0.2706306623759444,0.408174448579736,-9.440892441791297,-0.1294410057839833,-0.0077431285753846,-0.0044411607086658,2.6217025480583307,0.001673012971878
2025-04-30 01:01:09.009731600,7.675731689453125,0.0422709632193365,0.0194547437131404,0.0430267932550052,-0.0282535217702388,-0.1670113879651314,0.9764447015938208,-0.3330407249699833,left,-0.0001816153526306,-0.270882748966417,0.3993023196097463,-9.440610117718576,-0.1296592480253033,-0.0033352812752127,-0.0057239681482315,2.624084474758804,0.001533955335617
2025-04-30 01:01:09.049731600,7.715731689453125,0.0412537787209171,0.0184196438640356,0.0424780618529624,-0.0226344112306833,-0.1665600748204773,0.9765330660117834,-0.3322514674981172,left,-0.0057064294815063,-0.2708714898139377,0.3897004881257191,-9.441040910351276,-0.1297554390683417,0.0045019369572401,-0.0064215064048767,2.6239780917748807,-0.0033901929855346
2025-04-30 01:01:09.089731300,7.7557314453125,0.0406237633886319,0.0181096736341714,0.0420976055072479,-0.0100482162088155,-0.1661876547781353,0.9766273541110428,-0.3315716226356597,left,-0.0041187405586242,-0.2705143967119937,0.3837904238317161,-9.442220475524664,-0.1296476881535475,0.00581667246297,-0.0060805641114711,2.620603939166665,0.0003616511821746
2025-04-30 01:01:09.129731300,7.7957314453125,0.0407498068033891,0.0308711677789688,0.0420724487768694,0.0046392632648348,-0.1657254225627576,0.97672522299663,-0.3306076238317341,left,8.05854797363e-05,-0.2702122356951004,0.3850128052335232,-9.442962818324563,-0.1295098266154629,0.0035671184305101,-0.0069845356047153,2.617748257474601,0.0043799579143524
2025-04-30 01:01:09.169731300,7.8357314453125,0.0411035636871229,0.0357380174100399,0.0421172791533636,0.0076759485527873,-0.1650759131932589,0.9768646595733969,-0.3292298220531517,left,-0.004450500011444,-0.2697269920820381,0.3884054433465004,-9.44409386818111,-0.1292723667275887,0.0185344126075506,-0.0031917132437229,2.6131620987281203,0.0036510825157165
2025-04-30 01:01:09.209731600,7.875731689453125,0.0420630312836146,0.0439955741167068,0.0423891827665069,0.0209634378552436,-0.1643521198254903,0.9770562758599096,-0.3276195437305357,left,-0.0016713142395019,-0.2685594973067642,0.3975946023764088,-9.44675870347619,-0.1286565308353977,0.0362169295549392,-0.0020654015243053,2.602125156407058,0.0066074430942535
2025-04-30 01:01:09.249731600,7.915731689453125,0.0437671409661866,0.0608228035271167,0.0429173187572708,0.0357826575636863,-0.1633932205696099,0.9773393753655196,-0.3254321156131194,left,0.0005807280540466,-0.2664816068995264,0.4139280071377754,-9.451448907119037,-0.1275473373386871,0.0567452311515808,0.0023928731679916,2.5824726536929608,0.005058467388153
2025-04-30 01:01:09.289731600,7.955731689453125,0.0458767250196691,0.0698034092783927,0.0435768404152753,0.0311740804463624,-0.1622169463719255,0.977684072068426,-0.3227532553417809,left,0.0047003626823425,-0.2639124915133352,0.4341685388728976,-9.457150918152928,-0.1261766301987411,0.0607881844043731,0.0033042803406715,2.5581591734305023,0.0056180953979492
2025-04-30 01:01:09.329731600,7.995731689453125,0.047461002000927,0.0770780891180038,0.043994694538351,0.0241017397493124,-0.16087535915812,0.9780340931005412,-0.319810067944292,left,0.0022735595703125,-0.2617015492824264,0.4494179477898404,-9.462077853161096,-0.1250310271744519,0.0407692342996597,0.0089276172220706,2.5372215993419287,0.0080951750278472
2025-04-30 01:01:09.369731300,8.0357314453125,0.0496939966755818,0.0852575600147247,0.0447637813098526,0.0419480502605438,-0.1593298570122218,0.9783533367261198,-0.3163702275406274,left,0.0026965141296386,-0.260288521770012,0.4707232226796448,-9.464621692425013,-0.124236787906101,0.0300480164587497,0.0148971043527126,2.5238337099805475,0.0019955039024353
2025-04-30 01:01:09.409731300,8.0757314453125,0.0525124654117553,0.081767089664936,0.0458306886451549,0.051736868917942,-0.1577356810966133,0.9786523311465612,-0.3127606511150269,left,0.0029377341270446,-0.2591246267862355,0.4975509142527356,-9.466184703958032,-0.1235250885987635,0.0279834885150194,0.0240256413817405,2.512802612878382,-0.006646916270256
2025-04-30 01:01:09.449731600,8.115731689453124,0.0550090065060294,0.0531085580587387,0.0467791684210557,0.0322056487202644,-0.1564830861556831,0.9789043598459394,-0.3098954291137768,left,0.0019896030426025,-0.2578351649410902,0.5213597694613039,-9.468140514200924,-0.1227635654667111,0.025312203913927,0.0222315117716789,2.500577337555588,-0.005554050207138
2025-04-30 01:01:09.489731600,8.155731689453125,0.0557871214565051,0.0102510526776313,0.0469938176020826,-0.0128445066511631,-0.1557785768914572,0.9790691774917136,-0.3083661225523439,left,0.0077481269836425,-0.2568619355341568,0.5288623636437579,-9.470157114720344,-0.1222617576328757,0.0222533419728279,0.0174879655241966,2.491347736917436,-0.0122177749872207
2025-04-30 01:01:09.529731600,8.195731689453124,0.0542774260748944,-0.0380046181380748,0.0462031472810156,-0.0523340515792369,-0.1560100646478503,0.9791331207558736,-0.3090364154818689,left,0.0113054513931274,-0.2556200907426638,0.5147321314824744,-9.47402664963007,-0.1217551945231329,0.047052152454853,0.0094018056988716,2.479566990491748,-0.0176129341125488
2025-04-30 01:01:09.569731600,8.235731689453125,0.0510813865746746,-0.0583775639533996,0.0445716676360743,-0.0797088146209716,-0.1568609183356087,0.9792075595002132,-0.3111867262103969,left,0.0123016834259033,-0.2529897404102607,0.4847815586484968,-9.482104157623649,-0.1206672365413998,0.0872596055269241,-5.03249466419e-05,2.454601476061344,-0.014080211520195
2025-04-30 01:01:09.609731300,8.2757314453125,0.0470924522671368,-0.0491381511092186,0.0424818882874665,-0.0836122035980224,-0.1578021240179635,0.9793410995463264,-0.3136147164808044,left,0.0022287368774414,-0.2492585212754139,0.4473823137763887,-9.4930452383548,-0.1190994634369096,0.1010706797242164,-0.0069123320281505,2.419158552888781,-0.0085339695215225
2025-04-30 01:01:09.649731300,8.3157314453125,0.0437142113102443,-0.0240700040012598,0.0406398052575634,-0.0565700754523277,-0.1584327948370094,0.9795135460907448,-0.3153219146308376,left,-0.0099602937698364,-0.2454747143688902,0.4157070725742727,-9.503579491850733,-0.1174764150174672,0.0895942747592926,-0.0112786926329135,2.3831816689699887,-0.0079967528581619
2025-04-30 01:01:09.689731600,8.355731689453124,0.042125215480791,-0.0098323971033096,0.039680474781988,-0.0376628041267395,-0.1587320688560677,0.9796650344294844,-0.3161281486110927,left,0.0017141699790954,-0.2425006956147412,0.4009021194892004,-9.511267123743892,-0.1161283528393581,0.0390726886689662,-0.0180511176586151,2.354880288115144,0.0119678080081939
2025-04-30 01:01:09.729731600,8.395731689453125,0.0418499984699463,0.0180746726691722,0.0394964227116505,-0.0055389031767845,-0.1584951905017123,0.9797247265206532,-0.3156776878850729,left,-0.0003230571746826,-0.2422000635352745,0.3983140392247587,-9.512083700823784,-0.1160117033140449,-0.0205511003732681,-0.0149121060967445,2.3520181766822934,0.0262696892023086
2025-04-30 01:01:09.769731600,8.435731689453124,0.0420523921879448,0.0135671282187104,0.0396989476013523,0.0016286396421492,-0.1581327980413077,0.9796626387251268,-0.3149108204470937,left,0.0025217533111572,-0.2441316977327279,0.4000474754212424,-9.50744610415101,-0.1169578386643794,-0.069733440876007,-0.0078944414854049,2.370403874330968,0.0189719051122665
2025-04-30 01:01:09.809731600,8.475731689453125,0.0422949503190394,0.0034798569977283,0.039969627758908,-0.0267066676169633,-0.1576606371404308,0.9795654575880725,-0.3139135013021758,left,0.0145074725151062,-0.2468874447238879,0.4020758394436911,-9.50078664626181,-0.1183094485809651,-0.0539667196571826,-0.0036565996706485,2.3966180736482143,-0.0100253671407699
2025-04-30 01:01:09.849731300,8.5157314453125,0.0416793229777595,0.0406564883887767,0.0397787725412071,-0.0388268828392028,-0.1569764278520533,0.97952563248112,-0.3125879765248222,left,0.0144938826560974,-0.2493776890066765,0.3959769015140831,-9.495039627042411,-0.1196049799669019,-0.0449934490025043,0.0094885304570198,2.420291064050049,-0.010257139801979
2025-04-30 01:01:09.889731300,8.5557314453125,0.0405236229815879,0.0546773895621299,0.0390929196380268,-0.1139970645308494,-0.1558673648297052,0.979708444357817,-0.3104648358116068,left,0.0299820303916931,-0.2494739582005932,0.3849938082721084,-9.495258238229155,-0.1197844201661073,0.0032695159316062,0.0046157203614711,2.4212059869378804,0.0127966552972793
2025-04-30 01:01:09.929731300,8.5957314453125,0.0338154664155433,0.0106252953410148,0.0357158247278614,-0.286029040813446,-0.1544722115117878,0.9799650656440578,-0.3084401904576107,left,0.0349000096321105,-0.2498856998698665,0.3212561897138133,-9.496630111104247,-0.1205446062529443,-0.0331481210887432,0.0084583684802055,2.425118484206497,0.0045864731073379
2025-04-30 01:01:09.969731600,8.635731689453126,0.0173236037344272,-0.1357765197753906,0.0279762749434737,-0.4935992360115051,-0.1548549564389659,0.9798686325794862,-0.3112848944855784,left,0.040883719921112,-0.2520997744455607,0.1645090644760988,-9.495244209703802,-0.1228600305252193,-0.0759559273719787,0.0187654364854097,2.4461508969716728,-0.0174160003662109
2025-04-30 01:01:10.009731600,8.675731689453125,-0.010982060720769,-0.3319754600524902,0.0152213937616486,-0.5418533682823181,-0.1601801244081768,0.978869768118824,-0.3258065630270821,left,0.0160572528839111,-0.2546729708049466,-0.1042207095888443,-9.489771331250669,-0.1261927886406853,-0.07708540558815,0.0134157594293355,2.4705796741768715,-0.0311624258756637
2025-04-30 01:01:10.049731600,8.715731689453126,-0.0393409193741326,-0.5281744003295898,0.0024634215397157,-0.5901075005531311,-0.1654727019725285,0.9776719137083698,-0.3404065651360752,left,-0.0094510316848754,-0.2568468107983095,-0.3730497245108709,-9.477611522379515,-0.1294998899360989,-0.0782148838043212,0.0080762021243572,2.491204236793518,-0.0445209294557571
2025-04-30 01:01:10.196494800,8.862494873046876,-0.0784479363626349,-1.4968639612197876,-0.0074785225148876,0.940786361694336,-0.2318450358588149,0.9636606973185338,-0.4822470730122182,left,-0.0858634039759635,-0.2545976183092995,-0.7437485019814223,-9.46134194010198,-0.1324759511221174,0.0139961522072553,-0.0506443381309509,2.46986451164484,-0.0892682150006294
2025-04-30 01:01:10.236494800,8.902494873046875,-0.04877094027566,-1.5391708612442017,0.0107495339057176,0.9754194617271424,-0.2667514685492081,0.9552988061805574,-0.550750711477595,left,-0.0411499738693237,-0.2510331365329638,-0.4631042355759069,-9.48797801809311,-0.1270125830679866,-0.019969267770648,-0.0503975115716457,2.436020109710097,-0.0515861958265304
2025-04-30 01:01:10.276494800,8.942494873046876,-0.0189312861346312,-1.5814777612686155,0.0289598496652822,1.0100525617599487,-0.3012176032157436,0.9453601813556248,-0.6192880655951465,left,0.0022188425064086,-0.2494444692745014,-0.1798951784499921,-9.501428451296686,-0.1213395867515334,-0.0539346858859062,-0.0504122376441955,2.420925854822248,-0.0158161669969558
2025-04-30 01:01:10.316494800,8.982494873046875,0.0109460426475864,-1.6237846612930298,0.0471223661099581,1.0446857213974,-0.3351866221881313,0.933861187650837,-0.6878334232560124,left,0.0442340970039367,-0.2498396249985146,0.1040096880535129,-9.501604392385484,-0.1154663006357322,-0.0879001021385192,-0.0504979044198989,2.424680969572067,0.0180317312479019
2025-04-30 01:01:10.356494800,9.022494873046876,0.0303569330578074,-1.3873093128204346,0.0603811689133821,0.7103630304336548,-0.3652683482852536,0.9221389558740568,-0.7504234905060859,left,0.0602535605430603,-0.2537880644919857,0.2881202648419886,-9.488152205616236,-0.1122183469068103,-0.0642827451229095,-0.0387623347342014,2.462180679143965,0.0583388209342956
2025-04-30 01:01:10.396494800,9.062494873046877,0.0386445502631202,-1.103774070739746,0.0673236561568567,0.5071850419044495,-0.3864503969487402,0.9131596355539447,-0.7956963127804576,left,0.0508891940116882,-0.2571003987526442,0.3664265069788321,-9.477237428370117,-0.1107379336213295,-0.045944470912218,-0.0265885703265666,2.493609544369578,0.0640235245227813
2025-04-30 01:01:10.436494800,9.102494873046876,0.0467761816327931,-0.8202388286590576,0.0742271220904658,0.3040070533752441,-0.4074084999584718,0.9036510935245278,-0.8409813548893899,left,0.0413628220558166,-0.260772363016348,0.4430477917034178,-9.464733920627832,-0.1091933377253413,-0.0276061967015266,-0.0142429824918508,2.5284189919441937,0.069363534450531
2025-04-30 01:01:10.476494800,9.142494873046877,0.0482060097014076,-0.6246407628059387,0.0768766290387995,0.216359406709671,-0.4192444910157369,0.8979996607825351,-0.8671881340726999,left,0.0252056121826171,-0.2635917687462909,0.4562349343283101,-9.456932891488076,-0.109181404858517,-0.0355319865047931,-0.0107143893837928,2.555122874474525,0.0484202802181243
2025-04-30 01:01:10.516494800,9.182494873046876,0.0495598741059261,-0.4290427267551422,0.0795123744316836,0.1287117898464203,-0.4310053807287681,0.8921873992149251,-0.8934107810566831,left,0.009033203125,-0.2664463911425804,0.4686746561193838,-9.448983393788335,-0.1091499233719499,-0.0434577763080596,-0.0071095936000347,2.582139768476784,0.0274451076984405
2025-04-30 01:01:10.556494800,9.222494873046877,0.0508701728898279,-0.278056263923645,0.0808872714576548,0.1108610555529594,-0.4362931171753171,0.889543228030984,-0.905149775561329,left,0.0078960061073303,-0.2671566899454765,0.4809618542298674,-9.446526648285984,-0.1087125037973168,-0.0230576768517494,-0.0050903186202049,2.588859139859676,0.0327352881431579
2025-04-30 01:01:10.596494800,9.262494873046874,0.0521719767380801,-0.1270698308944702,0.0822591767410553,0.093010313808918,-0.4415646886501196,0.8868659954029817,-0.9168900200789386,left,0.0067532062530517,-0.2678817634443792,0.4931609356654807,-9.444015542247891,-0.1082710637980077,-0.0026575792580842,-0.0030620731413364,2.59571675066948,0.0380114018917083
2025-04-30 01:01:10.636494800,9.302494873046877,0.0544230316934885,0.079003095626831,0.0835233495655597,0.0491608865559101,-0.4422640292005064,0.8864184025296373,-0.9182285227569498,left,0.0077095627784729,-0.2687718474944114,0.5142927902171388,-9.440570954751967,-0.1081141994641337,-0.0390589088201522,0.0010139904916286,2.604132989098132,0.0445986092090606
2025-04-30 01:01:10.676494800,9.342494873046874,0.0579014314516353,0.2518000602722168,0.0847906533476098,0.0107852034270763,-0.4372509954126039,0.8887263093731662,-0.9065711328051284,left,0.0081195831298828,-0.2704121949625344,0.5468797759693116,-9.434447503435612,-0.108570590481842,-0.0471791177988052,-0.0025184191763401,2.6196383090049027,0.0325675904750824
2025-04-30 01:01:10.716494800,9.382494873046875,0.0614010130834011,0.4245970249176025,0.0860552170080747,-0.0275904834270477,-0.4322238402310726,0.8910055097885221,-0.8949025913275851,left,0.0085247755050659,-0.2720133000684197,0.5796348848300055,-9.42827729036808,-0.1090234683958526,-0.0552993267774581,-0.0060679763555526,2.634766027770936,0.0205751061439514
2025-04-30 01:01:10.756494800,9.422494873046874,0.0647715555944912,0.4647169411182403,0.0865567367665166,-0.0457603707909584,-0.4233657393013832,0.8951551966268876,-0.8746695564709824,left,0.0069223642349243,-0.2724952111335451,0.6113276982214302,-9.425002214220166,-0.1093917025515965,-0.0348805971443653,-0.0063719898462295,2.639317699725926,0.0172440707683563
2025-04-30 01:01:10.796494800,9.462494873046875,0.0681519124610782,0.5048368573188782,0.0870499211579871,-0.063930258154869,-0.4144669812735319,0.8992188156222357,-0.8544324132522887,left,0.0053259134292602,-0.2729112853861719,0.6431091762769967,-9.42178559026122,-0.1097494152625772,-0.0144618675112724,-0.0066850408911705,2.643247148129344,0.0139764845371246
2025-04-30 01:01:10.836494800,9.502494873046874,0.0708878210881535,0.5802301168441772,0.087113841974235,-0.1003822535276413,-0.4038627229136214,0.9039270578941052,-0.830593738309307,left,0.0049501061439514,-0.2736277697029191,0.6687495942942798,-9.418099010702967,-0.1105520318815402,-0.0625000894069671,-0.009165234863758,2.650012696741521,0.0200861394405365
2025-04-30 01:01:10.876494800,9.542494873046875,0.0736412482217589,0.6556233167648315,0.0871660077052171,-0.1368342489004135,-0.3932039123910397,0.9085130842411256,-0.8067487508944582,left,0.0045825242996215,-0.2742813439781697,0.694551559548825,-9.4144925106436,-0.1113397193855265,-0.1105383038520813,-0.0116618983447551,2.6561832020699976,0.0262565016746521
2025-04-30 01:01:10.916494800,9.582494873046874,0.0758109953940422,0.8170456290245056,0.0868558276071347,-0.1831894069910049,-0.3760373660267569,0.915377461695838,-0.7689243818541261,left,0.0062056183815002,-0.2787440033973496,0.7140721064463257,-9.401050260746478,-0.1146118863758517,-0.1257282942533493,-0.0119215808808803,2.698284560218453,0.0156347155570983
2025-04-30 01:01:10.956494800,9.622494873046875,0.0781577395120909,0.9784679412841796,0.0865150318234552,-0.2295445650815963,-0.3587382094321015,0.9219191320322428,-0.7310417264486826,left,0.0078151226043701,-0.2831245174069488,0.7352020613018423,-9.387474739858508,-0.1178436515682662,-0.1409182846546173,-0.0123453736305236,2.7395585276320573,0.0050972998142242
2025-04-30 01:01:10.996494800,9.662494873046874,0.0806787444911107,1.139890193939209,0.0861437119404762,-0.2758997082710266,-0.3413125661254888,0.9281356533527274,-0.693100233808737,left,0.0094130039215087,-0.2874163678973763,0.7579110289771109,-9.373785821723937,-0.121033849020641,-0.1561082750558853,-0.0129301771521568,2.779946067599952,-0.0053496956825256
2025-04-30 01:01:11.036494800,9.702494873046875,0.0827219316031197,1.221799373626709,0.0843563877452909,-0.3212220072746277,-0.3185570145927093,0.9360230086174888,-0.6440226920256991,left,0.0067655444145202,-0.2890559226830511,0.7766841915734112,-9.36766237040758,-0.1235561526195415,-0.1187600865960121,-0.0130156278610229,2.795361371135712,-0.0044544041156768
2025-04-30 01:01:11.076494800,9.742494873046876,0.0830067046107304,1.1783215999603271,0.0812272690445061,-0.3410087823867798,-0.2948277526127672,0.9438211302346956,-0.5934916694615809,left,0.0026963949203491,-0.2882430400954464,0.7795400193959474,-9.369702351802587,-0.1252208043507388,-0.0725981667637825,-0.0095860660076141,2.787719331949949,-0.0158234238624572
2025-04-30 01:01:11.116494800,9.782494873046875,0.0832482461222848,1.1348437070846558,0.0780464674848227,-0.3607955574989319,-0.2709108575588769,0.9510185335086644,-0.5429731558258654,left,-0.001366376876831,-0.2874174331456712,0.781994280680269,-9.3718042925179,-0.1268057698217687,-0.0264362469315528,-0.006115548312664,2.779956004472077,-0.0271800756454467
2025-04-30 01:01:11.156494800,9.822494873046876,0.0822411480276217,0.9664052724838256,0.0743984725107989,-0.3145442008972168,-0.2498035379772609,0.9570167121600311,-0.4988686579177971,left,-0.0064989328384399,-0.2844725922677176,0.7732247718345373,-9.380705391854049,-0.1272084765287928,-0.0091500263661146,-0.0013097450137138,2.7522496669009326,-0.0341566205024719
2025-04-30 01:01:11.196494800,9.862494873046876,0.0813187076197729,0.7634855508804321,0.0713832460330397,-0.2386941313743591,-0.2323801565230834,0.9615838755856428,-0.4626808850540999,left,-0.0129856467247009,-0.2821395009313189,0.7650907844133674,-9.38778921263516,-0.1275162260676509,-0.0174801610410213,0.0009006187319755,2.7302818729817866,-0.0495595633983612
2025-04-30 01:01:11.236494800,9.902494873046876,0.0808629116669433,0.5101457834243774,0.0692927010057746,-0.1553866863250732,-0.219507025717977,0.9647264374572808,-0.4360234633182586,left,-0.0183223485946655,-0.2805581760124555,0.7611595824442804,-9.3924285628736,-0.1277416916364161,-0.0074080973863601,0.0081328451633453,2.7153841635793445,-0.0610466003417968
2025-04-30 01:01:11.276494800,9.942494873046876,0.0806409494880028,0.2727996706962585,0.0680566429478237,-0.0837971121072769,-0.2116362694673363,0.9665504069480312,-0.4197598362841296,left,-0.0132809281349182,-0.279683509936956,0.7592658776521682,-9.394960711699724,-0.1279007077142616,-0.0210926197469234,0.0048860162496566,2.70714094363004,-0.0496353805065155
2025-04-30 01:01:11.316494800,9.982494873046877,0.0800715738322605,0.1223128736019134,0.0672843695189105,-0.0370136760175228,-0.2077794671099491,0.967391654573972,-0.4118572210974001,left,-0.0121205449104309,-0.2797753000439718,0.7538966057039796,-9.395143667051196,-0.1282722826965841,-0.0296745840460062,0.0026095509529113,2.7080060360267755,-0.0196488499641418
2025-04-30 01:01:11.356494800,10.022494873046876,0.0799483749098497,0.0818767920136451,0.0670245503209828,-0.0204422269016504,-0.2057679672484618,0.9677757795661408,-0.4077085586789054,left,-0.0020334720611572,-0.280453104241172,0.7525923912376165,-9.393404714429378,-0.1287529987767772,-0.0380337797105312,-0.0037505775690078,2.714393983498216,-0.0020459592342376
2025-04-30 01:01:11.396494800,10.062494873046877,0.0800474071619983,0.0859130769968032,0.0669773577073994,-0.0172451436519622,-0.2040508982285238,0.9680372247509124,-0.4041320413876196,left,0.001617431640625,-0.2818538454042608,0.7532178296595812,-9.389531087866423,-0.1295421469622975,-0.0448738746345043,-0.00201216340065,2.727591026462614,-0.00159153342247
2025-04-30 01:01:11.436494800,10.102494873046876,0.0801035691819939,0.0980501547455787,0.0668940915662498,-0.0321056805551052,-0.2021663759287247,0.9683237736442128,-0.4002149773845463,left,0.0051757097244262,-0.2833543736515367,0.7534168593630194,-9.38539851810634,-0.1303956184672047,-0.0407611988484859,-0.002951294183731,2.741722427667677,-0.0059490799903869
2025-04-30 01:01:11.476494800,10.142494873046877,0.0801644894009361,0.1127442568540573,0.0667960933487246,-0.0333083122968673,-0.1999864582124922,0.9686467070995144,-0.3956849974988777,left,0.0011975765228271,-0.2851335583063435,0.7535967459745705,-9.380475090229512,-0.1314044581187268,-0.0603039562702178,-0.0045748651027679,2.7584701488509773,-0.004378318786621
2025-04-30 01:01:11.516494800,10.182494873046876,0.0802829106297018,0.1103376820683479,0.066765064962705,-0.0266059469431638,-0.1976801497734186,0.968940350149876,-0.3908797553718077,left,-0.0051175355911254,-0.2875739453577854,0.7541654857732355,-9.373647874557973,-0.1327379842010265,-0.0820424109697341,-0.0024316012859344,2.7814278305903075,-0.0063602328300476
2025-04-30 01:01:11.556494800,10.222494873046877,0.0809373879078099,0.1033364906907081,0.0670891704951566,-0.0056500751525163,-0.1954429743454523,0.9691241495828692,-0.3861312570541588,left,-0.0052334070205688,-0.2910766750354503,0.7595078697144985,-9.363384254696964,-0.1345336211456667,-0.1045831814408302,-0.0030523464083671,2.8143501492440697,-0.0028796792030334
2025-04-30 01:01:11.596494800,10.262494873046874,0.0822162073189542,0.0877129063010215,0.0677702180387334,0.002424269914627,-0.1933972261911643,0.9692139529350036,-0.3816826083464584,left,0.0027291774749755,-0.2950472794112593,0.7705575253866612,-9.35119463520944,-0.1364878939605373,-0.1015285849571228,-0.0053576603531837,2.8516283250197767,-0.0139774084091186
2025-04-30 01:01:11.636494800,10.302494873046877,0.0837929138983985,0.0609070993959903,0.0685890875653722,0.0218790061771869,-0.1918311615144387,0.9692475765590168,-0.378185933650009,left,-0.002858281135559,-0.2983119911142327,0.7845172963518648,-9.340641092491149,-0.1380411608565268,-0.0771870017051696,-5.53503632545e-05,2.882245289340615,-0.0159727931022644
2025-04-30 01:01:11.676494800,10.342494873046874,0.0853034007714779,0.0335331410169601,0.0694312693397199,0.0165751166641712,-0.190896117449012,0.9691787027349152,-0.3760007538833378,left,-0.0032594799995422,-0.3012370809471028,0.7979035782780498,-9.331005249139666,-0.1393930183080287,-0.0828621089458465,-0.0074539631605148,2.909651474921405,-0.0021328330039978
2025-04-30 01:01:11.716494800,10.382494873046875,0.0861893078375885,0.0065845511853694,0.0700615427334097,0.0119357742369174,-0.1904168249562572,0.9690110592132388,-0.3748392661969457,left,-0.0038258433341979,-0.3044109088567948,0.8053706992883235,-9.321047334226966,-0.1408907693628047,-0.078588917851448,-0.0028455629944801,2.9393597999647256,-8.98241996765e-05
2025-04-30 01:01:11.756494800,10.422494873046874,0.086790470578417,-0.0110967569053173,0.0705872963274567,0.0163805149495601,-0.1904014330538583,0.9687870080082664,-0.3746807141659437,left,-0.0029083490371704,-0.3071803021008212,0.8102652663968503,-9.312416284003854,-0.1421841371180568,-0.0606031939387321,-0.0047428905963897,2.965258211331069,-0.0005035996437072
2025-04-30 01:01:11.796494800,10.462494873046875,0.087556158671442,-0.0219557732343673,0.0711956206258341,0.0295286048203706,-0.1907497197352635,0.9685293250070816,-0.3752556968423165,left,0.0014039874076843,-0.3093948172754919,0.8168192180849612,-9.305229002848266,-0.1431661118920426,-0.0494317822158336,-0.0042067840695381,2.985951455269754,0.0065585970878601
2025-04-30 01:01:11.836494800,10.502494873046874,0.0884736464341523,-0.0146486796438694,0.0718489132962231,0.023443741723895,-0.1911570769323904,0.9682874261771176,-0.3759351106384576,left,0.005847156047821,-0.3111997394067784,0.8248787520304321,-9.299092107528448,-0.1439304615067873,-0.0389431938529014,-0.0059044435620307,3.0028064362198115,0.0097247064113616
2025-04-30 01:01:11.876494800,10.542494873046875,0.0889829494611578,-0.0007740370929241,0.0722153055624441,0.0084613766521215,-0.1913411318689373,0.9681520904484296,-0.3762233147077852,left,0.0056042671203613,-0.3123145792692737,0.8293167344778776,-9.295330709168317,-0.1444125127765073,-0.0146666709333658,-0.0061535686254501,3.013212094900012,0.0093666613101959
2025-04-30 01:01:11.916494800,10.582494873046874,0.0889829494611578,0.0111280977725982,0.0722153055624441,0.0120529718697071,-0.1913411318689373,0.9681520904484296,-0.3762233147077852,left,-0.000920832157135,-0.3123145792692737,0.8293167344778776,-9.295330709168317,-0.1444125127765073,0.0005662310868501,-0.0004980266094207,3.013212094900012,0.0051344633102416
2025-04-30 01:01:11.956494800,10.622494873046875,0.0900165869648098,0.0084596034139394,0.0726718114105192,0.0229784529656171,-0.1911190422246204,0.9681729005194664,-0.3756103218149546,left,-0.0019457936286926,-0.3123189827808404,0.8389230594739318,-9.294455095377565,-0.1443380233136038,0.0060985623858869,0.0012452527880668,3.0132533036932347,0.0033393502235412
2025-04-30 01:01:11.996494800,10.662494873046874,0.0909014363611865,-0.0001129861921072,0.0730801358021411,0.0108393039554357,-0.191058579667556,0.968166499994228,-0.3753537889879478,left,0.0023234486579895,-0.312301892922168,0.8471515933107584,-9.293760683372616,-0.1442545379892119,-0.0020907730795443,-0.000275008380413,3.0130937292173505,0.0004125237464904
2025-04-30 01:01:12.036494800,10.702494873046875,0.0909014363611865,-0.0105253225192427,0.0730801358021411,0.0015713991597294,-0.191058579667556,0.968166499994228,-0.3753537889879478,left,0.0021159648895263,-0.312301892922168,0.8471515933107584,-9.293760683372616,-0.1442545379892119,-0.0019926191307604,-0.0011282786726951,3.0130937292173505,-0.0027526915073394
2025-04-30 01:01:12.076494800,10.742494873046876,0.0909305574829398,-0.026031881570816,0.0731812389444926,0.0137713495641946,-0.1916148994369605,0.9680519055319812,-0.3764979551247847,left,-0.0035936832427978,-0.3123524694116671,0.8474084176160395,-9.29358415776193,-0.1442344634508165,0.0067425477318465,0.0025035217404365,3.0135657306432724,-0.0057494044303894
2025-04-30 01:01:12.116494800,10.782494873046875,0.091308053058446,-0.0310723111033439,0.0734045140778403,0.0131307356059551,-0.1922470725928753,0.9679625437285858,-0.3777566778082868,left,0.0024340748786926,-0.3117896273825116,0.851071177907288,-9.294950769940018,-0.1438789471573787,0.0246571134775877,-0.0008789300918579,3.008312924681604,-0.0081034302711486
2025-04-30 01:01:12.156494800,10.822494873046876,0.0918773756010395,-0.0277534574270248,0.07370977584091,0.0301809124648571,-0.1929268399786498,0.9678727618262328,-0.3790884801045956,left,-0.0090612769126892,-0.3110517566852573,0.8565662681922316,-9.296672771427035,-0.1434170447931179,0.0066891610622406,0.0035308822989463,3.001424918733537,0.0053449571132659
2025-04-30 01:01:12.196494800,10.862494873046876,0.0927589578289028,-0.0206117089837789,0.0742207385219099,0.0213283039629459,-0.1934307452247191,0.9677351165791744,-0.3799956745365203,left,0.0028103590011596,-0.3112672262076802,0.8647017899833619,-9.295269918891789,-0.1434029120963821,-0.0033692298457026,0.0021803081035614,3.003436550816893,-0.0034275949001312
2025-04-30 01:01:12.236494800,10.902494873046876,0.093146599734039,-0.0160069726407527,0.0744391435641163,0.0103956684470176,-0.1938328859595438,0.9676676366109204,-0.3807739208115245,left,0.005567193031311,-0.3109895348081677,0.8683825243227183,-9.295763839888572,-0.1432017232034297,0.018089685589075,0.0039537698030471,3.0008439039751886,-0.0061951279640197
2025-04-30 01:01:12.276494800,10.942494873046876,0.0929491314059772,-0.0177747327834367,0.0743311047772688,-0.0055197160691022,-0.1942096746964544,0.9676588368579314,-0.3815948278461164,left,0.0036154389381408,-0.3101980437503914,0.8667670519500971,-9.298297157758476,-0.1428063198966816,0.0174073409289121,-0.0002900511026382,2.993453501462936,-0.001034528017044
2025-04-30 01:01:12.316494800,10.982494873046877,0.092140871226938,-0.0234389603137969,0.0739623413932292,-0.0156470499932765,-0.1946594934758578,0.9676331847683584,-0.3826532626293248,left,-0.0008777379989624,-0.3096082005699358,0.8594136204473674,-9.300751565173268,-0.1425594687159513,0.0116431871429085,-0.0002337917685508,2.987944674913585,-0.0013445019721984
2025-04-30 01:01:12.356494800,11.022494873046876,0.0912747028023769,-0.0305755492299795,0.073611869353304,-0.0065037813037633,-0.1951986522152627,0.9675615402746576,-0.3838987549235835,left,-0.0015937685966491,-0.3093852932536459,0.8514180185835808,-9.302155586752296,-0.142489798388862,0.0043135015293955,-0.0010881721973419,2.985862607942521,0.0015345513820648
2025-04-30 01:01:12.396494800,11.062494873046877,0.0903241836815008,-0.0320630073547363,0.0732338138064677,-0.0137214167043566,-0.1957992281090863,0.967475944281754,-0.3852830054624859,left,0.0010627508163452,-0.3092000927773231,0.842625567253679,-9.303511093014478,-0.1424420491419293,0.0122547410428524,-0.0006910488009452,2.984132423149049,-0.000961422920227
2025-04-30 01:01:12.436494800,11.102494873046876,0.0896680890692163,-0.0287282839417457,0.0729599642031435,0.0012119868770241,-0.1964205711419709,0.9674119209741596,-0.3866728626399823,left,-0.0032863020896911,-0.3085932796350781,0.8366834638535976,-9.305863793620466,-0.1421612584990365,0.0326630175113678,0.0009571760892868,2.978463437601924,-0.0043560862541198
2025-04-30 01:01:12.476494800,11.142494873046877,0.0889658205841764,-0.0724867507815361,0.0725952626197996,-0.0042944732122123,-0.1973948980009865,0.9673794501958292,-0.3888176050993257,left,-0.0031319260597229,-0.3066645355421292,0.8306568970404565,-9.312153833675383,-0.1412168728862614,0.0716696679592132,-0.0015116780996322,2.9604367825239897,-0.0123010277748107
2025-04-30 01:01:12.516494800,11.182494873046876,0.0879410163989793,-0.2549717724323272,0.0721493537672667,0.0583771280944347,-0.2002188758134895,0.9671323056467772,-0.3948608545016054,left,-0.0225017666816711,-0.3026367570589456,0.8221539301764219,-9.324802302846312,-0.1391468572080319,0.1756089478731155,0.0110478624701499,2.922756747949123,-0.0739983767271041
2025-04-30 01:01:12.556494800,11.222494873046877,0.0863369307928243,-0.7454339265823364,0.0720331257934673,0.180485263466835,-0.2099266247373842,0.9656901098726663,-0.4152760756930387,left,-0.0139204263687133,-0.2949482189274409,0.8091089359685778,-9.348221172356604,-0.134850176519288,0.2941687107086181,0.0128657892346382,2.8506986429542303,-0.1294256150722503
2025-04-30 01:01:12.596494800,11.262494873046874,0.0830942911642745,-1.301973819732666,0.0724621395832083,0.283935934305191,-0.2312041465571311,0.9615680691513262,-0.4599704661910603,left,-0.0091396570205688,-0.2857601561092777,0.7809327889285981,-9.3765026794672,-0.1291535026743645,0.3336217403411865,-0.0145338773727417,2.7643665134131905,-0.0853225439786911
2025-04-30 01:01:12.636494800,11.302494873046877,0.0782404227197884,-1.590511918067932,0.0730576138140795,0.324300080537796,-0.2606919130522849,0.9547161184841084,-0.522198726275353,left,-0.0066702365875244,-0.2771873711206554,0.7372366358693688,-9.403463751628994,-0.1233667285818818,0.3215001821517944,-0.0174131616950035,2.6836048774808643,-0.0320108830928802
2025-04-30 01:01:12.676494800,11.342494873046874,0.0733135447140417,-1.637721061706543,0.0740143110802131,0.3435482382774353,-0.2927245755507245,0.945918565312246,-0.5902251311459323,left,-0.0077737569808959,-0.2710601359769599,0.6920895533494651,-9.42320422488749,-0.1186261732502973,0.2332831919193267,-0.0232601128518581,2.6257608835384247,0.0093236565589904
2025-04-30 01:01:12.716494800,11.382494873046875,0.0678081699614463,-1.5281015634536743,0.0751338775194555,0.2794424891471863,-0.3238235872736882,0.9359292088996132,-0.6569973090380732,left,-0.0042895078659057,-0.2696440275535439,0.6404523781578988,-9.43057212330699,-0.1163165431498688,0.0541945546865463,-0.0262818709015846,2.6123779626131056,0.0585952997207641
2025-04-30 01:01:12.756494800,11.422494873046874,0.0614809250476322,-1.2401008605957031,0.0763409674545842,0.1889999359846115,-0.3503696114642255,0.9260860353607012,-0.7148914677696098,left,0.0072218179702758,-0.2743286634416498,0.5800120475793257,-9.422117014172672,-0.1173787564436563,-0.0924802273511886,-0.0145519338548183,2.6566297767937184,0.0646552741527557
2025-04-30 01:01:12.796494800,11.462494873046875,0.0553851745166222,-0.8762526512145996,0.0774747561223983,0.0724125429987907,-0.3700469811003812,0.9179224236486904,-0.7585496047002569,left,0.0340539216995239,-0.2819815969925974,0.5214259665653109,-9.404901675477625,-0.1203374731768468,-0.1624288856983184,-0.0123415105044841,2.728794557033479,0.0643939673900604
2025-04-30 01:01:12.836494800,11.502494873046874,0.0511774344156892,-0.3794615268707275,0.0783787264895021,0.1060661897063255,-0.3815220189409528,0.9127473530678047,-0.7843982344844891,left,0.0195481777191162,-0.2887915553953267,0.4808862682430073,-9.38823578735888,-0.1232474743701454,-0.0795524716377258,0.0013631172478199,2.792876276321709,0.0515744686126709
2025-04-30 01:01:12.876494800,11.542494873046875,0.0530022871451221,-0.0841789543628692,0.079502800104433,0.0584647990763187,-0.3823520092423625,0.9122949709037692,-0.7860060594029791,left,0.0095398426055908,-0.2898175150894652,0.4978655696924775,-9.384476727086303,-0.1233050996396348,-0.0324878431856632,-0.0034486316144466,2.8025194261968136,0.0451915562152862
2025-04-30 01:01:12.916494800,11.582494873046874,0.0548259612848895,0.2111035883426666,0.0806266948869921,0.0108634009957313,-0.3831811208543661,0.9118404623700892,-0.7876122005293793,left,-0.0004733800888061,-0.2908462016330578,0.514820686548762,-9.380669151496887,-0.1233624437664239,0.0145767852663993,-0.0082579404115676,2.812185080164671,0.0388063490390777
2025-04-30 01:01:12.956494800,11.622494873046875,0.0584851746992898,0.4182287454605102,0.0814262364584642,-0.037569086998701,-0.3773703887333843,0.9142298585511006,-0.7743805687656884,left,0.0115737318992614,-0.2905468413316553,0.549192254162766,-9.37956265155971,-0.1230655980906686,-0.0285670310258865,-0.0150407031178474,2.809372653092444,0.0234833657741546
2025-04-30 01:01:12.996494800,11.662494873046874,0.0611980321170525,0.5015439987182617,0.0815769303777148,-0.1117784529924392,-0.3685370177838187,0.917732991367239,-0.7547470901342295,left,0.0212598443031311,-0.2912003059357504,0.5745232043720782,-9.37620398878157,-0.1236601329047165,-0.0701512992382049,-0.0210169106721878,2.815511594238877,0.0131084322929382
2025-04-30 01:01:13.036494800,11.702494873046875,0.0620748610061513,0.5103146433830261,0.0811082786786512,-0.1555460691452026,-0.3586622547216946,0.9214164549930416,-0.7332221441356912,left,0.0072243809700012,-0.2938434559430402,0.5822806500984355,-9.368236370903253,-0.1255958229440316,-0.1047425717115402,-0.0207964330911636,2.84033097819686,-0.0093941688537597
2025-04-30 01:01:13.076494800,11.742494873046876,0.0617880447495482,0.4320591390132904,0.0801966421144812,-0.1503486484289169,-0.3492529525515168,0.9247989778645554,-0.7129496160910566,left,-0.0053806900978088,-0.2967678342040212,0.5790783103931695,-9.36007235367,-0.1278186070989804,-0.0920755192637443,-0.0186669193208217,2.8677678511768576,-0.0332318246364593
2025-04-30 01:01:13.116494800,11.782494873046875,0.0610437749090539,0.2875715494155884,0.0791945700327535,-0.1051558554172515,-0.3420698221077775,0.927336788537742,-0.6975879629138823,left,-0.0157705545425415,-0.2987294382073555,0.5717674393905327,-9.354867770764232,-0.1294707664004224,-0.0490905791521072,-0.0175624080002307,2.886158371131122,-0.0410289168357849
2025-04-30 01:01:13.156494800,11.822494873046876,0.0616816677832532,0.1451378911733627,0.0788716681346973,0.0054797977209091,-0.3380436261038536,0.9288263203474822,-0.688815394381923,left,-0.0229319930076599,-0.2984230234845051,0.5777892204307019,-9.355383903592823,-0.1295662934830936,0.0197144150733947,-0.0119163990020751,2.8832863228261467,-0.0419984459877014
2025-04-30 01:01:13.196494800,11.862494873046876,0.0642802630878018,0.035807654261589,0.0797008145510418,0.0892550870776176,-0.3366000437709199,0.9293815816334638,-0.6853259001703791,left,-0.0320300459861755,-0.2974938894853853,0.6022699470188468,-9.356520214146377,-0.1288332541372047,0.0080476468428969,-0.0007697343826293,2.874576069886982,-0.0286515057086944
2025-04-30 01:01:13.236494800,11.902494873046876,0.068857025469063,-0.0243758894503116,0.0818744385986411,0.1433146744966507,-0.3369997439058969,0.9291429422276062,-0.6855573260284664,left,-0.0091356039047241,-0.2976908578121832,0.6450470855370164,-9.353100761091708,-0.1281450207774596,-0.0380958281457424,0.0089980587363243,2.876422866797447,-0.0032857358455657
2025-04-30 01:01:13.276494800,11.942494873046876,0.0741797728843317,-0.0017174202948808,0.0847664142136886,0.1289866864681244,-0.3376621759336453,0.9286244621435036,-0.6862899771316568,left,0.0187252759933471,-0.2999694546012499,0.6943343366015702,-9.342974503874778,-0.1282790898597335,-0.0840024948120117,0.0091736838221549,2.8977777895152568,0.0199997723102569
2025-04-30 01:01:13.316494800,11.982494873046877,0.0789442242322038,0.0354408398270607,0.0874117252482975,0.0918028205633163,-0.3374648794252217,0.928358444654182,-0.6852538700166363,left,0.0149285793304443,-0.3030303677537326,0.7381375302318484,-9.330674409750104,-0.1289464715693404,-0.0525639913976192,0.0098853260278701,2.926441281680763,-2.53915786743e-05
2025-04-30 01:01:13.356494800,12.022494873046876,0.08247150405894,0.0489630214869976,0.0891027605456191,0.0478749610483646,-0.3368201152931942,0.9284339224656522,-0.6833901351358076,left,0.0019717216491699,-0.3040980399895724,0.7707869502283632,-9.324893488261104,-0.1289319096473591,-0.0070336647331714,0.0051706805825233,2.93643280660212,0.0031079053878784
2025-04-30 01:01:13.396494800,12.062494873046877,0.0845381612302006,0.0812685638666153,0.0899026300181229,0.0382582210004329,-0.3357711392834845,0.9287673688700904,-0.6808444823982202,left,-0.0144360065460205,-0.3041244236295591,0.7900500882986933,-9.32320305095613,-0.1287106359233679,0.0092859100550413,0.0115148201584815,2.936679474839568,-0.0068524479866027
2025-04-30 01:01:13.436494800,12.102494873046876,0.0866897376877829,0.1061619371175766,0.090598545812316,0.0114258043467998,-0.3340792044833718,0.9293549963225094,-0.6769010453754076,left,0.010507583618164,-0.3038139366937077,0.8101867212679237,-9.322389981007577,-0.1283833745477978,-0.0127364452928304,0.0042047202587127,2.9337744010478257,0.0049713551998138
2025-04-30 01:01:13.476494800,12.142494873046877,0.0878622982025009,0.1326423734426498,0.0908797829390299,-0.016404328867793,-0.3317125721897877,0.9301393095031458,-0.6716526027636586,left,0.0120493173599243,-0.3042718811955524,0.8209992802485823,-9.320093979024886,-0.1286402188382724,-0.0224941261112689,0.0080698803067207,2.938059238760173,0.0044387280941009
2025-04-30 01:01:13.516494800,12.182494873046876,0.0892561182434843,0.1518692970275879,0.0911002628509847,-0.0205210205167531,-0.3289332268375256,0.9311101677662336,-0.6654851625322296,left,0.0114283561706542,-0.3040738843966705,0.8340408403903246,-9.319519978529216,-0.1285980303137577,-0.001701658591628,0.0062439963221549,2.936206596630812,0.0020639300346374
2025-04-30 01:01:13.556494800,12.222494873046877,0.0896982980601636,0.1652611345052719,0.0907865406578098,-0.0677806660532951,-0.325826611029834,0.9322357151133568,-0.6587508727350845,left,0.0103368163108825,-0.303522367496744,0.838306608076021,-9.320761503022908,-0.1285737432103075,-0.0071074813604354,-0.0013971105217933,2.931045852866769,0.0109719634056091
2025-04-30 01:01:13.596494800,12.262494873046874,0.0885933805193791,0.1916221529245376,0.0898004815875366,-0.0982122495770454,-0.3222514999656669,0.933495970600574,-0.6512393665956394,left,0.0041872859001159,-0.3036075690901212,0.827985339743644,-9.32143311867416,-0.1291318047206496,-0.0269272588193416,-0.0039905756711959,2.9318431407243013,0.0208284258842468
2025-04-30 01:01:13.636494800,12.302494873046877,0.0856653321304323,0.2321140617132187,0.088004534219536,-0.1680518090724945,-0.3179530941028783,0.9349600987459142,-0.642451270833794,left,0.0094379782676696,-0.3045311363114347,0.800456185370311,-9.32111572328806,-0.1304244376015084,-0.0526179708540439,-0.0145752429962158,2.940484712341428,0.0214004814624786
2025-04-30 01:01:13.676494800,12.342494873046874,0.0814766084962474,0.3178297281265259,0.0856227579014849,-0.2077576965093612,-0.3122303491393519,0.9367947885176304,-0.6308306416789825,left,0.003200352191925,-0.3067923355380162,0.7608626453243196,-9.317736017721892,-0.1326513883310652,-0.1026957929134368,-0.0144249349832534,2.9616318375274537,0.0258338153362274
2025-04-30 01:01:13.716494800,12.382494873046875,0.0766002520809371,0.4613738656044006,0.0828586861968769,-0.285427987575531,-0.3041779975255129,0.9391971511850375,-0.6144047162193081,left,0.0067750811576843,-0.3110165404790044,0.7144533608488738,-9.308778804284334,-0.1360837740354709,-0.1617655456066131,-0.0162858702242374,3.001096125170588,0.0363620519638061
2025-04-30 01:01:13.756494800,12.422494873046874,0.071021012327424,0.629987895488739,0.0792387238620138,-0.3529438972473144,-0.2927083054555072,0.9425830362495322,-0.5908959579824308,left,0.0058770775794982,-0.3153791660518085,0.6615713001627475,-9.299471462234854,-0.1399289417146417,-0.119414284825325,-0.0140985026955604,3.0417975533932444,0.0157040059566497
2025-04-30 01:01:13.796494800,12.462494873046875,0.0643805499274277,0.7610504627227783,0.0741652691950593,-0.4277018904685974,-0.2781418504666352,0.9469951320339212,-0.5610707761402954,left,0.0078670978546142,-0.3166172064682038,0.5995616013756021,-9.299894656082987,-0.1426072637049502,-0.0273612216114997,-0.0084762685000896,3.053337476800382,-0.0021615624427795
2025-04-30 01:01:13.836494800,12.502494873046874,0.0566793438952426,0.800764799118042,0.0679746275070196,-0.4609731435775757,-0.2617614862809032,0.9518580290211652,-0.5277141758883511,left,0.003326416015625,-0.3155300494767641,0.5281118740700185,-9.307544878575206,-0.1443146505979331,-0.0109305661171674,0.0031119585037231,3.043204205320776,-0.0042636692523956
2025-04-30 01:01:13.876494800,12.542494873046875,0.0483910845439466,0.7623462677001953,0.0615072918897304,-0.4623481929302215,-0.2452892452105381,0.9564073755674296,-0.4944360766562111,left,-0.0043314099311828,-0.3147389010866413,0.4510676146930083,-9.31400384545624,-0.1460643557864895,-0.0308883860707283,0.0038535334169864,3.035827831333876,-0.0219321250915527
2025-04-30 01:01:13.916494800,12.582494873046874,0.0402152975710759,0.6507976651191711,0.0554254047611543,-0.4016459882259369,-0.2302926640707458,0.9601872729603208,-0.4643997905613771,left,-0.0176880359649658,-0.3151260215634203,0.374856810465455,-9.316205739414691,-0.1481003598897668,-0.0517444536089897,0.0048691034317016,3.039437546263635,-0.0256640911102294
2025-04-30 01:01:13.956494800,12.622494873046875,0.0333688406864679,0.475896418094635,0.0505508279924088,-0.3096932172775268,-0.2183491549381642,0.9628963111846568,-0.4406518029418898,left,-0.0173155665397644,-0.3168537496234505,0.3108898401306942,-9.313291313272714,-0.1503292783516966,-0.0742986276745796,0.0054853931069374,3.05554170884639,-0.0288645327091217
2025-04-30 01:01:13.996494800,12.662494873046874,0.0281685850974934,0.3148993849754333,0.0470480338000114,-0.2144289761781692,-0.2098979375191292,0.9646077963839966,-0.4239811082380001,left,-0.0137163400650024,-0.3193879208423875,0.2622354436095804,-9.30701179461181,-0.1525153150833216,-0.0774263814091682,0.0047303568571805,3.0791464563176034,-0.032761126756668
2025-04-30 01:01:14.036494800,12.702494873046875,0.0244318763671468,0.2141771018505096,0.0445866258881615,-0.1638368666172027,-0.2042884260916328,0.9656876357991568,-0.4129888518262927,left,-0.000923752784729,-0.3212033643021034,0.2273191746596246,-9.302323344534637,-0.1540309383251885,-0.0258116647601127,0.0052073001861572,3.0960443996265528,-0.0305879712104797
2025-04-30 01:01:14.076494800,12.742494873046876,0.0213158714726877,0.1461476385593414,0.0423765887241719,-0.1531438082456588,-0.200346853931438,0.9666230841351066,-0.4053011324963288,left,0.0125359296798706,-0.3200681151853849,0.1984068040332756,-9.30649449273944,-0.1539644509093519,0.0670253857970237,-0.0027695838361978,3.085478874209523,-0.0251304805278778
2025-04-30 01:01:14.116494800,12.782494873046875,0.0166445182407231,0.1402909159660339,0.0392781061127961,-0.1642227321863174,-0.1972430145705112,0.9676107049413184,-0.3995285343662624,left,0.0081698298454284,-0.316011888483417,0.1551378999427892,-9.319756709894538,-0.1525839610575836,0.1136842519044876,0.0013091620057821,3.047695671521127,-0.0035975277423858
2025-04-30 01:01:14.156494800,12.822494873046876,0.0117127218817324,0.1514567583799362,0.0360139715485953,-0.1796343028545379,-0.1939481889273288,0.9686321750154824,-0.3933905554420486,left,0.0076780915260314,-0.3117642007153269,0.109323704416817,-9.333269102418422,-0.1511247441702184,0.0750243291258812,-0.0009606927633285,3.008075608794391,0.0094600021839141
2025-04-30 01:01:14.196494800,12.862494873046876,0.006209440874144,0.1650171875953674,0.0326252410852999,-0.1950802952051162,-0.1903331056950401,0.9695423255360934,-0.3867258319895234,left,0.0011904239654541,-0.3094649869576152,0.0580014951922465,-9.34062063422501,-0.1506534306515042,0.0345359854400157,0.0012518176808953,2.986606996569037,0.0083892345428466
2025-04-30 01:01:14.236494800,12.902494873046876,0.0008014132347025,0.1594446450471878,0.0293492760619203,-0.1731239259243011,-0.1864754226265125,0.9703918732408356,-0.3795769547165672,left,-0.0046304464340209,-0.3082450820451743,0.0074894686977553,-9.344434639555216,-0.150681941502104,0.0372032150626182,-0.0002068852772936,2.975209696502984,-0.0074641406536102
2025-04-30 01:01:14.276494800,12.942494873046876,-0.0041759301331631,0.1310174614191055,0.0263398832128651,-0.1513710767030716,-0.183189483472303,0.9711320529785604,-0.3735338298841104,left,-0.0049232244491577,-0.3067489321726473,-0.0390394361274549,-9.348796926417949,-0.1504998978365532,0.03798733279109,0.0025648626033216,2.9612258870750665,-0.0033513903617858
2025-04-30 01:01:14.316494800,12.982494873046877,-0.008170988532048,0.104788526892662,0.0239384354366573,-0.1363216638565063,-0.1805075299196875,0.9717042880922292,-0.3685994774671129,left,-0.0024089813232421,-0.305766741926779,-0.0764117473268648,-9.351469945019485,-0.1504481914915341,0.0007163435220718,0.0027239313349127,2.9520418791443106,0.0028722286224365
2025-04-30 01:01:14.356494800,13.022494873046876,-0.0117773387478574,0.0648272410035133,0.0219297872087203,-0.1049366444349289,-0.1785319368465474,0.9720537261248616,-0.3650958432231711,left,-0.0048404335975646,-0.3058521687222191,-0.1101328836415428,-9.350881331476568,-0.1508535803949935,-0.0090436562895774,0.004845998249948,2.952840920567512,-0.0015484392642974
2025-04-30 01:01:14.396494800,13.062494873046877,-0.0153884782132984,0.0459013953804969,0.0200227444720416,-0.1074610203504562,-0.1771535950997599,0.9722771288655052,-0.3628290743402825,left,0.0001377463340759,-0.3060690653752912,-0.1438895707602147,-9.349782430323955,-0.1513038397663625,-0.0010791448876261,-0.0015118671581149,2.954869211524725,-0.0042815804481506
2025-04-30 01:01:14.436494800,13.102494873046876,-0.0190389651641526,0.0417192839086055,0.0181011780357412,-0.0987647324800491,-0.1760363304739829,0.9724778891301252,-0.3610932888505321,left,-0.0035420656204223,-0.3058981529522369,-0.1780294211107306,-9.349699428215622,-0.1515596538533137,0.0052340901456773,-0.0034522898495197,2.953270836417377,0.0033016502857208
2025-04-30 01:01:14.476494800,13.142494873046877,-0.0225149475455422,0.0667838230729103,0.0162141145194838,-0.1080962419509887,-0.1747105768438499,0.9727252115849498,-0.3588960389459428,left,-0.0035827159881591,-0.3055608415016335,-0.210550081894733,-9.35001974621117,-0.1517193791186313,0.013748487457633,-0.0062544327229261,2.950116464039683,0.0078561007976531
2025-04-30 01:01:14.516494800,13.182494873046876,-0.0261057329262792,0.1256961226463318,0.0140779027727279,-0.1338479816913604,-0.1725061532331152,0.973171429091183,-0.3548859406111977,left,0.0054057836532592,-0.3045982533952039,-0.2441965683708898,-9.352037515774368,-0.1515934848091906,0.040722832083702,-0.0106762051582336,2.9411124888509512,0.0117561817169189
2025-04-30 01:01:14.556494800,13.222494873046877,-0.0307949821224492,0.2518556714057922,0.0109411312189907,-0.2150906920433044,-0.1684172740231062,0.9740870690389624,-0.3470891059024688,left,0.0151971578598022,-0.3015644422194706,-0.2883211759752593,-9.359665526434778,-0.1505661410994125,0.1318262815475464,-0.0155478399246931,2.9127169999718663,0.0197674930095672
2025-04-30 01:01:14.596494800,13.262494873046874,-0.0353288309087718,0.4808496534824371,0.0070868548405225,-0.21461021900177,-0.1607106973581452,0.9757935261709368,-0.3317264305337384,left,0.0008811950683593,-0.2956990486909384,-0.3313511384770274,-9.375174645733832,-0.1481516098410862,0.1626234799623489,-0.0113144144415855,2.857743008507788,0.0385771989822387
2025-04-30 01:01:14.636494800,13.302494873046877,-0.0357790965952961,0.6369456052780151,0.0046567784076815,-0.1620018184185028,-0.1488946429262688,0.9780517735982286,-0.3073848076984594,left,-0.0157314538955688,-0.2904216907209158,-0.3361072104303166,-9.389965387630465,-0.1456822385047648,0.1492728441953659,-0.0149720795452594,2.8081963027894496,0.0114034116268157
2025-04-30 01:01:14.676494800,13.342494873046874,-0.0342057650571878,0.6638676524162292,0.0031940801917698,-0.153524711728096,-0.1355106234674289,0.9802330819207764,-0.2796940526606968,left,-0.0155065655708312,-0.2873404969846788,-0.3216276533747091,-9.399085682675242,-0.1441173053553046,0.0685191452503204,-0.0157547481358051,2.7792323663726446,-0.002450555562973
2025-04-30 01:01:14.716494800,13.382494873046875,-0.0315432971479545,0.5794339776039124,0.0024877435705722,-0.0789610296487808,-0.122816584165046,0.9820566274580044,-0.2533635822591833,left,-0.0104877948760986,-0.2855182002100452,-0.2967609962088987,-9.404954866969584,-0.1430893240776959,0.0660336688160896,-0.0066199116408824,2.7620898006528614,-0.0306255519390106
2025-04-30 01:01:14.756494800,13.422494873046874,-0.0275636447825888,0.4043611884117126,0.0028393928853599,-0.0074315890669822,-0.112785578130496,0.9834090615112446,-0.2323171452908828,left,-0.0052305459976196,-0.2838198397967594,-0.2594591838292777,-9.410736957502364,-0.1420488314936979,0.0458442121744155,-0.0023273769766092,2.7461048805356025,-0.0461990088224411
2025-04-30 01:01:14.796494800,13.462494873046875,-0.0233074561128656,0.1522208452224731,0.0040158800298739,0.0594210028648376,-0.1072723737181363,0.9841487176263028,-0.2204569368593867,left,-0.0022186040878295,-0.2824578333441808,-0.2194900336702354,-9.415486782377958,-0.1411653211655905,0.0278654117137193,-0.0022105630487203,2.7332798857539893,-0.057741954922676
2025-04-30 01:01:14.836494800,13.502494873046874,-0.0206560228803788,-0.098135620355606,0.0052908549129235,0.0864114612340927,-0.1070286477461008,0.9841495188646686,-0.2195961735659229,left,-0.012020468711853,-0.2830212979133635,-0.1944929185251705,-9.414494264209267,-0.1413024475411079,-0.0815177261829376,0.0005864333361387,2.738586175468564,-0.036639004945755
2025-04-30 01:01:14.876494800,13.542494873046875,-0.0189356839185661,-0.2891051173210144,0.007034233886781,0.1390881836414337,-0.1113539782780059,0.9833208228802734,-0.2282706523925268,left,-0.0190981030464172,-0.2880087921690485,-0.1780356864547357,-9.401041492918134,-0.1436342088676243,-0.1665574312210083,-0.0015510860830545,2.785516561208665,-0.0382223278284072
2025-04-30 01:01:14.916494800,13.582494873046874,-0.0159447550670765,-0.3478447198867798,0.0099140600850952,0.2147752940654754,-0.1183673652981484,0.98202380068485,-0.2422776160840593,left,-0.0139167308807373,-0.2947152510504335,-0.1496158668519929,-9.382642497396468,-0.1466972528523162,-0.1890760064125061,-0.0070443842560052,2.8485125310868025,-0.0150788724422454
2025-04-30 01:01:14.956494800,13.622494873046875,-0.0102064618786367,-0.3594981133937835,0.0142863890202355,0.2991979420185089,-0.1259326598230494,0.9805404342264888,-0.2570192316983444,left,-0.0155773758888244,-0.3021889689666579,-0.095553391609108,-9.361796693244576,-0.1499236761249198,-0.1952339857816696,-0.0153353912755846,2.9185645569562912,-0.0135011970996856
2025-04-30 01:01:14.996494800,13.662494873046874,-0.0003348291552347,-0.4099809229373932,0.0208141956588087,0.4231415390968323,-0.134525948110088,0.9788622292521508,-0.2732029306736102,left,-0.0146635770797729,-0.3093317599924199,-0.0031269546478055,-9.34119814185202,-0.1526374566550028,-0.1674001663923263,-0.0160184521228075,2.9853622572049496,-0.0123242139816284
2025-04-30 01:01:15.036494800,13.702494873046875,0.0126263337381219,-0.4555762410163879,0.028952863611606,0.5046711564064026,-0.1444461360071502,0.9769835499677758,-0.2915661564543654,left,-0.0143859982490539,-0.3149908687104409,0.1177275217553135,-9.323411725270748,-0.1542725722851242,-0.119950920343399,-0.0090501857921481,3.038177024808526,-0.0033316612243652
2025-04-30 01:01:15.076494800,13.742494873046876,0.0276181228519039,-0.4340435862541199,0.0380319783760628,0.5231415033340454,-0.1547828556664938,0.9749932646730044,-0.3104325320656436,left,0.0047717094421386,-0.319153981797574,0.2571321839201264,-9.307875133442876,-0.1548677268846207,-0.079838827252388,-0.0108733866363763,3.0769682354956864,0.0111604034900665
2025-04-30 01:01:15.116494800,13.782494873046875,0.0423162183284029,-0.3872046768665313,0.0467886508558558,0.4758381843566894,-0.1643159787294881,0.9730323348087632,-0.3276981872792101,left,0.0130351781845092,-0.3225423829660112,0.3934641880407929,-9.292620281165838,-0.154980777428357,-0.0594100356101989,-0.0111678224056959,3.1085014378786084,0.0139813423156738
