time,seconds_elapsed,roll,rotationRateZ,quaternionY,rotationRateY,quaternionZ,quaternionW,yaw,devicelocation,accelerationZ,pitch,gravityX,gravityZ,quaternionX,rotationRateX,accelerationX,gravityY,accelerationY
2025-04-30 00:09:02.924953000,0.485953125,-1.668588561127141,-0.0370301902294158,7.627798898142053e-17,0.0308692939579486,-0.6453706873028472,-0.191513547709592,2.880900421420522,right,-1.0802414417266846,0.287168565147362,-9.36012788324952,0.918278335739672,-0.7394721699039254,-0.022129476070404,0.8504219651222229,-2.777614994303882,0.3611994981765747
2025-04-30 00:09:02.964952800,0.525952880859375,-0.9180998247399884,-0.0061775129288434,0.0181209820523831,0.0101216174662113,-0.895326824087346,-0.0452368128703038,3.044387734467231,right,-0.3852518200874328,0.0076075860583078,-7.790658552390337,-5.955707562541961,-0.4427358246037322,-0.0021062307059764,0.6915489435195923,-0.0746041727485135,0.0854282155632972
2025-04-30 00:09:03.004952800,0.565952880859375,-0.1318264604479985,0.024675166234374,0.0331205171594302,-0.0106260608881711,-0.9910577909143464,0.1088322561332177,-2.9281847669513748,right,-0.0104468464851379,-0.0809159319898943,-1.2848178381063042,-9.689754389891029,-0.0697356201635495,0.0179170165210962,0.0293062329292297,0.7926488726202398,-0.0031477957963943
2025-04-30 00:09:03.044953000,0.605953125,-0.1136410576949548,0.0382654443383216,0.0332065687200775,-0.0158497579395771,-0.9911931103494496,0.1128564193086369,-2.91938298303866,right,-0.005186378955841,-0.0796361078004181,-1.1085171952832489,-9.712515672275424,-0.0608016634648279,0.0073350062593817,0.0129666700959205,0.7801384967457503,3.74242663383e-05
2025-04-30 00:09:03.084953000,0.645953125,-0.1045231198367795,0.04886956512928,0.0325867961689882,-0.0357662364840507,-0.9912238612019624,0.1151028467678609,-2.914447003350224,right,-0.0032777190208435,-0.0776295275804114,-1.0200754531770944,-9.723756612735986,-0.0562538686994841,-0.0148020954802632,0.0009297579526901,0.7605215037364512,0.0055207312107086
2025-04-30 00:09:03.124953000,0.685953125,-0.1010249480219374,0.0413478836417198,0.0333531929489235,-0.0444400012493133,-0.991116154881594,0.1165774854732265,-2.91141644850795,right,0.0033075809478759,-0.0789360701774247,-0.9859528918880968,-9.726268303295967,-0.0546432492015899,-0.0075020277872681,-0.0048510730266571,0.7732950605917721,0.0013568177819252
2025-04-30 00:09:03.164953000,0.725953125,-0.1016985904985487,0.0237266216427087,0.0337266613499294,-0.0060896500945091,-0.9910218228540234,0.1170827020609789,-2.910460554235135,right,0.0064111948013305,-0.0798216308786686,-0.992434801253304,-9.724916888687014,-0.0550430550708854,-0.0098298517987132,-0.0041850954294204,0.7819521220389754,0.0092919096350669
2025-04-30 00:09:03.204952800,0.765952880859375,-0.1026074217737626,-0.0041173733770847,0.0339611510380848,0.0087082628160715,-0.99097117649436,0.1172137735689596,-2.9102546041960164,right,0.0053419470787048,-0.0804135180243574,-1.0012250606261193,-9.723548522943258,-0.0555303297645874,-0.0033898837864398,-0.0036572366952896,0.7877379388988017,0.0096312388777732
2025-04-30 00:09:03.244952800,0.805952880859375,-0.1031380506505356,-0.0208759866654872,0.0350095037725652,0.0093504292890429,-0.9909535914366784,0.1168782445430776,-2.911050017531084,right,0.001727819442749,-0.0825462646815627,-1.0062092787794767,-9.721322663587332,-0.0558999076318633,-0.01044930703938,-0.0013325586915016,0.808583596920222,0.0045068562030792
2025-04-30 00:09:03.284952800,0.845952880859375,-0.1039251848993841,-0.0017986297607421,0.0356405721848574,-0.0082496413961052,-0.990916465415386,0.1167804531389378,-2.911338844680692,right,-0.0016847848892211,-0.0838957094457885,-1.013746834677458,-9.719434073361754,-0.0563607503318941,-0.0059338635765016,-0.0003123134374618,0.8217713605996221,0.0011947005987167
2025-04-30 00:09:03.324953000,0.885953125,-0.1047128081523835,0.017278729006648,0.0362716206027253,-0.0258497148752212,-0.990878777101926,0.1166826573746096,-2.911628675907882,right,-0.0050998926162719,-0.085244943812346,-1.0212849750973283,-9.717520933216807,-0.0568215615940607,-0.0014184205792844,0.0007079914212226,0.8349555440824479,-0.0021171048283576
2025-04-30 00:09:03.364953000,0.925953125,-0.1056949565260845,-0.0013066083192825,0.0359593183374501,-0.0263270176947116,-0.9908451798757828,0.1168370428013449,-2.911329073626902,right,-0.0035133957862854,-0.0847478140382926,-1.0308721570014954,-9.71692472088933,-0.0572856424795266,-0.002008241135627,0.0001814067363739,0.8300979479834437,-0.0006650984287261
2025-04-30 00:09:03.404953000,0.965953125,-0.1066772251673462,-0.0198919456452131,0.0356470042243129,-0.0268043223768472,-0.9908113678903862,0.1169914202445006,-2.911029014760245,right,-0.0019281506538391,-0.084250990683631,-1.0404600695580244,-9.716316233602166,-0.0577497044108713,-0.0025980616919696,-0.0003450959920883,0.8252432014286517,0.000786617398262
2025-04-30 00:09:03.444953000,1.005953125,-0.107516378295561,-0.0337923839688301,0.0356127649305988,-0.023942083120346,-0.990832717808451,0.1166222513572602,-2.9118036495891086,right,0.0007572770118713,-0.0842355118564731,-1.0486145883105695,-9.715452310249209,-0.0581507580571694,-0.0020365545060485,-0.0002821907401084,0.8250918833244592,-0.0013559237122535
2025-04-30 00:09:03.484952800,1.045952880859375,-0.108355494289054,-0.0476928204298019,0.0355785100629268,-0.0210798420011997,-0.9908536889960804,0.1162530353053402,-2.91257823624714,right,0.003442108631134,-0.0842193662928365,-1.0567680110845714,-9.714582541677355,-0.05855178629421,-0.0014750473201274,-0.0002193823456764,0.82493413547948,-0.0034978166222572
2025-04-30 00:09:03.524952800,1.085952880859375,-0.108679907186446,-0.0441057756543159,0.0356560364291087,-0.0007474068552255,-0.9909254716550222,0.1155440502780702,-2.9140262738580254,right,0.0042495727539062,-0.0843280629672408,-1.0599098162416367,-9.714149995478987,-0.0586927803787695,0.001741201383993,-0.000644989311695,0.8259962848182767,-0.0043305456638336
2025-04-30 00:09:03.564953000,1.125953125,-0.1084112140667933,-0.0234226696193218,0.0354820884933089,-0.0004417733289301,-0.9910137301058856,0.1149298722706018,-2.915233690126102,right,0.0005451440811157,-0.0838745815541481,-1.0573400388188658,-9.714805829039216,-0.058513073889242,0.0006615896709263,-0.0027234405279159,0.8215648782420903,-0.0051477849483489
2025-04-30 00:09:03.604953000,1.165953125,-0.1081419942543579,-0.0027395654469728,0.0353081290072349,-0.0001361398317385,-0.9911015590382434,0.1143156782959745,-2.916441124854456,right,-0.0031595230102539,-0.0834214391616859,-1.0547646353729068,-9.715458739989996,-0.0583333482628016,-0.000418021925725,-0.0048024728894233,0.8171366134710609,-0.00596534460783
2025-04-30 00:09:03.644953000,1.205953125,-0.1081740156968028,0.0003947124350816,0.0352166719553794,0.0053643975406885,-0.9911052854814096,0.1143093320554224,-2.9164461755805613,right,-0.0008620023727416,-0.083240379677451,-1.0550917484354227,-9.715572137236595,-0.0583391797068026,-0.0093063646927475,-0.0013101771473884,0.8153671926457434,-0.001627467572689
2025-04-30 00:09:03.684953000,1.245953125,-0.1081740156968028,-0.0080538121983408,0.0352166719553794,0.0049006822519004,-0.9911052854814096,0.1143093320554224,-2.9164461755805613,right,-5.54919242858e-05,-0.083240379677451,-1.0550917484354227,-9.715572137236595,-0.0583391797068026,-0.0074927858076989,-0.000322513282299,0.8153671926457434,-0.0001250877976417
2025-04-30 00:09:03.724952800,1.285952880859375,-0.1081740156968028,-0.0081762438639998,0.0352166719553794,-0.0047498201020061,-0.9911052854814096,0.1143093320554224,-2.9164461755805613,right,-0.0001461505889892,-0.083240379677451,-1.0550917484354227,-9.715572137236595,-0.0583391797068026,-0.000187964644283,-0.0024821981787681,0.8153671926457434,-0.0025738328695297
2025-04-30 00:09:03.764952800,1.325952880859375,-0.1088969847046165,0.0085468105971813,0.0350320768155775,0.0089174099266529,-0.9911260699851157,0.1140163381539353,-2.917046907509441,right,0.002166748046875,-0.082915858208393,-1.0621442242302,-9.715069448411464,-0.0586691063010184,0.0057258363813161,-0.0016300156712532,0.8121957230027764,-0.0011848360300064
2025-04-30 00:09:03.804953000,1.365953125,-0.1088969847046165,0.0190226249396801,0.0350320768155775,0.010101263411343,-0.9911260699851157,0.1140163381539353,-2.917046907509441,right,0.0011343955993652,-0.082915858208393,-1.0621442242302,-9.715069448411464,-0.0586691063010184,-0.0102810505777597,-0.0034544840455055,0.8121957230027764,-0.0013008564710617
2025-04-30 00:09:03.844953000,1.405953125,-0.1085677448774115,0.0437758564949035,0.0353727720959014,-0.0066987955942749,-0.9910086537021104,0.1149734226435891,-2.9151417069629697,right,0.0001025795936584,-0.0836776685081701,-1.0588782081715762,-9.71480056834221,-0.0585813864744881,-0.0235186666250228,-0.0007054954767227,0.8196406321812421,0.0010776966810226
2025-04-30 00:09:03.884953000,1.445953125,-0.1089186568065337,0.0422688499093055,0.0357836510626729,-0.0128246769309043,-0.990879577894412,0.1158240676112197,-2.913485474815856,right,-0.0012792944908142,-0.0846454165489643,-1.0622004844620825,-9.713635616216065,-0.0588383586567499,-0.0179367680102586,-0.0007554441690444,0.8290973926387727,0.0024800300598144
2025-04-30 00:09:03.924953000,1.485953125,-0.1092679954098312,0.0407618433237075,0.0361944952112283,-0.0189505573362112,-0.990749611852181,0.1166746298564618,-2.911829439423088,right,-0.002662181854248,-0.0856137515634228,-1.065505663487315,-9.712461311739682,-0.0590952735310851,-0.0123548693954944,-0.0008071139454841,0.8385591215323657,0.003881849348545
2025-04-30 00:09:03.964952800,1.525952880859375,-0.1101752843458069,0.0231669712811708,0.0367341213039492,-0.0192051362246274,-0.9906015013878652,0.1174801664205272,-2.910300813139022,right,-0.0003945231437683,-0.0869012753721802,-1.074197650117427,-9.710409055384993,-0.0596449101134471,-0.0238443315029144,-0.0017548725008964,0.8511384709898382,0.0022013336420059
2025-04-30 00:09:04.004952800,1.565952880859375,-0.1107412794196616,0.0245497357100248,0.0370556679281001,-0.0019907988607883,-0.9905274848698894,0.1178327205578756,-2.9096480505094333,right,0.0063021183013916,-0.0876567186853449,-1.079622159384191,-9.709157594019176,-0.05997991038218,-0.0189394224435091,0.0002548694610595,0.858518644369021,0.0018239468336105
2025-04-30 00:09:04.044953000,1.605953125,-0.1104337594719519,0.0098241632804274,0.0378286529035988,0.0079562310129404,-0.9904469394208908,0.1182865880793137,-2.908798960235443,right,0.0024089217185974,-0.0892313692664296,-1.07648605331555,-9.708133511668445,-0.059932643643077,-0.0325476489961147,-0.0021366700530052,0.8739003378961234,0.0040888488292694
2025-04-30 00:09:04.084953000,1.645953125,-0.1095147806484145,-3.54452058672e-05,0.0386995681604048,0.0262957531958818,-0.9904381302283176,0.1182623397807768,-2.9088941812084865,right,0.0033891201019287,-0.0908735690513194,-1.0674057249549775,-9.707679338160156,-0.0595688045938879,-0.0313013307750225,-0.0009168684482574,0.8899395454838871,0.0011555552482604
2025-04-30 00:09:04.124953000,1.685953125,-0.1083243669783988,-0.0160590186715126,0.0390024741492104,0.0282450653612613,-0.9905162299747852,0.1178003912180622,-2.9098007061883187,right,0.0012711882591247,-0.0912888550755171,-1.0558087375983596,-9.708574825695155,-0.0589851420490591,-0.0251868143677711,-0.0002936124801635,0.8939952506154775,0.0013641640543937
2025-04-30 00:09:04.164953000,1.725953125,-0.1071343217905163,-0.0320825949311256,0.0393053594492281,0.030194379389286,-0.9905938066101848,0.1173382743239771,-2.910707030971152,right,-0.0008484721183776,-0.09170522544415,-1.0442144536554814,-9.709453362095356,-0.0584014484928926,-0.0190722960978746,0.0003299191594123,0.8980613310106098,0.0015717223286628
2025-04-30 00:09:04.204952800,1.765952880859375,-0.1059445507653115,-0.0481061711907386,0.0396082119645996,0.0321436934173107,-0.9906705358155437,0.1168762582692355,-2.911612409037382,right,-0.0029698014259338,-0.0921226570433649,-1.0326219963435084,-9.710315531882642,-0.0578177051236037,-0.0129577778279781,0.0009536445140838,0.9021377136040478,0.0017782226204872
2025-04-30 00:09:04.244952800,1.805952880859375,-0.1049879902267518,-0.0401546545326709,0.0398267812693925,0.0065776789560914,-0.9908149396966016,0.1158211023890548,-2.9137138832882785,right,-0.0090847611427307,-0.0923293229842258,-1.0233134121850131,-9.711112819740176,-0.0573136450355855,-0.0012139999307692,0.0031672120094299,0.9041557754281908,0.0005601495504379
2025-04-30 00:09:04.284952800,1.845952880859375,-0.1053102367276201,-0.0346314460039138,0.0396531492884047,-0.0167203098535537,-0.990871140769819,0.1153403577410366,-2.9146797942212133,right,-0.004667580127716,-0.091960725333495,-1.0264777214348315,-9.711113404262065,-0.0574336799943402,0.0223848354071378,0.0071475580334663,0.9005564357619732,-0.0001955926418304
2025-04-30 00:09:04.324953000,1.885953125,-0.1060925740371376,-0.0239671990275383,0.0387555008646989,-0.0221175868064165,-0.9909764689778358,0.1146083183929165,-2.916102185427176,right,-0.0008467435836791,-0.0901581172243358,-1.0342449944354593,-9.71190601594448,-0.0576940955955198,0.0379003137350082,0.0028648823499679,0.8829520977493375,-7.18161463737e-05
2025-04-30 00:09:04.364953000,1.925953125,-0.10631988824316,-0.0047376360744237,0.0381797294408046,-0.0086456462740898,-0.9910132584946244,0.1144610657442699,-2.91635291156619,right,0.0023509263992309,-0.0890084022399707,-1.0365597011186185,-9.71267349318564,-0.0577387796642709,0.02757328748703,0.002945065498352,0.8717224824003875,-0.0032263100147247
2025-04-30 00:09:04.404953000,1.965953125,-0.1065211254810901,0.0140880048274993,0.0376066745547901,-0.0106239784508943,-0.9910038285333712,0.114706722737845,-2.915811656650914,right,0.0059577822685241,-0.0879072923636247,-1.0386156107351183,-9.713413497897982,-0.0577882393485661,0.020586147904396,0.0038198009133338,0.860966475912556,-0.0052763447165489
2025-04-30 00:09:04.444953000,2.005953125,-0.1058861502498618,0.02342882566154,0.0375547218458558,0.0240358095616102,-0.9909655088510176,0.115205303510704,-2.914775650643765,right,0.0024018883705139,-0.0877891021315276,-1.0324584032796322,-9.714172207310796,-0.0574865612088261,-0.0060056447982788,-7.13691115379e-05,0.8598118990499526,0.0042731091380119
2025-04-30 00:09:04.484952800,2.045952880859375,-0.1055258760925759,0.007261348888278,0.0381675315887885,0.0171520002186298,-0.990936766133354,0.1153056422251828,-2.914617010998506,right,0.0016079545021057,-0.0889925657325778,-1.0288488344803453,-9.713507021400332,-0.0573776180536499,-0.0248725488781929,-0.0004957914352416,0.8715677302300929,0.0038264393806457
2025-04-30 00:09:04.524952800,2.085952880859375,-0.1051653447921729,-0.0089061316102743,0.0387803248402033,0.0102681927382946,-0.9909074923210436,0.1154060273675438,-2.914457647986396,right,0.0008124113082885,-0.0901959693375211,-1.0252359046801924,-9.712827222442629,-0.0572686500528483,-0.0437394529581069,-0.0009205564856529,0.8833218078445643,0.0033799558877944
2025-04-30 00:09:04.564953000,2.125953125,-0.1049008195955036,-0.0138884773477911,0.0399902512092727,0.0088946521282196,-0.9908977095196336,0.1150844527241206,-2.9152083221757623,right,-2.18152999877e-05,-0.0925626015893076,-1.022444812656939,-9.7109924082309,-0.0572535402639183,-0.0358240380883216,-0.0002976432442665,0.9064336572322994,0.0013566091656684
2025-04-30 00:09:04.604953000,2.165953125,-0.1045754020726524,-0.0095705678686499,0.0404358657057003,0.0145601667463779,-0.990901441100202,0.1149560375750831,-2.915494099149027,right,-0.0002244114875793,-0.0934072748765421,-1.019204369430989,-9.710559277510642,-0.0571331037132624,-0.030189961194992,0.0008932128548622,0.9146813341610132,0.0017541795969009
2025-04-30 00:09:04.644953000,2.205953125,-0.1037830318040815,0.0078926915302872,0.0412950789090544,0.0216419268399477,-0.9908947426425336,0.1148616602162844,-2.915728159560562,right,-0.0037485361099243,-0.09503524135054,-1.0113540212567895,-9.709870126202702,-0.0568253054091105,-0.025104958564043,0.0026871263980865,0.9305754341896624,-0.0095439180731773
2025-04-30 00:09:04.684953000,2.245953125,-0.1031086493997372,0.0181416384875774,0.0415111459367931,0.0047381073236465,-0.9908641403878212,0.1151944715416286,-2.9150466252732867,right,-0.0041230916976928,-0.0954318267370056,-1.004767628603801,-9.710182260891797,-0.056527137614702,0.0033321743831038,0.0025076866149902,0.9344469418607652,-0.0057131871581077
2025-04-30 00:09:04.724952800,2.285952880859375,-0.1035179303940864,0.0152837820351123,0.0415388235149959,-0.0048073437064886,-0.9908210932741638,0.1154455290434573,-2.9145630275870635,right,-0.0026103854179382,-0.0955628872020069,-1.0087290065154433,-9.70964800788462,-0.0567471850686062,-0.0061040483415126,0.0022366344928741,0.9357263872120528,-0.0043825283646583
2025-04-30 00:09:04.764952800,2.325952880859375,-0.1039271848452993,0.0124259246513247,0.0415665010931993,-0.0143527947366237,-0.9907780969485768,0.1156965553477655,-2.9140796238581275,right,-0.0010979771614074,-0.0956941671905299,-1.0126899460356682,-9.709112001311778,-0.0569672325225087,-0.0155402719974517,0.0019655004143714,0.9370078783899544,-0.0030520558357238
2025-04-30 00:09:04.804953000,2.365953125,-0.1043363468090275,0.0095680672675371,0.041594166178772,-0.0238982457667589,-0.990734854666216,0.1159475228804236,-2.913596264673162,right,0.0004144310951232,-0.0958256095212048,-1.0166495703816414,-9.708574241173269,-0.057187261418353,-0.0249764956533908,0.0016942620277404,0.9382909770030528,-0.0017217695713043
2025-04-30 00:09:04.844953000,2.405953125,-0.1050230098473213,0.0205103065818548,0.0421017166401025,-0.0180229321122169,-0.990638009509096,0.1163832822036933,-2.912799533259284,right,-0.0011255741119384,-0.0969762703354496,-1.0232019876997918,-9.70679378749728,-0.0576080148408109,-0.0169428475201129,-0.0005591511726379,0.9495227112438528,-0.0015249103307724
2025-04-30 00:09:04.884953000,2.445953125,-0.105488640047611,0.0210449546575546,0.0422873611602655,-0.0199427977204322,-0.9905809474738748,0.1166686908751623,-2.912264834069439,right,-0.000742495059967,-0.0974367486122209,-1.027675552917272,-9.705880764305592,-0.0578755834012145,-0.0131787871941924,2.27913260459e-05,0.9540171731188892,-0.0008021593093872
2025-04-30 00:09:04.924953000,2.485953125,-0.106214149724425,0.0147295789793133,0.0425441385010265,-0.0181811619549989,-0.9904985714449768,0.117068560890172,-2.911519117744795,right,2.980232238769531e-07,-0.0980841362412211,-1.0346513102140278,-9.704516490215063,-0.0582868929582288,-0.0174096785485744,-3.74764204025e-05,0.9603355624854564,0.0001124143600463
2025-04-30 00:09:04.964952800,2.525952880859375,-0.1067141573614262,0.0068394783884286,0.0429717510015694,-0.0205601267516613,-0.9904477604941584,0.1171907097321857,-2.911338454386866,right,1.6093254089e-06,-0.0990168098059745,-1.0394076378956436,-9.7031031162858,-0.0585905706896169,-0.0432560518383979,-0.0003492683172225,0.9694375912211834,0.001047134399414
2025-04-30 00:09:05.004952800,2.565952880859375,-0.1078005694987804,0.0075365919619798,0.0441450429435878,-0.025516502559185,-0.9903401419613164,0.1173226410502691,-2.911239702788941,right,0.0001553297042846,-0.1015191025519113,-1.049684336433932,-9.699525842320918,-0.0592707337856501,-0.0590012595057487,-0.000913567841053,0.9938534358795732,-0.00030317902565
2025-04-30 00:09:05.044953000,2.605953125,-0.1087357281675243,0.0133582018315792,0.0452218536314103,-0.0167653374373912,-0.9902265798882904,0.1175659489588078,-2.9109016747901912,right,0.0015092492103576,-0.1038236032189131,-1.0585030912488698,-9.696237322169544,-0.0598702938082071,-0.0458384491503238,-0.0011904835700988,1.0163338554959744,-0.0010690614581108
2025-04-30 00:09:05.084953000,2.645953125,-0.1089936462834406,0.003453523851931,0.0455459717412765,-0.0108379861339926,-0.9901988516976684,0.1175900466550604,-2.910898053848483,right,0.0007630586624145,-0.1045086454960985,-1.0609279072429985,-9.695269938442111,-0.0600364161903475,-0.028110546991229,-0.0012265890836715,1.0230153790865093,0.0025036111474037
2025-04-30 00:09:05.124953000,2.685953125,-0.1089936462834406,-0.006451154127717,0.0455459717412765,-0.0049106352962553,-0.9901988516976684,0.1175900466550604,-2.910898053848483,right,0.0001155138015747,-0.1045086454960985,-1.0609279072429985,-9.695269938442111,-0.0600364161903475,-0.0103826448321342,-0.0015099570155143,1.0230153790865093,0.0067576095461845
2025-04-30 00:09:05.164953000,2.725953125,-0.1092239359719157,-0.0349790900945663,0.0461398097857298,-0.0118544595316052,-0.9902081702998716,0.1171974195328544,-2.911758690642744,right,-0.0023176670074462,-0.1056823396266691,-1.0630289711754768,-9.693825000330806,-0.0601962605754829,-0.0143378991633653,-0.0013071224093437,1.0344619251217693,0.0088100060820579
2025-04-30 00:09:05.204952800,2.765952880859375,-0.1093603042556295,-0.0354159586131572,0.0464459598202215,-0.0085203144699335,-0.9902659260635344,0.1165520328541998,-2.9130954287193345,right,-0.0018539428710937,-0.1062350955048281,-1.0642883235868066,-9.693110130059718,-0.0602635522532388,-0.0125752594321966,-0.0009871646761894,1.0398521667927505,0.0051409974694252
2025-04-30 00:09:05.244952800,2.805952880859375,-0.1094974257651627,-0.0358528271317482,0.0467520859916669,-0.0051861694082617,-0.9903231703231004,0.1159066106178359,-2.914432274879623,right,-0.0013906359672546,-0.1067876736603267,-1.065554471065104,-9.692391168135403,-0.0603308148695024,-0.0108126206323504,-0.000666506588459,1.0452404357023537,0.0014721825718879
2025-04-30 00:09:05.284953000,2.845953125,-0.110162202229943,-0.0091074258089065,0.0470083501940577,-0.0115217482671141,-0.990357667317419,0.1153355296584861,-2.9156425622804,right,-0.0020092129707336,-0.1073085419409313,-1.0719375231657176,-9.691138537725806,-0.060660211381267,-0.0072433166205883,-0.0009259358048439,1.050319127206132,-0.0009307041764259
2025-04-30 00:09:05.324953000,2.885953125,-0.1110021859547385,-0.0066909659653902,0.0468675854177398,-0.0111089078709483,-0.9903553581374676,0.1152022910356696,-2.9159413252138604,right,0.000230073928833,-0.1071038105833836,-1.0801013212032615,-9.690448217374088,-0.0610579464853774,0.0005969945341348,-0.0006033554673194,1.048322984952852,0.0007236301898956
2025-04-30 00:09:05.364953000,2.925953125,-0.1114186581553188,-0.0135670136660337,0.0469380215502019,-0.0040507107041776,-0.9903664878787268,0.1149696502049301,-2.916438777451144,right,0.0014004707336425,-0.1072636206070725,-1.084118447890133,-9.689830962258576,-0.0612612333946559,-0.0068072904832661,-0.0004300847649574,1.049881174180284,0.0012426748871803
2025-04-30 00:09:05.404953000,2.965953125,-0.1118352420317563,-0.0204430613666772,0.0470084568891021,0.003007486462593,-0.990377586422466,0.1147369585861201,-2.9169364281381447,right,0.0025706887245178,-0.1074232355685244,-1.0881362321641297,-9.6892119535774,-0.0614645207913963,-0.0142115764319896,-0.0002567470073699,1.0514374637115746,0.0017619132995605
2025-04-30 00:09:05.444953000,3.005953125,-0.1117688306973169,-0.0215894170105457,0.0471031335734063,0.0125200767070055,-0.9904157474921562,0.1143908301089145,-2.9176392380577925,right,0.0023273229598999,-0.1075630492722215,-1.0874763800159095,-9.689137719297408,-0.0614226888584936,-0.005330323241651,-9.34153795242e-05,1.05280064182356,0.0012958273291587
2025-04-30 00:09:05.484952800,3.045952880859375,-0.1117688306973169,-0.0227357745170593,0.0471031335734063,0.0220326669514179,-0.9904157474921562,0.1143908301089145,-2.9176392380577925,right,0.0020915269851684,-0.1075630492722215,-1.0874763800159095,-9.689137719297408,-0.0614226888584936,0.0035509308800101,0.0001372098922729,1.05280064182356,0.0009687393903732
2025-04-30 00:09:05.524952800,3.085952880859375,-0.1112069375890922,-0.0118873659521341,0.0471400826188239,0.0085903210565447,-0.9905007479541008,0.1138024369754275,-2.9187974713661373,right,-0.0017130970954895,-0.1075013108766245,-1.082039157398045,-9.689811673036218,-0.0611138022070209,0.0018722922541201,-0.0001940727233886,1.052198657342419,0.0015458762645721
2025-04-30 00:09:05.667128000,3.228128173828125,-0.1112076725081859,0.0061820512637495,0.0471010642199915,-0.0076096937991678,-0.9905351324174864,0.1135294194957703,-2.919343226399579,right,0.0002174939145334,-0.1073890257821055,-1.0820593234032392,-9.689928577414154,-0.0610952568254644,0.0077638491056859,0.0021925424225628,1.0511039209082722,0.0029149430338293
2025-04-30 00:09:05.707051300,3.26805126953125,-0.1111872561009293,0.0014782100915908,0.0470221408377276,-4.20657452195e-05,-0.9905278445600044,0.1136324581830353,-2.919126828679369,right,0.000684387399815,-0.1072407709757579,-1.0818787792045623,-9.69010510302484,-0.0610822581588539,0.0086085451766848,-0.0005508792819455,1.0496583982750771,0.0019991290755569
2025-04-30 00:09:05.906675700,3.46767578125,-0.1098943579109968,0.0037843440659344,0.0469310481805597,0.0047447523102164,-0.9905639137892416,0.1137043870510578,-2.9189045624364582,right,-0.0008364460081793,-0.1069223259418855,-1.069386158182472,-9.691827689033746,-0.0604299784884108,0.0011458757799118,0.0005912852939218,1.0465533449318258,0.0009263304527848
2025-04-30 00:09:05.946675700,3.50767578125,-0.109846356580894,0.0039933058433234,0.0468822763170151,0.0011022700928151,-0.9905573269523856,0.1137952432335298,-2.918714355317488,right,-0.0011013150215148,-0.1068300093354207,-1.0689315462827682,-9.691974988549948,-0.0604056812047251,0.0055319629609584,0.00040914863348,1.0456532542869448,-0.0002281069755554
2025-04-30 00:09:05.986676000,3.547676025390625,-0.109846356580894,0.0074620163068175,0.0468822763170151,0.0021360868122428,-0.9905573269523856,0.1137952432335298,-2.918714355317488,right,-0.0012636184692382,-0.1068300093354207,-1.0689315462827682,-9.691974988549948,-0.0604056812047251,0.0031595404725521,0.0004489570856094,1.0456532542869448,-0.0009493008255958
2025-04-30 00:09:06.026676000,3.587676025390625,-0.1098067883973042,0.009735302068293,0.0468243619958228,0.0021169509273022,-0.99052784406114,0.1140814786287838,-2.9181303805413323,right,0.000524878501892,-0.1067441960638671,-1.068557890664786,-9.692106505975127,-0.0603951229892596,0.0012875829124823,0.0009472221136093,1.0448165112018584,-0.0018779560923576
2025-04-30 00:09:06.066676000,3.627676025390625,-0.1098067883973042,0.0120085887610912,0.0468243619958228,0.0020978152751922,-0.99052784406114,0.1140814786287838,-2.9181303805413323,right,0.0023000240325927,-0.1067441960638671,-1.068557890664786,-9.692106505975127,-0.0603951229892596,-0.0005843747640028,0.0014835894107818,1.0448165112018584,-0.0028919428586959
2025-04-30 00:09:06.226067000,3.78706689453125,-0.1106724949112605,-0.0096801407635211,0.0468616259597216,-0.0160869173705577,-0.9903879886108063,0.1150169512179111,-2.9162964413391186,right,0.0025712007191032,-0.1070316429667671,-1.076914800121635,-9.690879010006784,-0.0608824258387615,-0.0046201981604099,0.0013331603258848,1.0476192936629056,0.0004412230046
2025-04-30 00:09:06.385762600,3.946762451171875,-0.1107808574100059,0.0011669477680698,0.0466240534397364,0.0005684769130311,-0.9904158105623648,0.1148626157630301,-2.9165892368495547,right,-0.0027304044924676,-0.1065467862328966,-1.0780209347326308,-9.691265963497758,-0.0609028045845697,0.010437493212521,0.0004553813487291,1.042891534488648,-0.0027561397291719
2025-04-30 00:09:06.425685500,3.986685546875,-0.1108835180377534,0.0020935896318405,0.0464378155655169,-0.0065035270527005,-0.9904207411229567,0.1148786139389752,-2.916543898144221,right,-0.0013652022462338,-0.1061856456987109,-1.0790574381735176,-9.691528998348115,-0.0609350113929529,0.0066987853497266,0.0002276906743645,1.039370009298995,-0.0013780698645859
2025-04-30 00:09:06.465685500,4.026685546875,-0.1108835180377534,0.0022673306521028,0.0464378155655169,-0.0038118832744657,-0.9904207411229567,0.1148786139389752,-2.916543898144221,right,-0.0007104277610778,-0.1061856456987109,-1.0790574381735176,-9.691528998348115,-0.0609350113929529,0.0016504311934113,0.0005870312452316,1.039370009298995,-0.0007826164364814
2025-04-30 00:09:06.505685500,4.066685546875,-0.1108835180377534,0.002441071672365,0.0464378155655169,-0.0011202392634004,-0.9904207411229567,0.1148786139389752,-2.916543898144221,right,-5.56707382202e-05,-0.1061856456987109,-1.0790574381735176,-9.691528998348115,-0.0609350113929529,-0.0033979229629039,0.0009463727474212,1.039370009298995,-0.0001871734857559
2025-04-30 00:09:06.545685500,4.106685546875,-0.1109442229760435,0.0037169521674513,0.046725537551121,-0.0051731830462813,-0.9904038317672212,0.1148755701045052,-2.9165818983857448,right,-0.0008977651596069,-0.1067709743400034,-1.0795782471772282,-9.690856798174975,-0.0609960911857923,-0.0053097978234291,0.0004764199256896,1.0450775732908395,-0.0011483430862426
2025-04-30 00:09:06.585685500,4.146685546875,-0.1110049539166542,0.004992832429707,0.0470132552402542,-0.0092261265963315,-0.9903868404258944,0.1148725066794851,-2.916619957925593,right,-0.0017400979995727,-0.1073562992527017,-1.0800988369852305,-9.690181675392388,-0.0610571648738559,-0.0072216726839542,6.4522027969e-06,1.050784771956503,-0.0021094754338264
2025-04-30 00:09:06.625685500,4.186685546875,-0.1113044375319478,0.0094859898090362,0.0472783314985499,-0.0103285415098071,-0.9903342692879452,0.1151140950696183,-2.916175869713704,right,-0.0011570453643798,-0.1079533917599276,-1.082930918605998,-9.689232411843538,-0.061248493696437,-0.0100370924919843,4.6119093894e-06,1.056606390782073,-0.0014030933380126
2025-04-30 00:09:06.665685500,4.226685546875,-0.1116037107941755,0.0139791462570428,0.0475434030635942,-0.0114309564232826,-0.990281717740546,0.1153556014741603,-2.915732178937441,right,-0.0005744099617004,-0.1085506338511495,-1.0857601506825536,-9.68827905664146,-0.0614398166579694,-0.012852513231337,2.4735927581e-06,1.0624290325209498,-0.0006968155503273
2025-04-30 00:09:06.705685500,4.266685546875,-0.1118256480673859,0.0170614272356033,0.0478369046338197,-0.0076336837373673,-0.990218768101444,0.1156881366944477,-2.91510392400582,right,0.0001372098922729,-0.1092078798680491,-1.08783213465102,-9.687342068052292,-0.061600664935429,-0.0166077185422182,-0.0005163997411727,1.0688362692147493,-0.000152587890625
2025-04-30 00:09:06.745685500,4.306685546875,-0.1119141512469551,0.0135497618466615,0.0481587159461198,-0.0044467579573392,-0.9901683118217156,0.1159364704429871,-2.914640876497039,right,9.22679901123e-05,-0.1098965695234648,-1.088607064546272,-9.686512046968936,-0.0616933821898063,-0.0164672154933214,-0.0004894211888313,1.0755495031177995,0.000337891280651
2025-04-30 00:09:06.785685500,4.346685546875,-0.1120023609524241,0.0100380955263972,0.0484805225651672,-0.0012598328758031,-0.9901177735563956,0.1161847846009764,-2.91417791660388,right,4.67896461486e-05,-0.1105853176783359,-1.08937841424495,-9.685677349710463,-0.0617860935831385,-0.0163267105817794,-0.0004627928137779,1.0822628100860865,0.0008283630013465
2025-04-30 00:09:06.825685500,4.386685546875,-0.1119773861672576,0.0063828434795141,0.0488257114651549,0.000526788062416,-0.9900894206843378,0.1162666264369764,-2.914046319413708,right,-0.0001970529556274,-0.1112873860709358,-1.0890513742476702,-9.684947281870246,-0.0618155632039241,-0.0155503982678055,-0.0004157572984695,1.0891054425224662,0.0007586851716041
2025-04-30 00:09:06.865685500,4.426685546875,-0.1119523096898841,0.0027275909669697,0.0491708948783266,0.0023134090006351,-0.9900608530530276,0.116348460289397,-2.9139146220291208,right,-0.0004413127899169,-0.1119894454240324,-1.08872279988043,-9.68421195333302,-0.0618450274511296,-0.014774085022509,-0.0003688782453536,1.09594741737172,0.0006890669465065
2025-04-30 00:09:07.024596200,4.58559619140625,-0.1114958936191995,0.0073283826932311,0.0502397067861429,0.0018490235088393,-0.9899955258597412,0.116501980525551,-2.913686299399906,right,-0.000311262323521,-0.1141076330258636,-1.08404194858782,-9.682379477208851,-0.0617414407187518,-0.0118844490498304,0.0018289478030055,1.1165871775574985,0.0006105426582507
2025-04-30 00:09:07.184297200,4.745297119140625,-0.1119632078086734,-0.0018953353865072,0.0509646714832707,0.0073131206445395,-0.989954739894036,0.1163718112053759,-2.9140470087652672,right,0.0006826011231169,-0.1156035560236218,-1.088378662617877,-9.68020096412599,-0.0620459564460907,-0.0173639692366123,-0.0001138453371822,1.131160477311164,0.0006890349322929
2025-04-30 00:09:07.224223000,4.785222900390625,-0.1116363868447544,0.0126690389588475,0.0514118982389566,0.0035410625860095,-0.9899247461457108,0.116488447667424,-2.9138378120811788,right,0.0006808148464187,-0.1164811187572928,-1.0851039517961445,-9.679566173353791,-0.06193780287384,-0.0198833122849464,0.0003231885784771,1.139708598491177,-0.0006210590945556
2025-04-30 00:09:07.264223000,4.825222900390625,-0.1114599819914832,0.008400373160839,0.0515677779898656,0.0028327624313533,-0.98989439198494,0.1167077847949901,-2.9134012423475446,right,0.001034677028656,-0.1168023328806458,-1.0833555737588554,-9.679393154874443,-0.0618794225363974,-0.0161940548568964,0.0004202350974082,1.142837178840488,0.0013555213809013
2025-04-30 00:09:07.304222700,4.86522265625,-0.1112834429334344,0.0041317082941532,0.0517236546346488,0.0021244620438665,-0.9898640886122392,0.1169270907250356,-2.912964727345526,right,0.0013884305953979,-0.1171234820857021,-1.081605953612551,-9.679218967351316,-0.0618210353629831,-0.0125047964975237,0.0005171447992324,1.1459651016026735,0.0033321604132652
2025-04-30 00:09:07.344222700,4.90522265625,-0.1112834429334344,0.0004712690133601,0.0517236546346488,-0.0019358571153134,-0.9898640886122392,0.1169270907250356,-2.912964727345526,right,0.0007221698760986,-0.1171234820857021,-1.081605953612551,-9.679218967351316,-0.0618210353629831,-0.0086398441344499,0.000328205525875,1.1459651016026735,0.0019835233688354
2025-04-30 00:09:07.384223000,4.945222900390625,-0.1112834429334344,0.0034486521035432,0.0517236546346488,0.0022018544841557,-0.9898640886122392,0.1169270907250356,-2.912964727345526,right,-0.0002728104591369,-0.1171234820857021,-1.081605953612551,-9.679218967351316,-0.0618210353629831,-0.0079525429755449,0.0003773644566535,1.1459651016026735,0.000838965177536
2025-04-30 00:09:07.543625200,5.104625244140625,-0.1107600342603417,-0.0013509122654795,0.0524191822360484,0.009102682583034,-0.9897705554321844,0.1174873582829209,-2.9118738744683186,right,-0.0001556311617605,-0.1185338363976113,-1.07635994271785,-9.67816741247177,-0.0616684774993562,-0.0032685806509107,0.0009144739015027,1.1597000508360564,0.0003052713291253
2025-04-30 00:09:07.583549700,5.1445498046875,-0.1105555674234778,-0.0161591656506061,0.0525774291202843,0.0026140706613659,-0.989793017051206,0.117278745250125,-2.9122976550331323,right,-0.0015190471895039,-0.1188027686252703,-1.074346630134061,-9.67807739610076,-0.0615710702868179,-0.0140513703227043,0.0007051306311041,1.1623187819670886,0.000237295491388
2025-04-30 00:09:07.623549700,5.1845498046875,-0.1107527457663786,-0.0178953669965267,0.0529798293976666,0.0025565044488757,-0.9898149067685942,0.116850555290361,-2.913211157381439,right,0.000870406627655,-0.1195817039979334,-1.0761544832736254,-9.676962128335235,-0.0616875936839242,-0.0164172556251287,0.001400239765644,1.1699033918771893,-0.000628039240837
2025-04-30 00:09:07.663549700,5.2245498046875,-0.1107738817360304,-0.0108713842928409,0.0533277910851889,0.0035489979200065,-0.9898338612307018,0.1165173440673346,-2.9139177531036498,right,-0.0005925893783569,-0.1202427375433277,-1.076273287347704,-9.676168932130931,-0.0617156573667584,-0.0145054459571838,0.0008692145347595,1.1763393432088196,-0.0013496279716491
2025-04-30 00:09:07.703549700,5.2645498046875,-0.1110014204721721,-0.0184579640626907,0.0536247595426809,-0.0174309257417917,-0.9898404494559618,0.1162560146756136,-2.91448680669783,right,-0.0029991269111633,-0.1208335584130374,-1.078397805221006,-9.675231359019875,-0.0618454772407994,-0.01664425060153,0.0011332631111145,1.182091257799044,0.0021222755312919
2025-04-30 00:09:07.743549700,5.3045498046875,-0.1114277634444446,-0.0118248062208294,0.0539264595252146,-0.0070896055549383,-0.9898373296736136,0.1160195355773433,-2.915018297332832,right,-0.0015705823898315,-0.1214594217167993,-1.0824402124796062,-9.674033673667909,-0.0620764438855366,-0.0145007129758596,0.0010232627391815,1.18818387558572,0.001209482550621
2025-04-30 00:09:07.783549400,5.344549560546875,-0.1118025171501668,-0.0135541884228587,0.054216808899527,-0.0176221542060375,-0.989827768414455,0.115853537370985,-2.9154037907939743,right,-0.0023373961448669,-0.122065284215528,-1.0859849724143742,-9.67291022259593,-0.0622845746716933,-0.0121995192021131,-0.000783734023571,1.194081409191713,0.0005382671952247
2025-04-30 00:09:07.823549400,5.384549560546875,-0.1125431446376587,-0.013088846579194,0.0544984673956973,-0.0141703579574823,-0.9898153921877548,0.115619526438207,-2.915947898335712,right,-0.0005539655685424,-0.1226861732692486,-1.0930652129989116,-9.6713647467196,-0.0626701427365612,-0.0179288610816001,0.0003959685564041,1.200124707943946,-0.0002042353153228
2025-04-30 00:09:07.863549700,5.4245498046875,-0.1128555401311983,-0.0111954342573881,0.0548259489735182,-0.0009264908730983,-0.9898104662076268,0.1154098291157081,-2.916421857372205,right,0.0001786351203918,-0.1233537538081715,-1.0959960057538003,-9.67022434451282,-0.0628480582344227,-0.0169895403087139,0.0012433901429176,1.2066219610087572,0.0017137303948402
2025-04-30 00:09:07.903549700,5.4645498046875,-0.1128663719792228,-0.0133162401616573,0.0551528719530432,0.0074525866657495,-0.9898205521756308,0.1151545355222491,-2.9169693627102804,right,0.0013066530227661,-0.1239803309660473,-1.096015368041396,-9.66945920535922,-0.062872309384366,-0.01554159168154,0.0017495602369308,1.2127196202967314,0.0012260526418685
2025-04-30 00:09:07.943549700,5.5045498046875,-0.1122981728893604,-0.0166230034083127,0.0554049165346954,0.0179633349180221,-0.9898654093414974,0.114799607079192,-2.917674441313044,right,-0.0001180768013,-0.124378594365516,-1.0904667940035462,-9.669600075134634,-0.0625931208653917,-0.0068021332845091,0.0010018870234489,1.2165952196210623,0.0013883709907531
2025-04-30 00:09:07.983549700,5.5445498046875,-0.1115484444908344,-0.0211099814623594,0.0556948007591693,0.0097175166010856,-0.9899197405292808,0.114390522395993,-2.918480816796712,right,-0.0052188038825988,-0.1248262939697802,-1.083156178729236,-9.669872462335228,-0.0622237535781077,-0.0163698568940162,-0.0012906491756439,1.2209515881996602,0.0034075900912284
2025-04-30 00:09:08.023549400,5.584549560546875,-0.1112144933006389,-0.024378141388297,0.056243249143654,0.009075328707695,-0.9899609158092538,0.113842270594605,-2.919618185979483,right,-0.0037979483604431,-0.1258236474640732,-1.0797911592755467,-9.669018475854395,-0.0620800830896569,-0.0177133362740278,-0.0002052262425422,1.2306556014165282,0.0022365003824234
2025-04-30 00:09:08.063549400,5.624549560546875,-0.1108816727410695,-0.0276463013142347,0.0567916716811834,0.0084331408143043,-0.99000157958513,0.1132939832355078,-2.9207553666178425,right,-0.0023782849311828,-0.1268214145198122,-1.0764366612158716,-9.66815221441388,-0.0619363847583669,-0.0190568137913942,0.0008812695741653,1.240362318047136,0.001065120100975
2025-04-30 00:09:08.103549700,5.6645498046875,-0.1105879527115837,-0.0248015485703945,0.0573242756438252,0.0090308673679828,-0.990042422684142,0.1127364220468968,-2.921911683695926,right,-0.0014400482177734,-0.1277907988322305,-1.0734637098196893,-9.667268417316675,-0.0618093897111853,-0.0213803686201572,2.88486480712e-05,1.24979182517156,2.21133232116e-05
2025-04-30 00:09:08.143549700,5.7045498046875,-0.110133277565433,-0.0182072110474109,0.0577337790377882,0.0223744995892047,-0.9900895693440324,0.1122304604949891,-2.9229415494080726,right,0.0017855167388916,-0.1285016196758768,-1.0689701977927235,-9.666870357909795,-0.0615921734220646,-0.0143689280375838,0.0006972327828407,1.2567054039523005,-0.0023477375507354
2025-04-30 00:09:08.183549700,5.7445498046875,-0.1089191545255151,-0.00200573541224,0.0578830202924761,0.0307874586433172,-0.9901439280061044,0.1120044226048579,-2.923333933417233,right,-0.0011963844299316,-0.1286412043103981,-1.057213562894985,-9.66798621019721,-0.0609871059620293,0.0012685703113675,0.0002465322613716,1.25806310217157,-0.0019244402647018
2025-04-30 00:09:08.223549700,5.7845498046875,-0.1080097595837551,-0.0033566728234291,0.057720700443639,0.0211319141089916,-0.99019822533428,0.1118685901614923,-2.9235343295243563,right,0.0006369352340698,-0.1281985902806391,-1.0484810250587762,-9.66949661476016,-0.0605078409789354,0.0141152376309037,0.0017070695757865,1.2537582445845008,-0.0018985867500305
2025-04-30 00:09:08.263549400,5.824549560546875,-0.1064978050033453,0.0074880747124552,0.0573160273223161,0.0363776832818985,-0.990264632537082,0.1119147482742978,-2.9233077922826083,right,-0.0017640590667724,-0.1272248950812211,-1.033989266108721,-9.672280107998848,-0.059714601650531,0.0316311866044998,0.0002978071570396,1.244287236405909,-0.0003710985183715
2025-04-30 00:09:08.303549400,5.864549560546875,-0.1051275293981004,0.0102268289774656,0.0567131486727452,0.0272301957011222,-0.9903212111982348,0.1121104846964149,-2.9227719684024644,right,-0.0040620565414428,-0.1258854292120733,-1.0209086160656065,-9.67533657296002,-0.0589808217514012,0.0347510054707527,-0.0008686855435371,1.2312566360495985,0.0028172135353088
2025-04-30 00:09:08.343549700,5.9045498046875,-0.1046120287197606,0.0044788322411477,0.0560738834725426,0.0153603088110685,-0.99035776904697,0.112273400414684,-2.9223532396159184,right,-0.0032311677932739,-0.1245618573304988,-1.016090109867975,-9.677473584988713,-0.0586674358027419,0.0326745584607124,0.0005778074264526,1.2183785228412598,0.0044633001089096
2025-04-30 00:09:08.383549700,5.9445498046875,-0.1040971600625543,-0.0012691640295088,0.0554345869385685,0.0034904219210147,-0.9903937334060168,0.1124362609846939,-2.921935215992081,right,-0.0024023652076721,-0.1232380619289494,-1.0112740148231387,-9.679591307795048,-0.0583540166376595,0.0305981133133173,0.0020245239138603,1.2054960257187486,0.0061098486185073
2025-04-30 00:09:08.423549700,5.9845498046875,-0.1042264709920185,-0.0061050495132803,0.0550110675105157,-0.0115273846313357,-0.9904170312507034,0.1124294346700776,-2.9219182083706965,right,-0.001253604888916,-0.1223991044410662,-1.0126305439986287,-9.68046282993257,-0.0583740183202064,0.0131455082446336,0.0010119825601577,1.197330620246008,0.0044846460223197
2025-04-30 00:09:08.463549700,6.0245498046875,-0.1042264709920185,-0.0096441507339477,0.0550110675105157,-0.0146407363936305,-0.9904170312507034,0.1124294346700776,-2.9219182083706965,right,-0.0012504458427429,-0.1223991044410662,-1.0126305439986287,-9.68046282993257,-0.0583740183202064,0.0061713177710771,-0.0013467818498611,1.197330620246008,-0.0018332153558731
2025-04-30 00:09:08.503549700,6.0645498046875,-0.1047738603916865,-0.0002676518633961,0.0548905131688562,-0.0055045112967491,-0.9904194078411648,0.1123347991000078,-2.9221308587631127,right,8.62479209899e-05,-0.1222053524455792,-1.017953638717532,-9.680137835761904,-0.0586289749941263,-0.0031774276867508,-0.0005510598421096,1.1954447334341705,-0.0008611530065536
2025-04-30 00:09:08.543549400,6.104549560546875,-0.1049685648126375,0.0026063895784318,0.0552077651031114,-0.0068355263210833,-0.9903839562491868,0.1124211413611461,-2.921997984346649,right,-0.0004564523696899,-0.1228754992459267,-1.0197541853334755,-9.6791406414181,-0.0587645665304469,-0.0161046162247657,-0.0002734139561653,1.2019673401359467,-4.52771782875e-05
2025-04-30 00:09:08.583549700,6.1445498046875,-0.1051631885087362,0.0054804310202598,0.0555250115505508,-0.0081665413454175,-0.9903482898979556,0.112507475638705,-2.9218651612488293,right,-0.0009996891021728,-0.1235456662186863,-1.0215531975794585,-9.678138770899176,-0.0589001526931876,-0.0290318056941032,4.0605664253e-06,1.2084896545767785,0.000770628452301
2025-04-30 00:09:08.623549700,6.1845498046875,-0.1054685002354319,-0.0017549884505569,0.055953899335703,-0.0125518050044775,-0.9903086018247784,0.1125404588580294,-2.921857094574312,right,-0.0015367269515991,-0.1244463481804632,-1.0243930241152643,-9.676740010017156,-0.0590993086424535,-0.0152447465807199,0.000177189707756,1.2172544872473925,-0.0006845593452453
2025-04-30 00:09:08.663549700,6.2245498046875,-0.1061402606996406,-0.0130969975143671,0.0560379441601442,-0.0255763307213783,-0.9903029548730145,0.1123724059687456,-2.9222447279211563,right,-0.0023833513259887,-0.1246690038526843,-1.0308644851516933,-9.6757796405524,-0.059432871743113,-0.0008639656007289,0.0003821924328804,1.219421090696752,0.0027566999197006
2025-04-30 00:09:08.703549700,6.2645498046875,-0.1073210877290015,-0.0280021093785762,0.0560126670992073,-0.0285836290568113,-0.9903246884825864,0.1118959052955594,-2.923274764793992,right,-0.0014290213584899,-0.1246895301148029,-1.0422864812675865,-9.674531101796031,-0.0599897988129237,-0.0040693646296858,-0.0002254620194435,1.2196208510525524,0.0008290261030197
2025-04-30 00:09:08.743549700,6.3045498046875,-0.1082349573790741,-0.0225576423108577,0.0560114695745365,-0.0153265967965126,-0.990362080216446,0.1113377360444062,-2.9244550370384776,right,0.0003556013107299,-0.1247183435778128,-1.0511235023915768,-9.673539168149231,-0.0604107781822609,-0.0040919976308941,0.0006138607859611,1.219901202363893,-0.0012296587228775
2025-04-30 00:09:08.783549400,6.344549560546875,-0.1085451100033168,-0.0132134389132261,0.0562577358383173,-0.0006188219413161,-0.9903837454147238,0.1109360557972506,-2.925306555053364,right,0.000953197479248,-0.1251981062433963,-1.0540602134305983,-9.67263023661077,-0.0605655083787878,-0.0175379253923892,0.0003845170140266,1.2245693403054028,-0.0020682737231254
2025-04-30 00:09:08.823549400,6.384549560546875,-0.1084525552614696,-0.0107476655393838,0.0568212641934836,0.0041868314146995,-0.9903834071722408,0.110654567970925,-2.925921410091692,right,0.0008124709129333,-0.1262873375921591,-1.0530199836626648,-9.671395726379751,-0.0605589487296787,-0.0333151593804359,0.0005779340863227,1.2351667952306569,-0.0019976198673248
2025-04-30 00:09:08.863549700,6.4245498046875,-0.1081163575252251,-0.0141953909769654,0.0575077552480941,0.0078712906688451,-0.990383470992743,0.1103635995441883,-2.926551640214993,right,-3.76105308532e-05,-0.1275966760176912,-1.0495930048886686,-9.670133159098029,-0.0604423270240499,-0.0346735306084156,0.000584527850151,1.2479036733373998,-0.000488668680191
2025-04-30 00:09:08.903549700,6.4645498046875,-0.1076821186398594,-0.0248487256467342,0.0581960409372935,0.0176821202039718,-0.9904040709769144,0.1099126980515372,-2.927497217628969,right,9.60230827331e-05,-0.1288797169462209,-1.045220854219049,-9.668988080716131,-0.0602661932374688,-0.0406170710921287,0.0011889114975929,1.2603826311603188,0.0019464194774627
2025-04-30 00:09:08.943549700,6.5045498046875,-0.1070656205470425,-0.0290201175957918,0.0589478167478722,0.0213577840477228,-0.9904464836386908,0.1092782051563071,-2.9288061505239487,right,-3.29613685607e-05,-0.1302491049655069,-1.03907431428805,-9.667905546176431,-0.0599928683646904,-0.0354184210300445,0.0010462403297424,1.2736992088511585,0.0010980516672134
2025-04-30 00:09:08.983549700,6.5445498046875,-0.1064355869195308,-0.0240292251110076,0.0595111833191166,0.0182637181133031,-0.9905008539117784,0.1086424528690633,-2.930098196951331,right,-0.000882863998413,-0.1312385661837435,-1.032848571640998,-9.667300566020607,-0.0596930655175547,-0.0203708186745643,0.0015686601400375,1.2833197085030377,0.0001327544450759
2025-04-30 00:09:09.023549400,6.584549560546875,-0.1059478187176887,-0.0148429088294506,0.0598701150667918,0.012122057378292,-0.9905410867717566,0.1082067726790018,-2.9309770165832774,right,-0.0021585822105407,-0.13185658510505,-1.0280489893395452,-9.667012396728992,-0.0594566272558474,-0.0179643221199512,0.0019810870289802,1.289328009007126,0.0019839107990264
2025-04-30 00:09:09.063549400,6.624549560546875,-0.1058017428786487,-0.0049860039725899,0.0601686301647405,0.0023413067683577,-0.9905458586715252,0.1080281227139459,-2.931354846792789,right,-0.0011187195777893,-0.1324202920949612,-1.026559992890805,-9.66643839623332,-0.0594014540746415,-0.0168491937220096,0.0012011751532554,1.2948079017229377,0.001792773604393
2025-04-30 00:09:09.103549700,6.6645498046875,-0.1058017428786487,0.0007143765687942,0.0601686301647405,0.0008357976330444,-0.9905458586715252,0.1080281227139459,-2.931354846792789,right,0.0010302066802978,-0.1324202920949612,-1.026559992890805,-9.66643839623332,-0.0594014540746415,0.0001037176698446,0.0025552064180374,1.2948079017229377,0.0006754994392395
2025-04-30 00:09:09.143549700,6.7045498046875,-0.1058017428786487,0.0019548861309885,0.0601686301647405,0.0118739996105432,-0.9905458586715252,0.1080281227139459,-2.931354846792789,right,0.0008243918418884,-0.1324202920949612,-1.026559992890805,-9.66643839623332,-0.0594014540746415,0.0095005389302968,0.0016794502735137,1.2948079017229377,4.53144311904e-05
2025-04-30 00:09:09.183549700,6.7445498046875,-0.1049609398652649,0.0030902852304279,0.0599559540887594,0.0114012211561203,-0.990569783794264,0.1081628431433228,-2.931008940358696,right,-0.0014556050300598,-0.1319201627313242,-1.0184997282929718,-9.667941202011704,-0.0589701108682335,0.0171249844133853,0.0004409700632095,1.2899461409054696,0.001795619726181
2025-04-30 00:09:09.223549700,6.7845498046875,-0.1044139292971973,0.0023116117808967,0.0596433140299398,0.0060677798464894,-0.9905943150568496,0.1082723583742821,-2.9307242048658178,right,-0.0022773742675781,-0.1312465804692569,-1.0133014289975166,-9.669358667594194,-0.0586735517696919,0.0168363861739635,0.000490516424179,1.2833975960448385,0.0024719834327697
2025-04-30 00:09:09.263549400,6.824549560546875,-0.1039696680424581,-0.0025504843797534,0.059352965092301,0.0016233627684414,-0.9906173186823274,0.1083539918735039,-2.9305046138335995,right,-0.002236783504486,-0.130625230121114,-1.0090881952166555,-9.670599023044108,-0.0584284949464849,0.0133022181689739,0.000433899462223,1.277356416184455,0.0016309022903442
2025-04-30 00:09:09.303549400,6.864549560546875,-0.1039696680424581,-0.0018694122554734,0.059352965092301,0.0020505515858531,-0.9906173186823274,0.1083539918735039,-2.9305046138335995,right,-0.0004276037216186,-0.130625230121114,-1.0090881952166555,-9.670599023044108,-0.0584284949464849,0.0101789776235818,0.0008190497756004,1.277356416184455,-0.0010256916284561
2025-04-30 00:09:09.343549700,6.9045498046875,-0.1040350762444264,0.0011569493217393,0.0590118829832589,0.0050235176458954,-0.9906415201448274,0.1083210781157507,-2.930544129538468,right,0.0008882880210876,-0.1299419302373982,-1.0098111026637255,-9.6713986489892,-0.0584250079821523,0.0087270606309175,0.0010927021503448,1.27071230199486,-0.0017396956682205
2025-04-30 00:09:09.383549700,6.9445498046875,-0.1041004517151361,0.0041833105497062,0.0586707938002727,0.0079964837059378,-0.9906655888336658,0.108288175964968,-2.930583539512633,right,0.0022036433219909,-0.1292586290904553,-1.0105334255889058,-9.672194183281064,-0.0584215166191598,0.0072751441039144,0.0013662502169609,1.2640676032833755,-0.0024535953998565
2025-04-30 00:09:09.423549700,6.9845498046875,-0.1041004517151361,0.0041355472058057,0.0586707938002727,0.0046043461188673,-0.9906655888336658,0.108288175964968,-2.930583539512633,right,0.0006188750267028,-0.1292586290904553,-1.0105334255889058,-9.672194183281064,-0.0584215166191598,0.0035681570880115,0.0010316595435142,1.2640676032833755,-0.0027064979076385
2025-04-30 00:09:09.463549700,7.0245498046875,-0.1041004517151361,0.0024622054770588,0.0586707938002727,0.0039780912920832,-0.9906655888336658,0.108288175964968,-2.930583539512633,right,0.0002355575561523,-0.1292586290904553,-1.0105334255889058,-9.672194183281064,-0.0584215166191598,-0.0020905332639813,0.0005984008312225,1.2640676032833755,-0.0016568005084991
2025-04-30 00:09:09.503549700,7.0645498046875,-0.1041004517151361,0.0026028305292129,0.0586707938002727,0.0033373846672475,-0.9906655888336658,0.108288175964968,-2.930583539512633,right,-0.0003029704093933,-0.1292586290904553,-1.0105334255889058,-9.672194183281064,-0.0584215166191598,-0.0012331730686128,0.000562734901905,1.2640676032833755,-0.001412883400917
2025-04-30 00:09:09.543549400,7.104549560546875,-0.1037946273298184,0.0017880136147141,0.058522607315757,0.001254258910194,-0.9906750038578038,0.1083695524592027,-2.930386673268756,right,-0.0010218620300292,-0.1289378464673679,-1.0076173189464956,-9.672905546420813,-0.0582594925496088,0.0007132481550797,0.0008880570530891,1.260948009958118,0.0003010034561157
2025-04-30 00:09:09.583549700,7.1445498046875,-0.1037946273298184,0.0016271262429654,0.058522607315757,0.001949789118953,-0.9906750038578038,0.1083695524592027,-2.930386673268756,right,-0.0006995797157287,-0.1289378464673679,-1.0076173189464956,-9.672905546420813,-0.0582594925496088,0.0044020554050803,0.0015283226966857,1.260948009958118,0.0001878291368484
2025-04-30 00:09:09.623549700,7.1845498046875,-0.103605417632306,0.0049711912870407,0.0582760664384722,0.0020910794846713,-0.990681432651019,0.108502778785876,-2.930084004176897,right,-0.0007714629173278,-0.128437551519196,-1.0058522089701143,-9.673722123500704,-0.0581491405353597,0.0078967567533254,0.0010354742407798,1.2560823036178943,0.0005761682987213
2025-04-30 00:09:09.663549700,7.2245498046875,-0.1035189667635432,0.0047279628925025,0.0580611882734498,-0.0020404160022735,-0.9906805869632168,0.1086550235599048,-2.929752512060681,right,-0.000723659992218,-0.1280140266503236,-1.0050707762688398,-9.674337625050544,-0.0580943623393,0.0084493327885866,0.0003201887011528,1.2519630317308008,0.0005997717380523
2025-04-30 00:09:09.703549700,7.2645498046875,-0.1037357650994501,0.002513991203159,0.0577923129436445,-0.0069258431904017,-0.9906769257613154,0.1087833255312054,-2.929483474226811,right,-0.0003430843353271,-0.127511145059535,-1.0072332149997354,-9.674744452285768,-0.0581838624893177,0.0137275727465748,0.0003817081451416,1.2470717525579034,-0.0004066377878189
2025-04-30 00:09:09.743549700,7.3045498046875,-0.1037152269218697,0.0059004626236855,0.0575449904060434,0.0024601141922175,-0.9906798003106132,0.108903135883814,-2.929218502811815,right,0.0005590319633483,-0.1270254947832397,-1.0070970944646744,-9.675366383576392,-0.0581564899463005,0.0075751165859401,-0.0001703277230262,1.2423476466454564,0.0012258440256118
2025-04-30 00:09:09.783549400,7.344549560546875,-0.1037152269218697,0.0031135734170675,0.0575449904060434,0.0005163446767255,-0.9906798003106132,0.108903135883814,-2.929218502811815,right,0.0004312396049499,-0.1270254947832397,-1.0070970944646744,-9.675366383576392,-0.0581564899463005,0.0016437927260994,0.0007199048995971,1.2423476466454564,0.0018273591995239
2025-04-30 00:09:09.823549400,7.384549560546875,-0.1034736875790358,-0.0040972493588924,0.0576070159742668,0.0013921440113335,-0.9906908213696528,0.1088336192912976,-2.929348920397786,right,-0.0001892447471618,-0.1271164601537646,-1.0047484124466777,-9.675496731957791,-0.0580377439828197,-0.000320971943438,0.0002469792962074,1.2432324666559695,0.0016248077154159
2025-04-30 00:09:09.863549700,7.4245498046875,-0.1034736875790358,-0.0113080721348524,0.0576070159742668,0.0022679432295262,-0.9906908213696528,0.1088336192912976,-2.929348920397786,right,-0.0008230805397033,-0.1271164601537646,-1.0047484124466777,-9.675496731957791,-0.0580377439828197,-0.0022857366129755,1.35600566864e-05,1.2432324666559695,0.0015124827623367
2025-04-30 00:09:09.903549700,7.4645498046875,-0.1032542269961783,-0.0112568689510226,0.0576960066323751,0.0038784109055995,-0.9907170958982352,0.1086083240004816,-2.929796779509944,right,-0.0005518198013305,-0.1272457260733437,-1.0026084047432988,-9.67555693771243,-0.057922728956544,-0.0019191474420949,0.000975526869297,1.2444899193711578,0.0010345578193664
2025-04-30 00:09:09.943549700,7.5045498046875,-0.1032542269961783,-0.0113417282700538,0.0576960066323751,0.0014270604588091,-0.9907170958982352,0.1086083240004816,-2.929796779509944,right,0.0003638267517089,-0.1272457260733437,-1.0026084047432988,-9.67555693771243,-0.057922728956544,0.0048380042426288,0.0013919472694396,1.2444899193711578,-5.65946102142e-05
2025-04-30 00:09:09.983549700,7.5445498046875,-0.1028904874837419,-0.0128181921318173,0.057644145904538,0.0085506159812211,-0.99077271804622,0.1082397178323525,-2.930511357853068,right,-0.0001918077468872,-0.1270596568200379,-0.9991127446472644,-9.67615139647424,-0.0577124562105095,0.0050070164725184,0.0007133409380912,1.2426799473397434,-0.0003923028707504
2025-04-30 00:09:10.023549400,7.584549560546875,-0.1025760294781751,-0.0204787347465753,0.0574491125034775,0.0055210711434483,-0.9908391060939906,0.1078418341441847,-2.931275103839469,right,-0.0001724362373352,-0.1265875902074439,-0.9961299294441938,-9.67704746853113,-0.0575107259947027,0.0137890931218862,0.0008204281330108,1.238087651113421,-2.13980674743e-05
2025-04-30 00:09:10.063549400,7.624549560546875,-0.1023285384465576,-0.0241273362189531,0.057174279747187,0.0076444870792329,-0.9909178743200427,0.1073596786019838,-2.932205635255433,right,0.0001170635223388,-0.1259525004957585,-0.9938150035653264,-9.67807388896942,-0.0573293163262089,0.012275330722332,0.0012967586517333,1.2319092547394337,0.0006815791130065
2025-04-30 00:09:10.103549700,7.6645498046875,-0.1019542299894998,-0.0167899765074253,0.0569341439490381,0.0084231346845626,-0.9909948842496948,0.1069030162803287,-2.933080124807973,right,-0.0003915429115295,-0.1253772813793048,-0.9902643253464252,-9.679148824724557,-0.0570899299526379,0.0109560098499059,0.0011540129780769,1.2263127499066293,0.0001142621040344
2025-04-30 00:09:10.143549700,7.7045498046875,-0.1015853908240661,-0.0053634261712431,0.0567476435610332,0.0070904660969972,-0.9910429010437428,0.1066726896425446,-2.933504271561904,right,-0.0007135272026062,-0.1249370659323741,-0.9867488645713776,-9.68004957295656,-0.0568729987951724,0.0122657213360071,0.0018077194690704,1.222029446564242,-0.0006870031356811
2025-04-30 00:09:10.183549700,7.7445498046875,-0.1012950193275046,0.0083709480240941,0.0564746124975456,0.003359213238582,-0.9910616460234116,0.1067331555078306,-2.9333403436363024,right,-0.0012282729148864,-0.1243645873547017,-0.9840085528872906,-9.681029816165566,-0.0567050061262556,0.0175706967711448,0.0021738484501838,1.2164588798902929,-0.0014293119311332
2025-04-30 00:09:10.223549700,7.7845498046875,-0.101228007748653,0.0193088073283433,0.0560366831015402,-0.005490593612194,-0.9910562122386544,0.1070444208116949,-2.932670736678703,right,-0.001550555229187,-0.1235124544114291,-0.98346421687752,-9.68212345662117,-0.0566477488180117,0.0220756791532039,0.0025996342301368,1.2081664139717816,-0.0009126663208007
2025-04-30 00:09:10.263549400,7.824549560546875,-0.1013652953876537,0.0254670269787311,0.0555813670991655,-0.0123350415378808,-0.9910237424681154,0.1075520694214112,-2.931616690712594,right,-0.0007208585739135,-0.1226692837529614,-0.9848961493767796,-9.68299848589003,-0.0567025665883007,0.0230324883013963,0.0012087970972061,1.1999603111624717,-0.0004244893789291
2025-04-30 00:09:10.303549400,7.864549560546875,-0.1017903829709653,0.0289515350013971,0.0550529296570588,-0.0208292100578546,-0.9909735847760666,0.1081790782997206,-2.930332990788944,right,-0.0014317631721496,-0.1217232710658159,-0.9891271380100398,-9.683704003810885,-0.0569006002357436,0.0309385228902101,0.0009779334068298,1.1907522647690028,-0.0020052567124366
2025-04-30 00:09:10.343549700,7.9045498046875,-0.10226707622805,0.0287921335548162,0.0544082022852724,-0.0129627864807844,-0.9909250308743917,0.1088363704395135,-2.9289805482868,right,-1.4305114746e-05,-0.1205528219951791,-0.9938847808659076,-9.684611181783676,-0.0571138871601596,0.0326035320758819,0.000587023794651,1.179358179573342,0.000674158334732
2025-04-30 00:09:10.383549700,7.9445498046875,-0.1025151111767564,0.0171805694699287,0.0537819716680687,-0.0102199846878647,-0.9908909525388994,0.1094064247540798,-2.927791184705757,right,-0.0005325078964233,-0.1193855600063213,-0.9964270857598632,-9.685727034071087,-0.0572088209374086,0.0305984634906053,-0.0003275051712989,1.1679935396678744,0.0051908418536186
2025-04-30 00:09:10.423549700,7.9845498046875,-0.1030292013809596,-0.0087848231196403,0.0529574028930598,-0.0061127780936658,-0.9909442983531922,0.1092401182142138,-2.9280813697226207,right,0.0002103447914123,-0.1177623129440827,-1.001599958353117,-9.687086631986498,-0.0573719696366667,0.0382038205862045,0.0003218650817871,1.1521866795312612,0.0053345710039138
2025-04-30 00:09:10.463549700,8.0245498046875,-0.1035426926847339,-0.0347502157092094,0.0521327887045197,-0.0020055719651281,-0.9909968359185436,0.1090737485425088,-2.928370574204944,right,0.0009503960609436,-0.1161388972161315,-1.0067660358794033,-9.688418757373094,-0.0575350675363654,0.0458091758191585,0.0009705424308776,1.136375216284767,0.0054787695407867
2025-04-30 00:09:10.503549700,8.0645498046875,-0.1040522990016818,-0.0519392825663089,0.0512942632703997,-0.0132042188197374,-0.991112799712067,0.1083479772542544,-2.9297831630880102,right,-0.0020098686218261,-0.1144216129964427,-1.0119044216811657,-9.689830962258576,-0.0576628247168315,0.0382277593016624,0.0008822008967399,1.1196461998019367,0.0050280317664146
2025-04-30 00:09:10.543549400,8.104549560546875,-0.1047355714071283,-0.0580745115876197,0.0506871191420741,-0.014730199240148,-0.9912434210073896,0.107315138009339,-2.931843611560192,right,-0.0003936290740966,-0.1131515433473626,-1.0186728198375552,-9.690544078963994,-0.0578841889434827,0.0315651446580886,6.76661729812e-05,1.1072715791363268,0.000242955982685
2025-04-30 00:09:10.583549700,8.1445498046875,-0.10554734130278,-0.0625456944108009,0.0500565667292554,-0.0151787474751472,-0.9913799913724024,0.1061930235198121,-2.9340873159155136,right,-0.000916838645935,-0.1118362984772919,-1.0266915103159844,-9.691153735294938,-0.0581636956979152,0.0292497463524341,0.0001552924513816,1.0944549868568778,-0.0006322264671325
2025-04-30 00:09:10.623549700,8.1845498046875,-0.1063907123426138,-0.0639812424778938,0.0493498090453374,-0.0179080683737993,-0.9915287425681332,0.1049724195244919,-2.936521955590909,right,0.0003123879432678,-0.1103581427968046,-1.035035048834607,-9.691882049569488,-0.0584475610076657,0.0347614176571369,0.000893972814083,1.0800485681027174,-0.0023772045969963
2025-04-30 00:09:10.663549700,8.2245498046875,-0.1070851536505602,-0.0665041282773017,0.0486232443799295,-0.0107300113886594,-0.9916835407314626,0.1037248770904693,-2.938998867661616,right,0.0028043985366821,-0.1088204461384383,-1.0419414672221987,-9.692800917980074,-0.058655445202055,0.031912550330162,0.0011409595608711,1.0650593810245397,-0.0036079064011573
2025-04-30 00:09:10.703549700,8.2645498046875,-0.10743539208635,-0.0595296211540699,0.0479634618545715,0.007862314581871,-0.9918428176371128,0.1024774515263974,-2.9414621389734377,right,0.0039485692977905,-0.1073814480515138,-1.045499451964721,-9.69394891897142,-0.0586996031416139,0.0268822684884071,0.0017274022102355,1.0510299788892268,-0.005591370165348
2025-04-30 00:09:10.743549700,8.3045498046875,-0.1073589716589175,-0.0538981445133686,0.04747356100378,0.015262559056282,-0.991990491663476,0.1013525736051438,-2.943672027110729,right,0.0013552904129028,-0.1062558378064483,-1.0448847541324793,-9.695199211293458,-0.0585548277041199,0.014068255200982,0.0015865638852119,1.040054411366582,-0.0034803077578544
2025-04-30 00:09:10.783549400,8.344549560546875,-0.1070445801053736,-0.0535406544804573,0.047157722886714,0.0121544497087597,-0.9921271642162478,0.1002971302989455,-2.945746561339462,right,-0.0007428526878356,-0.1054654103429998,-1.041924150761217,-9.696341367065903,-0.0583121809871037,0.0099807642400264,0.0023997500538825,1.032346394272521,-0.0022172555327415
2025-04-30 00:09:10.823549400,8.384549560546875,-0.1067617605732233,-0.0635031536221504,0.0468836087088173,0.0119557017460465,-0.9922695051812958,0.0991421613410209,-2.948026659599932,right,-0.000763714313507,-0.1047510897570079,-1.039260119183734,-9.697366618460416,-0.0580846514452051,0.0093713542446494,0.0040541440248489,1.025379989326,-0.0016072392463684
2025-04-30 00:09:10.863549700,8.4245498046875,-0.1065355467424388,-0.071370355784893,0.0465702743166569,0.0081094140186905,-0.9924287250765224,0.0978108287288569,-2.950660165844684,right,-0.0017148852348327,-0.1039437108451468,-1.0371540868151932,-9.6984216804713,-0.0578733615721828,0.0120497476309537,0.0035284683108329,1.0175053104281424,-0.0013592764735221
2025-04-30 00:09:10.903549700,8.4645498046875,-0.1067176708410125,-0.07955864071846,0.0462913285538431,-0.0037329215556383,-0.9925899344038666,0.0963036046048498,-2.9536710487338227,right,-0.002639889717102,-0.1032242561502175,-1.038998107246682,-9.698957687044144,-0.0578609023145292,0.0067793149501085,0.0021568462252616,1.0104876867510375,-0.003207579255104
2025-04-30 00:09:10.943549700,8.5045498046875,-0.1074745557625536,-0.08518897742033,0.0460098552801339,-0.0134814577177166,-0.9927444558437492,0.0946696789090709,-2.956964713398946,right,-5.71608543395e-05,-0.102537880192788,-1.0464129135478288,-9.698855980235338,-0.0581296801337049,0.003229955676943,0.0036797672510147,1.0037922807656228,-0.0021493509411811
2025-04-30 00:09:10.983549700,8.5445498046875,-0.1081195119373484,-0.0743761956691742,0.045989173605945,-0.0081215221434831,-0.9928889071766732,0.0930062635903565,-2.960336729222554,right,0.0007166266441345,-0.1023594414117083,-1.0526873907074332,-9.698356798541544,-0.0583644023014374,-0.014170354232192,0.0020257234573364,1.0020515745781362,-0.0016554743051528
2025-04-30 00:09:11.023549400,8.584549560546876,-0.1082711326823146,-0.0478753931820392,0.0464659436541715,0.0002367487177252,-0.9929565209263228,0.0920013553739083,-2.962410110108656,right,0.0029820799827575,-0.1032115303594635,-1.0540651818666606,-9.697344991150498,-0.0584288071249225,-0.0220141857862472,0.0013407692313194,1.0103635489147156,-0.0020924061536788
2025-04-30 00:09:11.063549400,8.624549560546875,-0.1084245342349464,-0.0213745906949043,0.046942652690111,0.0085950186476111,-0.9930228657110052,0.0909963172703916,-2.9644838173733827,right,0.0052466392517089,-0.1040632930354003,-1.0554592665735631,-9.696323831409217,-0.0584931357548261,-0.0298580154776573,0.0006574764847755,1.0186717238590122,-0.0025289580225944
2025-04-30 00:09:11.103549700,8.6645498046875,-0.1078062109527298,-0.0070597240701317,0.0473230342818459,0.0206924304366111,-0.9930581077730894,0.0906045545813352,-2.96527628369641,right,0.0007963180541992,-0.1047259579306078,-1.0493906872496008,-9.696301619577408,-0.0581956745422471,-0.0061310548335313,0.0012861564755439,1.025134855458513,-0.0032028406858444
2025-04-30 00:09:11.143549700,8.7045498046875,-0.1070824338009458,-0.018485315144062,0.0471876511705103,0.017543576657772,-0.9931120592678204,0.0903316193287974,-2.9657734780813287,right,-0.0032543540000915,-0.1043585217144184,-1.0424126649305223,-9.69743208491206,-0.0578089441458446,0.0193100925534963,0.0012094154953956,1.0215512248180807,-3.79979610443e-05
2025-04-30 00:09:11.183549700,8.7445498046875,-0.1068955267583388,-0.0399503521621227,0.0465618439865391,0.0034695072099566,-0.9932035755911368,0.089759299832269,-2.966851531917542,right,-0.0029285550117492,-0.1030193301261457,-1.040745170109719,-9.698978729832172,-0.0576342686955387,0.0311348997056484,0.0015417337417602,1.0084887680187822,0.0031107291579246
2025-04-30 00:09:11.223549700,8.7845498046875,-0.1070836191751649,-0.043521225452423,0.0459764051800263,-0.0066805705428123,-0.9933065965097728,0.0889157756945717,-2.96849711782165,right,-0.0021882653236389,-0.1017625363133528,-1.0427040490925312,-9.700034960886835,-0.0576368955105059,0.022761270403862,-0.0006220787763595,0.9962283483173696,-0.0002343580126762
2025-04-30 00:09:11.263549400,8.824549560546876,-0.1075480336584107,-0.0300403703004121,0.0455857647256642,-0.0100721875205636,-0.9933808811657956,0.0881790918068046,-2.969960853890554,right,0.0020599961280822,-0.1009327660211109,-1.0472971490364522,-9.700368138363956,-0.057799557048443,0.0154199404641985,-0.0013089776039123,0.988132866275683,-0.0040535628795623
2025-04-30 00:09:11.303549400,8.864549560546875,-0.1079150704554012,-0.001340901479125,0.0453633206905117,-0.0028274659998714,-0.9934094740674642,0.0878731870468832,-2.9705711945875106,right,0.0041809678077697,-0.1004820994930467,-1.0509053295962512,-9.700424836987256,-0.0579493658663231,0.0072928229346871,-0.0009160265326499,0.9837357272952796,-0.0043400898575782
2025-04-30 00:09:11.343549700,8.9045498046875,-0.1077965799279082,0.0239509027451276,0.0453024365238777,0.0075767389498651,-0.9933932791592616,0.0881210409025041,-2.97006164206535,right,0.0019641518592834,-0.100378782770487,-1.0497669001508505,-9.700650462436675,-0.057897795243296,0.0010559321381151,-0.0009151920676231,0.9827276462312788,-0.0021180883049964
2025-04-30 00:09:11.383549700,8.9445498046875,-0.107586761673048,0.0230110045522451,0.0452244640596227,0.0057687419466674,-0.9933577891214984,0.0886164844806219,-2.969048812471608,right,-0.0004163980484008,-0.1002621766531979,-1.0477437968254089,-9.700984224435686,-0.0578116637655779,0.005219854414463,6.31138682365e-05,0.9815898743730038,0.0004133582115173
2025-04-30 00:09:11.423549700,8.9845498046875,-0.1072964425598173,0.0079097365960478,0.0449921089953986,0.0101946843788027,-0.9933471761832406,0.0889486989212293,-2.968344360407428,right,0.0003092885017395,-0.0998095630644025,-1.0449748435687274,-9.701728905323147,-0.0576644772533965,0.0155060682445764,0.0014166384935379,0.9771734461702406,0.001451164484024
2025-04-30 00:09:11.463549700,9.0245498046875,-0.106846721213034,-0.0077692931517958,0.0445719580247463,0.0173985604196786,-0.993381932472502,0.0889398006124924,-2.968298483058911,right,0.0019336342811584,-0.0989264470330676,-1.040703230664134,-9.703052262881398,-0.0574051998359449,0.0260818712413311,0.0020320639014244,0.968555766885355,-0.0008977353572845
2025-04-30 00:09:11.503549700,9.0645498046875,-0.1063431934596944,-0.0194586757570505,0.0440775826873893,0.0103768268600106,-0.9934475225405665,0.0886497130408529,-2.968807535313485,right,0.0001094937324523,-0.0978572809358877,-1.0359266639120877,-9.704598907801508,-0.0570991361207591,0.024217452853918,0.0010343268513679,0.958121539697796,-0.001163363456726
2025-04-30 00:09:11.543549400,9.104549560546875,-0.1058386729351984,-0.0174300428479909,0.0437122513243026,0.0138754118233919,-0.9935143028293504,0.0882737631028814,-2.969501978476983,right,-0.0003327131271362,-0.097037456165382,-1.0311130530852823,-9.705898299962282,-0.056799128358684,0.0143174435943365,0.0014929100871086,0.9501199464846402,-0.0038023740053176
2025-04-30 00:09:11.583549700,9.1445498046875,-0.1053860552600695,-0.010779146105051,0.0435027572811737,0.0147478431463241,-0.993566258170891,0.0879584041444234,-2.970092840216291,right,-0.0006157159805297,-0.0965421246672678,-1.0267692517273128,-9.706830612376333,-0.0565408322743571,0.0030092904344201,0.0019623264670372,0.9452850736740976,-0.0040859282016754
2025-04-30 00:09:11.623549700,9.1845498046875,-0.1051203370586906,-0.0041820141486823,0.0436987973961128,0.002297312952578,-0.993565799107836,0.0879418277704977,-2.9701324337399524,right,-0.001291811466217,-0.0969108092630513,-1.0241532970752567,-9.706756378096342,-0.0564232440188373,-0.0071184337139129,0.0018950030207633,0.9488837557531892,-0.0016341656446456
2025-04-30 00:09:11.663549700,9.2245498046875,-0.1048546350501594,0.0024151178076863,0.0438948375110518,-0.0101532163098454,-0.993565340044781,0.0879252513965719,-2.970171948260238,right,-0.0019682049751281,-0.0972795145457239,-1.021537488553673,-9.706679221206905,-0.0563056557633174,-0.0172461569309234,0.0018277168273925,0.9524825108975172,0.0008175894618034
2025-04-30 00:09:11.703549700,9.2645498046875,-0.1050531047085913,0.0055942861363291,0.0442171915840211,-0.0109931398183107,-0.9935372992719153,0.0879978077954331,-2.9700671730289128,right,-0.0009599328041076,-0.0979516242239123,-1.023396560423821,-9.705837509685754,-0.0564344057739171,-0.0197995509952306,0.0013198629021644,0.9590422347392886,0.000532642006874
2025-04-30 00:09:11.743549700,9.3045498046875,-0.1055176626804601,0.0095154792070388,0.0445283810974445,-0.0160306189209222,-0.993495923727268,0.0881375945882514,-2.969839470124893,right,-0.0004262328147888,-0.0986318993861982,-1.027836442567408,-9.704709966960548,-0.0566984364554631,-0.0154662020504474,0.0008284300565719,0.9656813074275852,-0.0004933476448059
2025-04-30 00:09:11.783549400,9.344549560546875,-0.1059747502287332,0.0116772660985589,0.0447985721187948,-0.0109751019626855,-0.9934479221047644,0.0883732981931494,-2.9694151595557736,right,-0.0006033778190612,-0.0992404410250724,-1.0322098353460432,-9.703653151383996,-0.0569602301470993,-0.0135802924633026,-0.001301571726799,0.971619830631092,-0.0023972988128662
2025-04-30 00:09:11.823549400,9.384549560546876,-0.1062697149606514,0.0180960092693567,0.0448613283747922,-0.003474798053503,-0.9934045132250696,0.088719082704185,-2.968741651488437,right,0.0017207860946655,-0.0994316600259332,-1.035052365295589,-9.70316332204044,-0.0571298048267042,-0.0042600948363542,-0.000427633523941,0.9734858436986804,-0.00223159044981
2025-04-30 00:09:11.863549700,9.4245498046875,-0.1064114302519427,0.0074630277231335,0.0448216307613673,-0.0019741326104849,-0.9933779167786247,0.0889850777918778,-2.9682107507839324,right,0.0025802254676818,-0.0993949880843728,-1.0364311793681231,-9.703051678359508,-0.0572105621748015,0.0016733244992792,-0.0002399906516075,0.9731279701717196,0.0018421560525894
2025-04-30 00:09:11.903549700,9.4645498046875,-0.1064114302519427,-0.0093600554391741,0.0448216307613673,0.0060787238180637,-0.9933779167786247,0.0889850777918778,-2.9682107507839324,right,-0.0005304813385009,-0.0993949880843728,-1.0364311793681231,-9.703051678359508,-0.0572105621748015,0.0044304672628641,0.0001971274614334,0.9731279701717196,0.0013608187437057
2025-04-30 00:09:11.943549700,9.5045498046875,-0.1059262532880274,-0.0168400444090366,0.0446559523048219,0.0148279722779989,-0.9934232645836464,0.0887330967043962,-2.9686764690284853,right,-0.0004947185516357,-0.0989914504572697,-1.031764794992283,-9.70394307424128,-0.056942288610374,-0.0007684575393795,0.0016228631138801,0.9691900462009012,0.0011117383837699
2025-04-30 00:09:11.983549700,9.5445498046875,-0.1056466101361044,-0.0280511770397424,0.0447651901090453,0.0067995078861713,-0.9934671557805812,0.0882835573182541,-2.9695758747053063,right,-0.001415729522705,-0.0991349052127508,-1.0290364660069349,-9.70409329636693,-0.0567892515536065,-0.0191443935036659,0.0026687905192375,0.9705899761267006,0.0027747601270675
2025-04-30 00:09:12.023549400,9.584549560546876,-0.1056336650149316,-0.0349306873977184,0.0451884865636134,0.0017324006184935,-0.9935065301875904,0.0876253283872104,-2.970937923826249,right,-0.0021184086799621,-0.0999076961526435,-1.028831444954127,-9.703357383307814,-0.0567841554020442,-0.029389152303338,0.0031698346138,0.9781309660907834,0.0014781504869461
2025-04-30 00:09:12.063549400,9.624549560546876,-0.1056662776238963,-0.0317685715854167,0.0457424906717432,-0.005401846487075,-0.9935389476097568,0.0869508770618132,-2.9723475376304767,right,-0.0017822384834289,-0.1009447433043478,-1.0290403384644538,-9.702309920081497,-0.0568108323056812,-0.0265126656740903,0.0020302683115005,0.988249697588384,4.50760126113e-05
2025-04-30 00:09:12.103549700,9.6645498046875,-0.1057445681339702,-0.0201658010482788,0.0462258994638541,-0.0025460268370807,-0.9935599635939176,0.08642025486434,-2.9734638078183133,right,-0.000487208366394,-0.1018603942736896,-1.0297039900049567,-9.701325585219264,-0.056861304702346,-0.0219914261251688,0.0023214966058731,0.9971830186937004,-0.0023682340979576
2025-04-30 00:09:12.143549700,9.7045498046875,-0.1058690509618696,-0.0095410654321312,0.0466286849253055,-0.0065338122658431,-0.9935628157867056,0.0861192493651722,-2.974113703160154,right,-0.0017499327659606,-0.1026444212161637,-1.030828756251186,-9.700417238202691,-0.0569397650939915,-0.0184929445385932,0.0012706965208053,1.0048315606854856,-0.0025866776704788
2025-04-30 00:09:12.183549700,9.7445498046875,-0.1062217712959253,-0.0034236209467053,0.0469880535499126,-0.0103550348430871,-0.9935450343590416,0.0859972636665073,-2.9744117608394034,right,-0.0015328526496887,-0.1033809177171533,-1.034171417742595,-9.699314245396852,-0.0571377035444013,-0.0207215286791324,0.0006827637553215,1.012015846166387,-0.0019055232405662
2025-04-30 00:09:12.223549700,9.7845498046875,-0.106444252978649,-0.0016667577438056,0.0472948237520497,-0.0072064008563756,-0.9935315717619136,0.0858992766520718,-2.9746500569555736,right,-0.0007327198982238,-0.1040036979510371,-1.0362621794767677,-9.698455582740902,-0.0572676582646106,-0.0197322443127632,0.0003951489925384,1.018090416839719,-0.0009690374135971
2025-04-30 00:09:12.263549400,9.824549560546876,-0.1066668781898917,9.0105459094e-05,0.047601584567681,-0.0040577668696641,-0.9935178944055328,0.0858012816540569,-2.9748884552913166,right,6.69360160827e-05,-0.1046264085897422,-1.0383535987980663,-9.697592243909837,-0.0573976012627311,-0.0187429580837488,0.0001076012849807,1.0241639645997431,-3.24472784996e-05
2025-04-30 00:09:12.303549400,9.864549560546877,-0.1066668781898917,0.0024593651760369,0.047601584567681,-0.0048942859284579,-0.9935178944055328,0.0858012816540569,-2.9748884552913166,right,1.32918357849e-05,-0.1046264085897422,-1.0383535987980663,-9.697592243909837,-0.0573976012627311,-0.0125838089734315,0.0003960356116294,1.0241639645997431,0.0006696656346321
2025-04-30 00:09:12.343549700,9.9045498046875,-0.1068580942726132,0.0015956423012539,0.0479249550884049,-0.0031603286042809,-0.9934927113297334,0.0858312308488038,-2.974870147450956,right,-0.001239538192749,-0.1052946417978366,-1.0401347100611775,-9.696710784900189,-0.0575198334685185,-0.0085657835006713,0.0003881007432937,1.0306810183435675,0.0007764622569084
2025-04-30 00:09:12.383549700,9.9445498046875,-0.1068580942726132,0.0018158489838242,0.0479249550884049,-0.002765201497823,-0.9934927113297334,0.0858312308488038,-2.974870147450956,right,-0.0009512901306152,-0.1052946417978366,-1.0401347100611775,-9.696710784900189,-0.0575198334685185,-0.0054176533594727,0.0003401637077331,1.0306810183435675,0.0012578144669532
2025-04-30 00:09:12.423549700,9.9845498046875,-0.1071303417204372,0.0020218191202729,0.0482158096140596,-0.0036212257109582,-0.9934662468855568,0.0858667238650539,-2.97484185404573,right,-0.0004123449325561,-0.1059050432177577,-1.0427070447672158,-9.695800099796056,-0.0576802354250967,-0.0096081178635358,0.0003951787948608,1.0366336431376637,-0.0001993179321289
2025-04-30 00:09:12.463549700,10.0245498046875,-0.1071303417204372,0.0008712591370567,0.0482158096140596,-0.0030525682959705,-0.9934662468855568,0.0858667238650539,-2.97484185404573,right,0.000657320022583,-0.1059050432177577,-1.0427070447672158,-9.695800099796056,-0.0576802354250967,-0.0036535244435071,0.0003251060843467,1.0366336431376637,-0.0004275292158126
2025-04-30 00:09:12.503549700,10.0645498046875,-0.1071303417204372,0.0017454670742154,0.0482158096140596,-0.0038722641766071,-0.9934662468855568,0.0858667238650539,-2.97484185404573,right,0.0003464818000793,-0.1059050432177577,-1.0427070447672158,-9.695800099796056,-0.0576802354250967,0.0006967391818761,-0.000165656208992,1.0366336431376637,9.57995653152e-05
2025-04-30 00:09:12.543549400,10.104549560546875,-0.1071303417204372,0.0023001434747129,0.0482158096140596,-0.0045738001354038,-0.9934662468855568,0.0858667238650539,-2.97484185404573,right,-0.0002691745758056,-0.1059050432177577,-1.0427070447672158,-9.695800099796056,-0.0576802354250967,0.0015337375225499,-0.0003667324781417,1.0366336431376637,0.0014591589570045
2025-04-30 00:09:12.583549700,10.1445498046875,-0.1071303417204372,0.0100770089775323,0.0482158096140596,0.0026426678523421,-0.9934662468855568,0.0858667238650539,-2.97484185404573,right,0.000714361667633,-0.1059050432177577,-1.0427070447672158,-9.695800099796056,-0.0576802354250967,-0.0028991443105041,-0.0002705007791519,1.0366336431376637,0.0009274184703826
2025-04-30 00:09:12.623549700,10.1845498046875,-0.1071098243999834,0.0209244843572378,0.0484014802606471,0.0134994899854063,-0.9934147953290788,0.0863362967318921,-2.9739164233244453,right,0.0017719864845275,-0.1063305973338077,-1.0424608879864214,-9.69538158212304,-0.0577095148542186,0.0010228911414742,0.0011435598134994,1.0407834562934934,-0.000845231115818
2025-04-30 00:09:12.663549700,10.2245498046875,-0.1065997408213954,0.0267832651734352,0.0484558769346168,0.0144509021192789,-0.9933749438519308,0.0869085682419717,-2.9727458961332944,right,-0.0005879402160644,-0.1064634381656502,-1.037500562165305,-9.6957749653548,-0.0574898804265865,0.0065356665290892,0.0017302930355072,1.042078756801039,-0.0011946931481361
2025-04-30 00:09:12.703549700,10.2645498046875,-0.1060598264354594,0.026099819689989,0.048352370117475,0.0050260312855243,-0.9933410798443512,0.087512907165576,-2.971493885414962,right,-0.0019881129264831,-0.1062800298758207,-1.0322857501264662,-9.6965231533736,-0.0572445370876489,0.006868474651128,0.001297228038311,1.0402903390143066,0.0005090460181236
2025-04-30 00:09:12.743549700,10.3045498046875,-0.1059683813503789,0.0226842872798442,0.0482095988323191,0.0008312622085213,-0.9933016306797078,0.0880561114309131,-2.970384491114261,right,-0.000336468219757,-0.10604851518472,-1.0314245301872491,-9.69685691537261,-0.0572163882008521,0.0065316413529217,0.0022450610995292,1.0380327693458646,0.0007808357477188
2025-04-30 00:09:12.783549400,10.344549560546875,-0.1060400130876771,0.0180965792387723,0.0480365677711049,-0.0011195747647434,-0.9932682584436195,0.0884968109866819,-2.9694865379953344,right,0.0007616877555847,-0.1057583672561508,-1.0321509447656572,-9.697081956300138,-0.0572615729202172,0.0059075048193335,0.0025853738188743,1.0352033180736004,0.0012921690940856
2025-04-30 00:09:12.823549400,10.384549560546876,-0.1064573096667233,0.0051726065576076,0.0479057874170332,-0.0079887807369232,-0.9932531013279032,0.0886059426449235,-2.9692765490355364,right,0.0013640522956848,-0.1055444663754187,-1.0362208976183087,-9.696870359376073,-0.0574649785184496,0.007388824597001,0.0027810558676719,1.0331173055797815,0.0001370757818222
2025-04-30 00:09:12.863549700,10.4245498046875,-0.1068746438232866,-0.0077513670548796,0.047775003956835,-0.0148579878732562,-0.9932379442121866,0.088715074303165,-2.969066498214308,right,0.0019662380218505,-0.1053306601773287,-1.0402912157971411,-9.696656424364448,-0.0576683772807119,0.0088701453059911,0.0029767677187919,1.0310322429340333,-0.001018114387989
2025-04-30 00:09:12.903549700,10.4645498046875,-0.1068746438232866,-0.0028962567448616,0.047775003956835,-0.013267264701426,-0.9932379442121866,0.088715074303165,-2.969066498214308,right,-0.0016492009162902,-0.1053306601773287,-1.0402912157971411,-9.696656424364448,-0.0576683772807119,-0.0070383604615926,0.0014857724308967,1.0310322429340333,-0.0002322643995285
2025-04-30 00:09:12.943549700,10.5045498046875,-0.1076120276422641,0.0005555350799113,0.0478924852924444,-0.0151783544570207,-0.9932118076455244,0.088697692258937,-2.9691515668139186,right,-9.44733619689e-05,-0.1056279699770684,-1.04740806206502,-9.695581488609314,-0.0580448913177552,-0.0115037392824888,0.0020555779337882,1.0339316907025873,-0.0004622191190719
2025-04-30 00:09:12.983549700,10.5445498046875,-0.1081415411454105,-7.65025033615e-05,0.0481351710169451,-0.0059495968744158,-0.9931854316905832,0.0886769596798485,-2.9692451540032967,right,-0.0003089308738708,-0.1061582106875031,-1.0524825888503342,-9.694479664847254,-0.0583276028785374,-0.0135016348212957,0.0024521276354789,1.0391024444039911,0.0003321468830108
2025-04-30 00:09:13.023549400,10.584549560546876,-0.1081415411454105,-0.0007102095987647,0.0481351710169451,-0.0058683366514742,-0.9931854316905832,0.0886769596798485,-2.9692451540032967,right,-0.0022054314613342,-0.1061582106875031,-1.0524825888503342,-9.694479664847254,-0.0583276028785374,-0.0107232090085744,0.002194344997406,1.0391024444039911,-0.0010250285267829
2025-04-30 00:09:13.063549400,10.624549560546876,-0.1086396796962693,0.0007736339466646,0.0484368107156315,-0.0091373808681964,-0.993158820951967,0.0886327276380738,-2.9693903917968405,right,-0.0013249516487121,-0.1068012365148372,-1.0572389895971863,-9.693287824714185,-0.0585981205355387,-0.0093522779643535,0.0009917691349983,1.045372610714659,-0.0008308589458465
2025-04-30 00:09:13.103549700,10.6645498046875,-0.1086396796962693,0.0062061566859483,0.0484368107156315,-0.0065553071908652,-0.993158820951967,0.0886327276380738,-2.9693903917968405,right,-0.0009724497795104,-0.1068012365148372,-1.0572389895971863,-9.693287824714185,-0.0585981205355387,-0.0044501675292849,0.0009386092424392,1.045372610714659,-0.00099628418684
2025-04-30 00:09:13.143549700,10.7045498046875,-0.1091350818486824,0.0129175242036581,0.0486829312242916,-0.0093028750270605,-0.9931043860798144,0.0889191107417559,-2.968866299739141,right,-0.0015941858291625,-0.1073718637080648,-1.0619757357954978,-9.692168465295431,-0.0588805234700945,-0.0088084526360034,0.0003396049141883,1.0509365284521133,-0.0008575767278671
2025-04-30 00:09:13.183549700,10.7445498046875,-0.1096452823429654,0.0183613803237676,0.0488512205654029,-0.0122794331982731,-0.9930443139933494,0.0893050702840535,-2.968135487370987,right,3.01599502563e-05,-0.1077997898772836,-1.0668712527520954,-9.691177116170524,-0.0591694903626347,-0.0059614591300487,0.001048132777214,1.0551087726354598,-0.0009034276008605
2025-04-30 00:09:13.223549700,10.7845498046875,-0.1100485574737833,0.0202886965125799,0.0489517515708534,-0.0128217954188585,-0.9929857242257744,0.0897459407618631,-2.967281983258306,right,-7.76052474975e-05,-0.1080894340113476,-1.070745756097883,-9.6904417876333,-0.0594026975251581,-0.0026402440853416,0.0009706392884254,1.0579326709497718,-0.000201404094696
2025-04-30 00:09:13.263549400,10.824549560546876,-0.1105418811481798,0.0257778335362672,0.0490100602389891,-0.0196036249399185,-0.9929229578063552,0.0902235132694289,-2.966355370722658,right,-0.0004292726516723,-0.1083070325360887,-1.0755007686052471,-9.689683662742375,-0.059679459638349,-0.0031123056542128,0.0004725828766822,1.0600541200831533,-0.000484749674797
2025-04-30 00:09:13.303549400,10.864549560546877,-0.1111953718527699,0.0306413229554891,0.0490966289626614,-0.0219198688864707,-0.9928405842061172,0.0908373641283358,-2.965166631228062,right,-0.0004509687423706,-0.1086125016697149,-1.081796653879061,-9.688656657782197,-0.0600459498382841,-0.0042635640129446,0.0017945691943168,1.06303218604587,0.0003307610750198
2025-04-30 00:09:13.343549700,10.9045498046875,-0.1116834378214273,0.0309840813279151,0.0492007997945413,-0.0142783196642994,-0.9927587703218624,0.0914833287735176,-2.963906395211499,right,-0.0001879930496215,-0.1089434031373982,-1.086485980739072,-9.687776952338218,-0.0603332760300628,-0.0018302181269973,0.0007489472627639,1.066258016224578,0.0001382008194923
2025-04-30 00:09:13.383549700,10.9445498046875,-0.1119594436464335,0.0250172242522239,0.0492065896270748,-0.0080021228641271,-0.9926915815511244,0.0920936580558578,-2.962696117252293,right,0.001423954963684,-0.1090541829729258,-1.0891465782504528,-9.687359603708982,-0.0605047999478783,0.0007675832603126,0.0005798861384391,1.067337920415774,0.0018438696861267
2025-04-30 00:09:13.423549700,10.9845498046875,-0.1118283810160655,0.0147062176838517,0.0491724942778637,-0.0053981714881956,-0.9926702668177332,0.092375995235569,-2.962118457495197,right,0.0005898475646972,-0.1090085318164847,-1.087882403533533,-9.68755074236691,-0.0604519882945766,0.0042654024437069,0.0005840733647346,1.06689295312725,0.0015052184462547
2025-04-30 00:09:13.463549700,11.0245498046875,-0.1116973552671312,0.004395212046802,0.049138398928652,-0.0027942198794335,-0.9926489012962716,0.0926583636128006,-2.961540748734504,right,-0.0002442598342895,-0.1089628225838245,-1.0866185210775583,-9.687741296502947,-0.0603991766412766,0.0077632213942706,0.0005882903933525,1.0664473282516005,0.0011666417121887
2025-04-30 00:09:13.503549700,11.0645498046875,-0.1116973552671312,0.0076093133538961,0.049138398928652,-0.0026070137973874,-0.9926489012962716,0.0926583636128006,-2.961540748734504,right,-0.000771164894104,-0.1089628225838245,-1.0866185210775583,-9.687741296502947,-0.0603991766412766,0.0193407889455556,0.0001883506774902,1.0664473282516005,-0.0033176019787788
2025-04-30 00:09:13.543549400,11.104549560546875,-0.1113237382804464,0.0213098879903554,0.0486804532528463,0.0073360567912459,-0.9926453991285322,0.0930676339354044,-2.9606517009377025,right,-0.0003187656402587,-0.1080596827072333,-1.0831054714553057,-9.68909972537458,-0.0601962724430666,0.0205114614218473,7.77021050453e-05,1.0576426750272512,-0.0013730153441429
2025-04-30 00:09:13.583549700,11.1445498046875,-0.110886247174808,0.0342280380427837,0.0483497645899123,0.0062033287249505,-0.9926107709778116,0.093742813681521,-2.9592384244512484,right,0.000176727771759,-0.1074381255164632,-1.0789389994256198,-9.690224345490336,-0.0599862429720966,0.0129656502977013,0.0007581710815429,1.0515825712706892,-0.0007527768611907
2025-04-30 00:09:13.623549700,11.1845498046875,-0.1107198973982861,0.0377091467380523,0.0481670977634397,-0.0008495743386447,-0.992547870782276,0.0945350412809984,-2.95761956843188,right,-0.0005109906196594,-0.1071522253860133,-1.0773602058015763,-9.69070189987421,-0.0599301368665864,0.0080492328852415,0.0014540553092956,1.048794986378774,-0.0003566816449165
2025-04-30 00:09:13.663549700,11.2245498046875,-0.1107736161907684,0.0353785790503025,0.0480181237154974,-0.0105510838329792,-0.99247749411605,0.095311225684375,-2.9560479918686897,right,-0.0006119012832641,-0.1069522159671867,-1.077903957289457,-9.69085270652175,-0.0599856830162976,0.0113251339644193,0.0006655529141426,1.0468448021590708,-0.000552162528038
2025-04-30 00:09:13.703549700,11.2645498046875,-0.1111209833417707,0.0325556509196758,0.0478307229191729,-0.0180640127509832,-0.9924009534253074,0.0960756671713943,-2.9545116023528912,right,-0.0004336833953857,-0.1067012209798071,-1.0812992988161745,-9.690738140231373,-0.0601835940635191,0.0098463287577033,0.0010932385921478,1.0443974090069532,0.0009043961763381
2025-04-30 00:09:13.743549700,11.3045498046875,-0.111295227011854,0.026901813223958,0.0476551609920029,-0.0126159563660621,-0.9923406474543456,0.0967166744719268,-2.9532150056035062,right,-0.0009818077087402,-0.1064431623690226,-1.0830177201066165,-9.690817050686478,-0.0602893289531359,0.0142315719276666,0.0003250390291213,1.0418811153370886,0.0003310963511466
2025-04-30 00:09:13.783549400,11.344549560546875,-0.1111485109370637,0.014822207391262,0.0473830572046077,0.0025843204930424,-0.992316753113999,0.0971418287580454,-2.952325379278544,right,-0.0008040070533752,-0.1059347250696833,-1.081654468929395,-9.691501525819302,-0.0602145194903989,0.0162022598087787,-5.77718019485e-05,1.036923127603531,0.0005022063851356
2025-04-30 00:09:13.823549400,11.384549560546876,-0.11091111455713,0.003346100449562,0.0471094682510424,0.0031416669953614,-0.992320798005716,0.0973160421669579,-2.951935097904121,right,-0.0003286600112915,-0.1053840129648495,-1.0794167730052024,-9.69232394811809,-0.0600807873599751,0.0128644704818725,-2.3677945137e-05,1.0315526135463269,0.00020532310009
2025-04-30 00:09:13.863549700,11.4245498046875,-0.11091111455713,0.0004493424203246,0.0471094682510424,0.0061900042928755,-0.992320798005716,0.0973160421669579,-2.951935097904121,right,0.0017253160476684,-0.1053840129648495,-1.0794167730052024,-9.69232394811809,-0.0600807873599751,0.0096288779750466,0.001653753221035,1.0315526135463269,-0.001990720629692
2025-04-30 00:09:13.903549700,11.4645498046875,-0.1104509893173416,0.0034204968251287,0.0468902939876567,0.0073408144526183,-0.9923442972193294,0.0973353940114769,-2.9518500410301782,right,0.0002989172935485,-0.1049025570620969,-1.0750115968488156,-9.69331179011166,-0.0598324510088737,0.0028668385930359,0.000741459429264,1.0268572222717105,-0.0012195780873298
2025-04-30 00:09:13.943549700,11.5045498046875,-0.1104509893173416,-0.0014697494916617,0.0468902939876567,0.0052093612030148,-0.9923442972193294,0.0973353940114769,-2.9518500410301782,right,-0.0005164146423339,-0.1049025570620969,-1.0750115968488156,-9.69331179011166,-0.0598324510088737,-0.0025369310751557,0.0015582367777824,1.0268572222717105,0.0001455917954444
2025-04-30 00:09:13.983549700,11.5445498046875,-0.1104509893173416,-0.0082505252212286,0.0468902939876567,0.004811608698219,-0.9923442972193294,0.0973353940114769,-2.9518500410301782,right,-0.0004616379737854,-0.1049025570620969,-1.0750115968488156,-9.69331179011166,-0.0598324510088737,-0.0007555708289146,0.0022797286510467,1.0268572222717105,0.000373251736164
2025-04-30 00:09:14.023549400,11.584549560546876,-0.1099661846206901,-0.00748534174636,0.0468793978762894,0.0009671084117144,-0.9923843224115286,0.0970886410919678,-2.952319503008057,right,-0.0011113882064819,-0.1048049072833417,-1.0703231467716394,-9.693931967836615,-0.0595764316847656,-0.0017399152275174,0.0018977746367454,1.0259048169177023,-0.0004232376813888
2025-04-30 00:09:14.063549400,11.624549560546876,-0.1094813682576419,-0.0067201582714915,0.0468685009713584,-0.0028773914091289,-0.9924243476037276,0.0968418881724586,-2.952789056173771,right,-0.0017613172531127,-0.1047075093503311,-1.0656341121725736,-9.694548638430238,-0.0593204128481189,-0.0027242596261203,0.0015157833695411,1.0249548957817256,-0.0012200027704238
2025-04-30 00:09:14.103549700,11.6645498046875,-0.1094813682576419,0.0009040967561304,0.0468685009713584,-0.0048519326373934,-0.9924243476037276,0.0968418881724586,-2.952789056173771,right,-0.000312864780426,-0.1047075093503311,-1.0656341121725736,-9.694548638430238,-0.0593204128481189,-0.0017394992755725,0.0016260743141174,1.0249548957817256,-0.003204621374607
2025-04-30 00:09:14.143549700,11.7045498046875,-0.1094813682576419,0.0066782501526176,0.0468685009713584,-0.0090864999219775,-0.9924243476037276,0.0968418881724586,-2.952789056173771,right,-0.0002117753028869,-0.1047075093503311,-1.0656341121725736,-9.694548638430238,-0.0593204128481189,0.0039984998293221,0.0014648288488388,1.0249548957817256,-0.0028542131185531
2025-04-30 00:09:14.183549700,11.7445498046875,-0.1094813682576419,0.012464540079236,0.0468685009713584,-0.0031690569594502,-0.9924243476037276,0.0968418881724586,-2.952789056173771,right,-0.0003165006637573,-0.1047075093503311,-1.0656341121725736,-9.694548638430238,-0.0593204128481189,0.0031102562788873,-0.0005957335233688,1.0249548957817256,-0.0021811947226524
2025-04-30 00:09:14.223549700,11.7845498046875,-0.1097743504670336,0.0019825883209705,0.0469125278857971,0.0044295545667409,-0.9923896632611175,0.0970753572779094,-2.9523395473595464,right,0.0009872913360595,-0.1048516807284847,-1.0684582296825944,-9.694089204224944,-0.0594829114483375,-0.006653981283307,0.0012634024024009,1.0263610362526028,0.0013618022203445
2025-04-30 00:09:14.263549400,11.824549560546876,-0.1100672783512752,-0.0084993634372949,0.0469565509005458,0.0120281670242547,-0.9923549789185072,0.0973088263833602,-2.951890104614215,right,0.0022910237312316,-0.1049959917210351,-1.071281543475017,-9.69362860097587,-0.0596454037000473,-0.0164182186126709,0.0031224712729454,1.0277684188324958,0.0049046650528907
2025-04-30 00:09:14.303549400,11.864549560546877,-0.1098348742646292,-0.0200066044926643,0.0472144040840472,0.0083595942705869,-0.9923669199181728,0.0971255628077155,-2.9522721621265693,right,-0.0010896325111389,-0.1054697023690872,-1.068975166228786,-9.693391869610547,-0.0595427553545116,-0.0143334595486521,0.0026682168245315,1.0323882606528698,0.0041853338479995
2025-04-30 00:09:14.343549700,11.9045498046875,-0.1098496781906226,-0.0219142828136682,0.0474624512760538,0.000285618007183,-0.992394377162558,0.096717596568826,-2.9531175290400804,right,-0.0033980011940002,-0.1059200682843209,-1.0690675937525926,-9.692913146182894,-0.0595506209212786,-0.0070760040543973,0.0020935162901878,1.0367802120015024,-0.0010409876704216
2025-04-30 00:09:14.383549700,11.9445498046875,-0.1102619755386738,-0.0105103328824043,0.0474434218570911,-0.0099065750837326,-0.992414411691252,0.0964056167761931,-2.953764144094926,right,-0.0005406141281127,-0.1058829980745806,-1.073068134630844,-9.69250982607901,-0.0597381774935102,0.0064918552525341,0.0022744983434677,1.0364186852127313,-0.0043126717209815
2025-04-30 00:09:14.423549700,11.9845498046875,-0.1102619755386738,0.0099485609680414,0.0474434218570911,-0.0091354874894022,-0.992414411691252,0.0964056167761931,-2.953764144094926,right,-2.43186950683e-05,-0.1058829980745806,-1.073068134630844,-9.69250982607901,-0.0597381774935102,0.0054668802767992,0.0002638548612594,1.0364186852127313,-0.0047301948070526
2025-04-30 00:09:14.463549700,12.0245498046875,-0.110715084619802,0.0174007937312126,0.0472369147710971,-0.0075916368514299,-0.992372092706131,0.0967990684364489,-2.952976459677099,right,0.0016360282897949,-0.1055586019657373,-1.0774968377932903,-9.692356096822024,-0.0599669305057099,-0.0017589968629181,-0.0001697242259979,1.0332551796805114,-0.0002181008458137
2025-04-30 00:09:14.503549700,12.0645498046875,-0.1107645675629888,0.004376164637506,0.0472982442791316,0.0064192824065685,-0.9923423788386536,0.0970474619283997,-2.952486219489996,right,0.0039780735969543,-0.1057165964344014,-1.0779583908904342,-9.692140408244727,-0.0600102618114352,-0.0093094743788242,0.0020491778850555,1.0347959793817252,0.0028112828731536
2025-04-30 00:09:14.543549400,12.104549560546875,-0.1103274880685141,-0.0090819681063294,0.0474298701093666,0.0118076223880052,-0.992356424763042,0.0969700014564798,-2.952632247377983,right,-0.0005791783332824,-0.1059302213854942,-1.0736977377712726,-9.692390583613514,-0.0597996739610418,-0.0023182285949587,0.0011794716119766,1.036879215396568,0.0007988214492797
2025-04-30 00:09:14.583549700,12.1445498046875,-0.1103274880685141,-0.0068915160372853,0.0474298701093666,0.0013307509943842,-0.992356424763042,0.0969700014564798,-2.952632247377983,right,-0.0017700791358947,-0.1059302213854942,-1.0736977377712726,-9.692390583613514,-0.0597996739610418,-0.0003650002181529,0.0025362744927406,1.036879215396568,-0.0003573670983314
2025-04-30 00:09:14.623549700,12.1845498046875,-0.1103274880685141,0.006819037720561,0.0474298701093666,-0.0052170897834002,-0.992356424763042,0.0969700014564798,-2.952632247377983,right,-0.002370536327362,-0.1059302213854942,-1.0736977377712726,-9.692390583613514,-0.0597996739610418,-0.0018298035720363,0.0018227249383926,1.036879215396568,-0.0013090446591377
2025-04-30 00:09:14.663549700,12.2245498046875,-0.1103274880685141,0.0205295905470848,0.0474298701093666,-0.0117649305611848,-0.992356424763042,0.0969700014564798,-2.952632247377983,right,-0.0029709935188293,-0.1059302213854942,-1.0736977377712726,-9.692390583613514,-0.0597996739610418,-0.003294606693089,0.0011091753840446,1.036879215396568,-0.002260722219944
2025-04-30 00:09:14.703549700,12.2645498046875,-0.1107365253889287,0.0271310042589902,0.0476204957023957,-0.0206132847815752,-0.9922771672789484,0.0975307335184964,-2.9515463054902167,right,-0.0006592273712158,-0.1064198160213635,-1.0776059241909532,-9.691444827196,-0.0600508045333238,-0.0041082454845309,7.6986849308e-05,1.0416534440610556,-0.0014504566788673
2025-04-30 00:09:14.743549700,12.3045498046875,-0.1112518800172838,0.0270662270486354,0.0477462652356323,-0.0134937576949596,-0.9921966435963624,0.0981023863659017,-2.950437578273497,right,0.0010789036750793,-0.1067911883719982,-1.082557336053252,-9.690503162431716,-0.0603499847354467,-0.0071518961340188,-0.0002018213272094,1.0452747032981364,-0.001090370118618
2025-04-30 00:09:14.783549400,12.344549560546875,-0.1116936748222674,0.0219909157603979,0.0479032608483519,-0.0116771701723337,-0.9921211064094936,0.0986257873482319,-2.949425134755701,right,0.0018926262855529,-0.1072129304319058,-1.0867892014693468,-9.689584878543018,-0.0606128543058126,-0.013957392424345,0.0012891590595245,1.0493868878573178,2.77534127235e-05
2025-04-30 00:09:14.823549400,12.384549560546876,-0.1118279035774017,0.013760526664555,0.0482286889501352,0.0071203988045454,-0.9920623166672776,0.0989857066150832,-2.948742089422255,right,0.0037773251533508,-0.107923690800987,-1.0880062491089104,-9.688695820748803,-0.0607288472841452,-0.0262660048902034,0.0029522106051445,1.0563167601857333,-6.37099146842e-05
2025-04-30 00:09:14.863549700,12.4245498046875,-0.1110426178578838,0.0268477778881788,0.0488797999656542,0.0142091810703277,-0.9920122941542752,0.0993589875165746,-2.9480157095386685,right,-0.0011186003684997,-0.1092014731282931,-1.0802470863495022,-9.688197808098792,-0.0604164784929277,-0.0371253490447998,0.0015926659107208,1.068773798437789,-0.0007626190781593
2025-04-30 00:09:14.903549700,12.4645498046875,-0.11058562084181,0.0414499416947364,0.0497658078245179,-0.0042937137186527,-0.9919061735380004,0.1000424774551068,-2.9467060702808783,right,-0.0032171607017517,-0.1110205276808571,-1.075603206066415,-9.686741764071582,-0.0603072789144996,-0.0517610162496566,0.0016458705067634,1.0865046123743056,0.0009382292628288
2025-04-30 00:09:14.943549700,12.5045498046875,-0.1106054625057269,0.0477830991148948,0.0508256845819827,-0.0102854166179895,-0.9917531647003552,0.1009272703341735,-2.945034560118894,right,-0.001853585243225,-0.1132601488933885,-1.0755240764155984,-9.684278004306554,-0.0604647756359039,-0.0564831122756004,0.0012941882014274,1.1083297829523682,0.0019188746809959
2025-04-30 00:09:14.983549700,12.5445498046875,-0.110899583004677,0.0381677523255348,0.0518904360543312,-0.0172640793025493,-0.9915930097271484,0.1017786789281615,-2.943445841546411,right,-0.0022503733634948,-0.1155332694682773,-1.0780907850984482,-9.68143196722567,-0.060759443752208,-0.0562679059803485,0.0007863640785217,1.1304757829826324,0.0048525929450988
2025-04-30 00:09:15.023549400,12.584549560546876,-0.1115368206964322,0.0288477353751659,0.0529137801046347,-0.0190991219133138,-0.9914398574675292,0.1024693039553629,-2.9421964068904862,right,-0.0001250505447387,-0.1177385233874695,-1.0839797700718043,-9.67824223127365,-0.0612135921549212,-0.0535901337862014,0.0001904293894767,1.1519549896672368,0.0045159831643104
2025-04-30 00:09:15.063549400,12.624549560546876,-0.1124918168564007,0.0180333256721496,0.0538805203957686,-0.0231083743274211,-0.991307518451418,0.1028893019824648,-2.9415053212404008,right,0.0011116862297058,-0.1198292170711251,-1.092949258469045,-9.674788291427491,-0.0618058466693425,-0.0437143668532371,0.0012309402227401,1.1723132294978946,0.0007869824767112
2025-04-30 00:09:15.103549700,12.6645498046875,-0.1133450903929107,0.0123247187584638,0.054613945623918,-0.0200449582189321,-0.9912086069859684,0.1031474640092806,-2.941111487286697,right,0.0005249381065368,-0.1214212462492927,-1.1009916220840066,-9.671985508966443,-0.0623160523323681,-0.0314401686191558,-8.75070691108e-05,1.1878122657943515,0.0001155808568
2025-04-30 00:09:15.143549700,12.7045498046875,-0.1143230625188477,0.0046998630277812,0.0551193098374197,-0.021588034927845,-0.9911346986436704,0.103260367031297,-2.9409952070795784,right,0.0017861723899841,-0.1225493667049906,-1.1102964799154549,-9.669566757386924,-0.0628582295901276,-0.0241507645696401,0.0005180835723876,1.19879316707924,0.00112234801054
2025-04-30 00:09:15.183549700,12.7445498046875,-0.1150248455574535,0.0023071353789418,0.0555025811174066,-0.0101524870842695,-0.9910878650517462,0.1032688494553354,-2.941060389513424,right,0.0019444823265075,-0.123391161250701,-1.1169658746767788,-9.66777928944826,-0.0632447126509081,-0.0175556968897581,0.0007963627576828,1.2069859720155596,-0.0007175505161285
2025-04-30 00:09:15.223549700,12.7845498046875,-0.1152737479924055,-0.0017937093507498,0.0557054280572315,-0.0123507287353277,-0.9910766543883592,0.1031819305531753,-2.941271386158803,right,-3.83853912353e-05,-0.1238126367733041,-1.1193136068467051,-9.6669948610723,-0.0633824553514816,-0.0157434456050395,-0.000474102795124,1.2110877082459628,0.0006256699562072
2025-04-30 00:09:15.263549400,12.824549560546876,-0.1155227765328092,-0.0058945538476109,0.0559082765841844,-0.0145489703863859,-0.9910654945130424,0.1030949804534948,-2.9414826179757867,right,-0.0020214915275573,-0.1242340816725192,-1.121661996603757,-9.666208094608782,-0.0635201970771309,-0.0139311961829662,-0.0017445161938667,1.2151889330197123,0.0019689425826072
2025-04-30 00:09:15.303549400,12.864549560546877,-0.1162115891352689,-0.0113622341305017,0.0562006662843402,-0.0130461305379867,-0.9910491458246966,0.1028721536456815,-2.9420037253730005,right,0.0002093315124511,-0.1248617608797679,-1.128231218926236,-9.664673724648356,-0.0638769898572218,-0.022424716502428,0.0002796053886413,1.221296675310284,0.0042168349027633
2025-04-30 00:09:15.343549700,12.9045498046875,-0.1165516073244979,-0.0107099087908864,0.0567442275549104,-0.0021757567301392,-0.9910347256571488,0.1025872142574561,-2.942654814316128,right,0.0005411505699157,-0.1259511356095238,-1.1313619912326336,-9.662962244555354,-0.0640790935889131,-0.0299310088157653,0.0019601136445999,1.2318959568664432,0.0040262043476104
2025-04-30 00:09:15.383549700,12.9445498046875,-0.1165388167325621,-0.0117445793002843,0.0573379842544304,0.0021120370365679,-0.9910304059825918,0.1022797716992037,-2.943334467277777,right,-0.0017745494842529,-0.1271032619780193,-1.1310725798320025,-9.661560561063885,-0.0641081607181336,-0.0188310146331787,0.0021860301494598,1.2431041641011833,0.002013012766838
2025-04-30 00:09:15.423549700,12.9845498046875,-0.1164546977055503,-0.0028823027387261,0.0576187409817487,0.0003823949955403,-0.9910372967913884,0.1020739380143839,-2.943772535191955,right,-0.0024667978286743,-0.127632469373896,-1.1301833028420805,-9.661000589093565,-0.0640789705457264,-0.0002567078918218,0.0022219270467758,1.2482517561227082,-0.0023855417966842
2025-04-30 00:09:15.463549700,13.0245498046875,-0.1164546977055503,0.0109827583655714,0.0576187409817487,-0.0051702912896871,-0.9910372967913884,0.1020739380143839,-2.943772535191955,right,-0.0022566318511962,-0.127632469373896,-1.1301833028420805,-9.661000589093565,-0.0640789705457264,0.0192921124398708,0.0013721212744712,1.2482517561227082,-0.0033409819006919
2025-04-30 00:09:15.503549700,13.0645498046875,-0.1164150648477606,0.0174922551959753,0.0569010921935808,0.0004968373104929,-0.9910232752575968,0.102642024915229,-2.942552429401991,right,-0.0006029605865478,-0.1262599551700349,-1.1299983016639947,-9.662738372671605,-0.0640290620886727,0.0212902911007404,0.0008807852864265,1.234900399379432,-0.0017677545547485
2025-04-30 00:09:15.543549400,13.104549560546875,-0.1163771356429216,0.0240017510950565,0.0561833971983197,0.0061639659106731,-0.9910084142773432,0.1032099978961646,-2.9413326405799403,right,0.0010486841201782,-0.1248873937842714,-1.12982754820697,-9.664455697983502,-0.0639791033195215,0.0232884716242551,0.0003909170627593,1.2215461200267077,-0.0001942440867424
2025-04-30 00:09:15.583549700,13.1445498046875,-0.1162425174620062,0.0175229366868734,0.0556954232918473,-0.0037989700213074,-0.9909882061073588,0.103717109759007,-2.940253325117036,right,0.0008271932601928,-0.123958835343371,-1.1286576276447624,-9.66572995570302,-0.0638978932753508,0.0122435512021183,-0.0015607476234436,1.21251043452546,0.0052622854709625
2025-04-30 00:09:15.623549700,13.1845498046875,-0.1163958648204224,-0.0055159293115139,0.0558137747443449,-0.0012389621697366,-0.9909575797628192,0.1038868084495691,-2.939933855733315,right,0.0041312575340271,-0.1242341906652126,-1.130100958320871,-9.66522492879033,-0.0639960770170883,-0.0248945988714694,0.0026823356747627,1.2151900289982556,0.0117011815309524
2025-04-30 00:09:15.663549700,13.2245498046875,-0.1159787194457897,-0.0166781581938266,0.0565954821794974,0.0028979354538023,-0.9909898369633906,0.1032607222418639,-2.941248857824021,right,0.0003796219825744,-0.1256823697786557,-1.1258642705991864,-9.66393722706735,-0.0638222085183533,-0.021199245005846,0.0021825283765792,1.22928109819293,0.0056937336921691
2025-04-30 00:09:15.703549700,13.2645498046875,-0.1155634022749979,-0.0278403870761394,0.05737712384098,0.00703483261168,-0.9910210399582472,0.1026345141306696,-2.942563503640062,right,-0.0033745765686035,-0.1271310703819612,-1.1216440225556492,-9.662624975425004,-0.0636482667507981,-0.0175038911402225,0.0016844049096107,1.243374651605636,-0.0003139525651931
2025-04-30 00:09:15.743549700,13.3045498046875,-0.1153735202221728,-0.0068227387964725,0.0577305818625503,-0.003918744623661,-0.991052412666072,0.1021893067859569,-2.9434836314430712,right,-0.0055791735649108,-0.1277652520630713,-1.1197182421248406,-9.662052143973112,-0.0635578486372135,0.0067292433232069,-0.0003328323364257,1.2495434033684432,-0.0072802528738975
2025-04-30 00:09:15.783549400,13.344549560546875,-0.1156891682584254,0.0286040939390659,0.0574620890891752,-0.0168976914137601,-0.9910359199077016,0.102409572760521,-2.9430327774883382,right,-0.002312958240509,-0.1272853040973418,-1.1228371047977357,-9.662292966991664,-0.0637044479807114,0.0221264325082302,-0.0001031011343002,1.2448748270355163,-0.0068153217434883
2025-04-30 00:09:15.823549700,13.3845498046875,-0.1161193768730258,0.0506952628493309,0.0570173644708916,-0.0178838931024074,-0.990957013442434,0.103274589061989,-2.941273607824671,right,0.0029030442237854,-0.126546234726658,-1.1271000960044562,-9.662720252493024,-0.063932666898015,0.0202220771461725,0.0007164552807807,1.2376853539228438,-0.0009100586175918
2025-04-30 00:09:15.863549700,13.4245498046875,-0.1162242073881733,0.0409809723496437,0.0566332543124919,0.0005761831998825,-0.9908685070680088,0.104281698305203,-2.939214321139756,right,0.0056067109107971,-0.125915378041497,-1.1282033810712395,-9.663375501531362,-0.0640126738305792,0.0154310129582881,0.0006280913949012,1.2315480202116071,0.0048189014196395
2025-04-30 00:09:15.903549700,13.4645498046875,-0.115682649398413,0.0120247602462768,0.0562806958423888,0.0179323349148035,-0.9908447305362864,0.1048603242673263,-2.937979951291721,right,0.0047914981842041,-0.1252266894892943,-1.1230675525527447,-9.664825700339676,-0.0637456981135661,0.0202933885157108,0.0011834651231765,1.2248474996596574,0.0062245428562164
2025-04-30 00:09:15.943549700,13.5045498046875,-0.1143984672044787,-0.012715196236968,0.0560869146841902,0.0348739102482795,-0.9908992048089068,0.1048483375946742,-2.937904610204414,right,0.0011416673660278,-0.1247048710659544,-1.110728003200516,-9.666893154263496,-0.0630860903564195,0.0122461384162306,0.0013869777321815,1.219770123330131,0.0030731409788131
2025-04-30 00:09:15.983549700,13.5445498046875,-0.1132560194804404,-0.0197016391903162,0.0560864376067639,0.0269510261714458,-0.9909799354093576,0.1044406644029093,-2.938654154178716,right,-0.0022661089897155,-0.1245358845171149,-1.099706696840003,-9.6683608887285,-0.0624907794080531,-0.000125708989799,0.0015201270580291,1.2181257901892066,-0.0012885108590126
2025-04-30 00:09:16.023549400,13.584549560546876,-0.1125671442522559,-0.0068477299064397,0.0561541811077564,0.0041503272950649,-0.9910292952185898,0.1041479552772049,-2.9392073766190023,right,-0.0042875409126281,-0.1245653021981801,-1.0930420513190329,-9.669080435174704,-0.0621353457513828,-0.0007015267037786,0.0011345595121383,1.2184119867194445,-0.0039611160755157
2025-04-30 00:09:16.063549400,13.624549560546876,-0.1125671442522559,0.0144093167036771,0.0561541811077564,-0.0087124891579151,-0.9910292952185898,0.1041479552772049,-2.9392073766190023,right,-0.0033943653106689,-0.1245653021981801,-1.0930420513190329,-9.669080435174704,-0.0621353457513828,-0.0032121818512678,0.0013222694396972,1.2184119867194445,-0.0029280856251716
2025-04-30 00:09:16.103549700,13.6645498046875,-0.1128320868208666,0.0288563296198844,0.056255846737257,-0.0134606035426259,-0.990954116068408,0.1047017751836216,-2.9381197911451755,right,-0.0019689798355102,-0.1248664763118762,-1.0955624366421253,-9.668425186136364,-0.062311859589192,-0.0069617605768144,0.002018928527832,1.2213425602786243,-9.54344868659e-05
2025-04-30 00:09:16.143549700,13.7045498046875,-0.1132212408872554,0.0197470504790544,0.0562298029051524,-0.0162709951400756,-0.9908835753979468,0.1052465201097379,-2.937045179494895,right,-0.0007331371307373,-0.1249227811801645,-1.099317113000527,-9.6679300960958,-0.0625376514767938,-0.0012112548574805,0.001501090824604,1.2218904764849692,0.0005964264273643
2025-04-30 00:09:16.183549700,13.7445498046875,-0.1136103721172697,0.0106377722695469,0.0562037434061634,-0.0190813858062028,-0.990812839558783,0.1057911750666836,-2.935970780490316,right,0.0005025267601013,-0.1249795213916809,-1.103071204837039,-9.667432667967676,-0.0627634267561807,0.0045392499305307,0.0009831935167312,1.222442557409778,0.00128785520792
2025-04-30 00:09:16.223549700,13.7845498046875,-0.1143611102850104,0.0145344017073512,0.0560037774390152,-0.0227230992168188,-0.9907663017774556,0.1061094318796495,-2.935356481790387,right,0.0012855529785156,-0.124695392273245,-1.110368229977414,-9.666946345755456,-0.0631385230086068,0.0127250775694847,0.0021398812532424,1.2196778419367968,-0.0003307983279228
2025-04-30 00:09:16.263549400,13.824549560546876,-0.1147334294359968,0.0188228618353605,0.0561028211783748,-0.0203828308731317,-0.9906968555245168,0.1065708915503884,-2.934461098035124,right,0.001133382320404,-0.1249922391511545,-1.1139258493937552,-9.666172438773511,-0.0633627805582678,0.0018776590004563,0.0026273652911186,1.2225662568546831,-0.0003288015723228
2025-04-30 00:09:16.303549400,13.864549560546877,-0.11510550124068,0.0231113228946924,0.0562018508379765,-0.0180425625294446,-0.9906271633148044,0.1070322924494773,-2.9335658674733844,right,0.0009809136390686,-0.1252894192768204,-1.1174804731354118,-9.665395609182118,-0.0635870205247931,-0.008969759568572,0.003114566206932,1.2254578135777263,-0.0003271326422691
2025-04-30 00:09:16.343549700,13.9045498046875,-0.1153808924800471,0.0232751313596963,0.0563628541579196,-0.0094339121133089,-0.9905485867644668,0.1075622471826354,-2.932533037443484,right,5.37037849426e-05,-0.1257103865586976,-1.1200826915230602,-9.66457435592711,-0.0637735592593666,-0.0063798730261623,0.0031568631529808,1.2295536315239963,-0.0003700107336044
2025-04-30 00:09:16.383549700,13.9445498046875,-0.1155528455794445,0.0203029029071331,0.0564301221203644,-0.0149075277149677,-0.99048219308108,0.1080635229842682,-2.931541846236632,right,-0.0021645426750183,-0.1259286382401684,-1.1217135806605218,-9.664114921721817,-0.0638976482627358,-0.000425414647907,0.0009395405650138,1.2316770534187556,-0.0006614029407501
2025-04-30 00:09:16.423549700,13.9845498046875,-0.1161016914845354,0.0152633488178253,0.0564240480533653,-0.0153579954057931,-0.9904182463040866,0.1084749466928596,-2.930747435478452,right,0.0005362033843994,-0.1260276671225783,-1.1270034306969492,-9.663376670575142,-0.0641968642199263,-0.0021406696178019,0.0003982111811637,1.2326404916234317,0.0002484768629074
2025-04-30 00:09:16.463549700,14.0245498046875,-0.1166859019260185,0.0109028499573469,0.0564185077975168,-0.0140385860577225,-0.990363953298682,0.1087886637224876,-2.930151912574257,right,0.0010675191879272,-0.1261191812799819,-1.1326355182997885,-9.662604517158863,-0.0645076003488319,0.001673063263297,0.0002769380807876,1.2335308645918963,0.0001326352357864
2025-04-30 00:09:16.503549700,14.0645498046875,-0.1171804433548073,0.0013030599802732,0.0564968993767773,-0.0129753239452838,-0.990329023659258,0.108910360740567,-2.9299460677405573,right,-0.0009323954582214,-0.1263451093701841,-1.1373813245873898,-9.661766312769055,-0.0647697614752433,-0.009256413206458,-0.0005246326327323,1.2357288130275903,0.0012455582618713
2025-04-30 00:09:16.543549400,14.104549560546875,-0.1177067509653182,-0.0089463796466588,0.056766874757489,-0.0099641596898436,-0.990309814515572,0.1087769405367731,-2.9302758520103334,right,0.0018648505210876,-0.126926103334527,-1.1423816901579498,-9.66045172303915,-0.065050504647257,-0.016544260084629,-0.0002719238400459,1.2413807013094424,0.001818299293518
2025-04-30 00:09:16.583549700,14.1445498046875,-0.118100383355806,-0.0100852660834789,0.0570935551380274,-0.0050573977641761,-0.9903072415425196,0.1085017220515102,-2.930888862340787,right,0.0017400979995727,-0.1275881658906294,-1.1460871936123818,-9.65918272601664,-0.065261466082584,-0.0132697159424424,-0.0005774125456809,1.2478208173595369,-0.0013935416936874
2025-04-30 00:09:16.623549700,14.1845498046875,-0.1182658825597199,-0.0010867854580283,0.0573808400469709,-0.0057476423680782,-0.990303074746386,0.1083285628488984,-2.9312781622368225,right,-0.0006049871444702,-0.1281603537849889,-1.1476013245023786,-9.658282562306525,-0.0653611391637038,-0.013731675222516,-0.0005745738744735,1.2533863425321876,-0.0020255595445632
2025-04-30 00:09:16.663549700,14.2245498046875,-0.1185164331287214,0.0130860740318894,0.057651161819662,-0.0062546320259571,-0.990262782573067,0.1084565618329287,-2.931065003977736,right,-0.0005532503128051,-0.128747336820842,-1.1499340052336453,-9.65726257160902,-0.0655209241255063,-0.0146363442763686,-0.0010032132267951,1.259095221698284,-0.0005118548870086
2025-04-30 00:09:16.703549700,14.2645498046875,-0.118666704952631,0.0193917844444513,0.057972971888845,-0.0046362206339836,-0.9901979587503672,0.1087985725618692,-2.930420250173924,right,0.0004873275756835,-0.1294559216095655,-1.1512792823627591,-9.656201079857349,-0.0656497547233585,-0.0180378276854753,0.00068299472332,1.2659862963862716,0.0011068731546401
2025-04-30 00:09:16.845092400,14.40609228515625,-0.1170703125533144,-0.0103414691984653,0.058867382732031,0.0169668830931186,-0.9901478686145748,0.1091830173302726,-2.9296371219397845,right,-0.0022034344729036,-0.1311370544344397,-1.135612561349198,-9.655899466562271,-0.0649674815933625,0.0071762362495064,0.0012560099130496,1.2823327432923015,-0.001761833555065
2025-04-30 00:09:16.885010000,14.446010009765626,-0.1167500791685598,-0.0026102515403181,0.058732815211761,0.0010641007684171,-0.9901820191154478,0.1090542441249421,-2.929861675710022,right,-0.0013669884065166,-0.1308155165045946,-1.1325682982824743,-9.656671619978546,-0.0647860132173707,0.0075434818863868,0.0006647246191278,1.2792065740957856,-0.0026881638914346
2025-04-30 00:09:16.925010000,14.486010009765623,-0.1167500791685598,-0.0050002038478851,0.058732815211761,0.0045747123658657,-0.9901820191154478,0.1090542441249421,-2.929861675710022,right,0.0001742243766784,-0.1308155165045946,-1.1325682982824743,-9.656671619978546,-0.0647860132173707,-0.019115513190627,6.64591789245e-05,1.2792065740957856,0.0043976753950119
2025-04-30 00:09:16.965010200,14.52601025390625,-0.1169405973837492,-0.0156202157959342,0.059355333049021,-0.0010260324925184,-0.990156374429166,0.1088634294160095,-2.930322654555193,right,0.0004628300666809,-0.1320626495854191,-1.134221033925563,-9.654863693773748,-0.06492991934441,-0.0326265729963779,0.0010957643389701,1.2913313116535543,0.0054667145013809
2025-04-30 00:09:17.005010200,14.56601025390625,-0.1171813509410289,-0.0185275580734014,0.0600741805853206,0.0023869851138442,-0.9901447038629152,0.1084764902583882,-2.93119203522338,right,0.0004960894584655,-0.1334828210406797,-1.136329915838316,-9.652759414970877,-0.0650948353277463,-0.0295144934207201,0.0009471252560615,1.30513581899181,0.0032210499048233
2025-04-30 00:09:17.045010200,14.60601025390625,-0.1173311312171776,-0.0061657484620809,0.0606053571957104,-0.0019234309438616,-0.9901384280824872,0.1081736069566527,-2.9318668480964547,right,-0.0004405975341796,-0.1345268628433962,-1.1376155717346816,-9.651230305707454,-0.0652011054474904,-0.0152200022712349,0.0010245591402053,1.3152825344748795,-0.0004073530435562
