time,seconds_elapsed,roll,rotationRateZ,quaternionY,rotationRateY,quaternionZ,quaternionW,yaw,devicelocation,accelerationZ,pitch,gravityX,gravityZ,quaternionX,rotationRateX,accelerationX,gravityY,accelerationY
2025-04-30 00:42:04.718907600,0.52090771484375,-0.2906990715307949,-0.2340039759874344,-0.1380783534820249,0.0290619246661663,-4.872093464007389e-17,0.9745752686848788,-0.0519193064907964,left,-0.0139003992080688,-0.3511115862094487,-2.6393179919868706,-8.822007094731926,-0.1764572733367892,0.2025626003742218,0.011763572692871,3.372917221201956,-0.0538020730018615
2025-04-30 00:42:04.758907600,0.56090771484375,-0.2890071400274041,-0.1672041565179824,-0.1375584151207999,0.029866985976696,-0.0037504432772879,0.976689382328948,-0.0556168393631011,left,-0.0054894089698791,-0.3265531793986356,-2.6472017309740186,-8.903189001902938,-0.1647463807812031,0.1422970592975616,0.0128550827503204,3.145780198176205,-0.0373995006084442
2025-04-30 00:42:04.798907400,0.600907470703125,-0.2843348054666072,-0.1233433485031127,-0.1355174328651341,0.0213312320411205,-0.0056598309633694,0.9780310963204076,-0.0567655933428182,left,-0.0018451809883117,-0.3132009033930634,-2.6171245726183057,-8.954981148460506,-0.1582973224994923,0.1063729673624038,0.0050565004348754,3.0214822028562427,-0.0346625447273254
2025-04-30 00:42:04.838907400,0.640907470703125,-0.2796661413831665,-0.0794825479388237,-0.1334695144950994,0.0127954753115773,-0.0075689211787911,0.9793227993862764,-0.0579747755454018,left,0.0016247034072875,-0.2998538924048554,-2.586190505172312,-9.005063568490742,-0.1518401604899341,0.0704488605260849,-0.0028294920921325,2.896694670453668,-0.031875729560852
2025-04-30 00:42:04.878907600,0.68090771484375,-0.275320967589664,-0.0299403667449951,-0.1314543131217368,0.0403120145201683,-0.0096552281819738,0.980365104432796,-0.0600150141564843,left,-0.0040017366409301,-0.289040917885102,-2.555403444981575,-9.045830463165045,-0.1466655130038823,-0.0107006542384624,-0.0117651522159576,2.7952196245774625,-0.0159029960632324
2025-04-30 00:42:04.918907600,0.72090771484375,-0.275980610434586,-0.0210550632327795,-0.1317402256973177,0.0227799136191606,-0.0105550305541514,0.9805170852190648,-0.0615270623424131,left,0.005138874053955,-0.2860924521782136,-2.5636045793548226,-9.052032824936507,-0.1453247048351355,-0.0359937623143196,-0.0209763050079345,2.7674925364792347,-0.0053804814815521
2025-04-30 00:42:04.958907600,0.76090771484375,-0.2770530777259175,-0.0076953181996941,-0.1322058209678011,0.0156000331044197,-0.0111803114660778,0.9805239952188292,-0.0627836314275207,left,0.0018507242202758,-0.2848557041073339,-2.574245508095622,-9.052563570812344,-0.1448078675436368,-0.0466415993869304,-0.0176957249641418,2.7558549979165194,-0.0022213757038116
2025-04-30 00:42:04.998907600,0.80090771484375,-0.2781234482736038,0.0056644268333911,-0.1326712758270361,0.0084201525896787,-0.0118055755254167,0.9805299350716996,-0.0640383306204575,left,-0.0014391541481018,-0.2836175755798635,-2.584868316657841,-9.05307678103149,-0.1442908751518867,-0.0572894364595413,-0.0144169628620147,2.7442002159580587,0.0009394884109497
2025-04-30 00:42:05.038907600,0.84090771484375,-0.2810817556768309,0.0211401283740997,-0.133998906304248,0.0436194166541099,-0.0121142479610495,0.9802402452320564,-0.0652865727554991,left,-0.0166658163070678,-0.2848710827475627,-2.610682556872069,-9.042079001677036,-0.1450054337971992,-0.0506050325930118,-0.0016968846321105,2.755999667084217,0.0061560571193695
2025-04-30 00:42:05.078907400,0.880907470703125,-0.2816739573038039,0.0748486444354057,-0.1342278559068936,0.0004480704665184,-0.0111951614644458,0.9798464729064772,-0.0642662228690627,left,0.0277069807052612,-0.2901158446296787,-2.611982825815677,-9.026521951583028,-0.1475071062791641,-0.0983774587512016,0.000290423631668,2.8053222086578606,0.0194800198078155
2025-04-30 00:42:05.118907600,0.92090771484375,-0.2827506913493057,0.0632393732666969,-0.1347541091311054,-0.041044607758522,-0.01022275788803,0.9795215502116996,-0.0629892386992675,left,0.0217360854148864,-0.2938331487212416,-2.6187729243472218,-9.013627398696542,-0.1492454779822969,-0.075256809592247,-0.0011855065822601,2.8402336553022263,0.0144710838794708
2025-04-30 00:42:05.158907600,0.96090771484375,-0.285405131738703,0.064049907028675,-0.1360752693578957,-0.0848954617977142,-0.0091555312700375,0.9791336946885392,-0.0616643657756434,left,0.0198439359664917,-0.2968709163130922,-2.640248550835252,-8.998324031102657,-0.150654155475039,-0.0397909618914127,-0.006818950176239,2.86873406586051,0.0142982006072998
2025-04-30 00:42:05.198907600,1.00090771484375,-0.2880579463484022,0.0648604407906532,-0.1373957688366435,-0.1287463009357452,-0.0080883024558765,0.978741074894186,-0.06034680585819,left,0.0179376602172851,-0.2999121198127108,-2.6616192556440827,-8.982882131820917,-0.152062100526391,-0.004325121641159,-0.0124631226062774,2.89724032163769,0.0141248404979705
2025-04-30 00:42:05.238907600,1.04090771484375,-0.2945652638890931,0.0779602900147438,-0.1409536764992374,-0.0590355843305587,-0.0047836783064832,0.978181437916468,-0.054865682129453,left,-0.0142173171043396,-0.3016388832937314,-2.7185604555279017,-8.96057093129158,-0.1525453441554563,0.0380986407399177,-0.0035420060157775,2.9134137500643726,0.0074315965175628
2025-04-30 00:42:05.278907600,1.08090771484375,-0.2951200221683019,0.0681447014212608,-0.1413985579340581,-0.0411777198314666,-0.0035172343734426,0.9781121832422456,-0.0524367995131453,left,0.0013533234596252,-0.3021245581754219,-2.723119141745568,-8.957706774032115,-0.1526122846554168,0.0264766570180654,-0.0069791376590728,2.9179613303661345,0.0032218396663665
2025-04-30 00:42:05.318907400,1.120907470703125,-0.2954873220824427,0.0613405965268611,-0.141725100032293,-0.0339067280292511,-0.0024608206391023,0.978061351191709,-0.0503926067276618,left,0.0016307234764099,-0.3025090116051896,-2.7260823754653334,-8.955631721323728,-0.1526559372033561,0.007038066163659,-0.0056535303592681,2.92156052390188,0.0037131905555725
2025-04-30 00:42:05.358907600,1.16090771484375,-0.2958537610332896,0.0545364879071712,-0.1420514476797294,-0.0266357362270355,-0.0014043556135529,0.97800925296757,-0.0483482044521445,left,0.0019078850746154,-0.3028941352813917,-2.72903538005203,-8.95355549957156,-0.152699383359313,-0.0124005246907472,-0.0043290555477142,2.9251655626565216,0.0042040348052978
2025-04-30 00:42:05.398907600,1.20090771484375,-0.296621094088253,0.0364633835852146,-0.1425651114307364,0.0009567011147737,1.22258121998e-05,0.9777978350707603,-0.0459006140444213,left,-0.0038704276084899,-0.3050509562396419,-2.7340546695187684,-8.945404341819883,-0.1535789314275706,-0.0180614460259675,-0.0035453140735626,2.9453470576807854,-0.0017237961292266
2025-04-30 00:42:05.438907600,1.24090771484375,-0.2962550295070419,0.0325382128357887,-0.1424260728249185,0.0059406105428934,0.0004172467331615,0.977763068612871,-0.0451408484133249,left,-0.0021792650222778,-0.3058775314751026,-2.7300682302311063,-8.944073385477065,-0.1539285161398437,-0.0190068054944276,-0.0031465590000152,2.9530776519328352,-0.0004126727581024
2025-04-30 00:42:05.478907600,1.28090771484375,-0.2958881585148584,0.0286130420863628,-0.1422869821029898,0.010924519971013,0.0008222998944906,0.97772792186325,-0.0443804958924715,left,-0.0004885792732238,-0.306703812329851,-2.726074192158878,-8.942737168437242,-0.1542780475339027,-0.0199521649628877,-0.0027485489845275,2.960803570009768,0.0008989572525024
2025-04-30 00:42:05.518907600,1.32090771484375,-0.2944093685356099,0.0232313759624958,-0.1416616874483991,0.0225263051688671,0.0013713671658523,0.9778168930391516,-0.0430555284885445,left,0.0043515563011169,-0.3069109180531806,-2.7126687671408054,-8.94617181906104,-0.1542859460495971,0.0153120011091232,0.0015901625156402,2.9627397987693547,-0.0072190761566162
2025-04-30 00:42:05.558907400,1.360907470703125,-0.2942419171109782,0.0207412652671337,-0.1416654177944673,-0.001883516088128,0.001714493647554,0.9778935711333344,-0.0421930359645688,left,0.0041724443435668,-0.3060239821592869,-2.7119316850379107,-8.949137098607421,-0.1537917723498864,0.0327687114477157,-0.0003013908863067,2.954447186720371,-0.0056029260158538
2025-04-30 00:42:05.598907600,1.40090771484375,-0.2940753764836583,0.0182511564344167,-0.1416691081146284,-0.0262933354824781,0.0020575703028541,0.9779699553990632,-0.0413310488684394,left,0.0039924979209899,-0.305136940701292,-2.711199863632024,-8.952093025803565,-0.1532975542393186,0.0502254180610179,-0.0021924078464508,2.9461513598009943,-0.0039864778518676
2025-04-30 00:42:05.638907600,1.44090771484375,-0.2951137112077059,0.033995334059,-0.1423701519338464,-0.0243421979248523,0.0030192789921051,0.9780189019707493,-0.0392686027700455,left,-0.0033963918685913,-0.3034329013446867,-2.721949805705249,-8.954063449093699,-0.1523172628855397,0.0155084887519478,-0.0013872385025024,2.930207940737903,0.0028088092803955
2025-04-30 00:42:05.678907600,1.48090771484375,-0.2953273643507684,0.0358367711305618,-0.1425115592682318,-0.0185271315276622,0.0032875832167749,0.977997525649594,-0.0387641766522943,left,-0.0026330947875976,-0.3035052466488507,-2.7238012787908312,-8.953279020717739,-0.152316355259683,0.0041211079806089,-0.0011033117771148,2.9308851093471047,0.0029654502868652
2025-04-30 00:42:05.718907600,1.52090771484375,-0.2955410167769781,0.0376782082021236,-0.1426529564358542,-0.0127120660617947,0.0035558874414447,0.9779761493284386,-0.0382597560523758,left,-0.0018699169158935,-0.3035777302197184,-2.725652167354524,-8.952493423298002,-0.1523154366999858,-0.0072662727907299,-0.0008194148540496,2.931563447000086,0.0031219720840454
2025-04-30 00:42:05.758907600,1.56090771484375,-0.2949718823008562,0.0359382331371307,-0.1425399856725707,-0.0091010341420769,0.0048830835187244,0.9778987326466494,-0.0356883751028558,left,0.0046400427818298,-0.3051073194536927,-2.719249899096787,-8.949742663285136,-0.1528805900457486,0.0009881621226668,3.33189964294e-05,2.945874296425283,-0.0018340647220611
2025-04-30 00:42:05.798907400,1.600907470703125,-0.2951102959436551,0.0487210340797901,-0.1428835760924284,-0.0227919369935989,0.0065612984248852,0.977916086121292,-0.0322015328588257,left,0.0017063617706298,-0.3046032336071074,-2.720920170396566,-8.950785450336337,-0.1523851063665584,0.0362155847251415,-0.001782089471817,2.9411586660802365,0.0018214285373687
2025-04-30 00:42:05.838907400,1.640907470703125,-0.2952526346703803,0.0559600815176963,-0.1430900417138286,-0.0170535463839769,0.0073386513477889,0.9779429853799904,-0.0305462653324817,left,-0.0025033354759216,-0.3040230263511742,-2.7226901026785373,-8.95202931291759,-0.1519827726653426,0.0329068973660469,-0.0022341012954711,2.935730211290717,0.0043002068996429
2025-04-30 00:42:05.878907600,1.68090771484375,-0.294789925377264,0.0578579418361187,-0.1430113365807184,0.0036430526524782,0.0082695204845069,0.9779620852960008,-0.0285835135136514,left,-0.0007634758949279,-0.3041081616835387,-2.718475115332008,-8.953048719093204,-0.1518858004572383,0.0100329425185918,-0.0009332299232482,2.93652691462636,0.0023118257522583
2025-04-30 00:42:05.918907600,1.72090771484375,-0.2926474810038136,0.0394497811794281,-0.1422003888877372,0.0241755899041891,0.0099126664811035,0.9779862561970352,-0.025118261059657,left,0.0032644867897033,-0.3056310694404694,-2.697994052839279,-8.954560292699933,-0.1523926778574165,-0.0102097997441887,0.0037358403205871,2.950772882121801,-0.0012508034706115
2025-04-30 00:42:05.958907600,1.76090771484375,-0.2919149160666183,0.0310484115034341,-0.1419003414704125,0.0212954264134168,0.0103326550864358,0.9779919112995856,-0.0242289871931907,left,-0.0024623274803161,-0.3061935687780012,-2.690955532504618,-8.954943154537677,-0.1526081274097541,-0.0134483575820922,0.003626137971878,2.956032994607091,-0.000457614660263
2025-04-30 00:42:05.998907600,1.80090771484375,-0.2913498451138507,0.0195033140480518,-0.1416543467091169,0.0073132533580064,0.0106040184994186,0.977979519828495,-0.0236845635932445,left,0.0037567615509033,-0.3068579956413962,-2.6853300938382745,-8.954579581922292,-0.1528972144367327,-0.0177232231944799,0.0026735067367553,2.9622450009897348,0.0001693367958068
2025-04-30 00:42:06.038907600,1.84090771484375,-0.2907841945881652,0.0079582193866372,-0.1414083011140042,-0.0066689187660813,0.0108754163510231,0.977966832330696,-0.0231395448711761,left,0.0099753141403198,-0.3075220689335858,-2.679699978996813,-8.95421016408801,-0.1531862467945086,-0.0219980869442224,0.0017203986644744,2.9684526234582065,0.0007967352867126
2025-04-30 00:42:06.078907400,1.880907470703125,-0.2922238260522355,0.0288845263421535,-0.1421345800053748,-0.0392060428857803,0.0114823053988925,0.9777122835456388,-0.0224177817176242,left,0.0072705745697021,-0.3094970022546855,-2.690893865445256,-8.944711683380604,-0.154092116870425,-0.0211442802101373,-0.0022270083427429,2.986905687254667,0.0087405741214752
2025-04-30 00:42:06.118907600,1.92090771484375,-0.2931476137702125,0.0405139923095703,-0.1426585757918188,-0.0405758060514926,0.0121679485912111,0.977573984558034,-0.0212909549821748,left,0.0050932765007019,-0.3103695013271993,-2.6984017568573355,-8.939723958095907,-0.1544326999619766,-0.0080964779481291,-0.0043411552906036,2.9950542146578427,0.0034471452236175
2025-04-30 00:42:06.158907600,1.96090771484375,-0.2941980447729795,0.037279974669218,-0.1432639296175598,-0.0465989187359809,0.0128913777001961,0.9774651402102468,-0.0200279303390379,left,0.0036787986755371,-0.3107115136492622,-2.7074934103295205,-8.935903523024916,-0.1545029107542801,0.0073969820514321,-0.0050255954265594,2.9982477500021454,0.001467615365982
2025-04-30 00:42:06.198907600,2.00090771484375,-0.2952480263065294,0.0340459533035755,-0.1438691309418491,-0.0526220314204692,0.0136148646951532,0.9773552824839268,-0.0187649905367794,left,0.0022631287574768,-0.3110547187623146,-2.716574834668636,-8.93207081299424,-0.1545729575389748,0.0228904411196708,-0.0057110786437988,3.0014520990014075,-0.0005130171775817
2025-04-30 00:42:06.238907600,2.04090771484375,-0.2974160303082021,0.0412119440734386,-0.1451232152988401,-0.0400376766920089,0.0150611513870176,0.9771593217084332,-0.0161891947811011,left,-0.000997245311737,-0.3113286081408773,-2.735692207592725,-8.925373945704102,-0.1545051010727875,0.0009754844941198,-0.0060994923114776,3.0040090900078416,-0.0008754730224609
2025-04-30 00:42:06.278907600,2.08090771484375,-0.2978917696948734,0.0377027951180934,-0.1453921877070294,-0.0304934419691562,0.0153500631617486,0.9771117316277316,-0.0156916208776342,left,-0.0028969645500183,-0.311451336734229,-2.739830038049817,-8.923719164234399,-0.1545252723222016,-0.0057117599062621,-0.0054712295532226,3.005154752911627,-0.001082420349121
2025-04-30 00:42:06.318907400,2.120907470703125,-0.2983673702157568,0.0341936461627483,-0.1456611194481648,-0.0209492091089487,0.0156390093751012,0.9770638455203218,-0.0151940057662177,left,-0.0047969222068786,-0.3115742159919322,-2.7439652381584048,-8.922062044677137,-0.1545453998362535,-0.0123990047723054,-0.0048432350158691,3.006301877120137,-0.0012895166873931
2025-04-30 00:42:06.358907600,2.16090771484375,-0.2999548640822534,-0.0131320599466562,-0.1464245609966624,-0.0067679481580853,0.0158932222065909,0.9768546292724288,-0.0151095586610892,left,-0.0061460137367248,-0.3127882513148299,-2.7570450844839214,-8.914201394304632,-0.1551195373733764,-0.0271454900503158,-0.0008262991905212,3.0176319571688768,-0.003953605890274
2025-04-30 00:42:06.398907600,2.20090771484375,-0.3000753458894378,-0.0258467011153697,-0.1461569977547118,0.0384956635534763,0.0143765842954572,0.9766439255973112,-0.0186892808259115,left,-0.0003989934921264,-0.31577288986449,-2.755444371289015,-8.905225476166606,-0.1568374894251084,-0.0556129664182662,0.0063520669937133,3.0454677663385867,0.0042400360107421
2025-04-30 00:42:06.438907600,2.24090771484375,-0.2990292524720392,6.4987689256e-06,-0.1455590497164912,0.0057250298559665,0.0139249823838297,0.9766514905950654,-0.0195943470681128,left,0.0169668197631835,-0.3167477028799738,-2.74525147857666,-8.905261716523766,-0.1573866908225947,-0.001737106591463,-0.0009833872318267,3.05455328233093,0.00200617313385
2025-04-30 00:42:06.478907600,2.28090771484375,-0.2991781168835806,0.0329146459698677,-0.1457195616629725,-0.0247233398258686,0.0143462533030984,0.9766933708633264,-0.018638162164549,left,0.0070618987083435,-0.3159756075976729,-2.747271293966472,-8.907103544998169,-0.1569391568879442,0.0334086306393146,0.000122845172882,3.0473572333469985,0.0096988976001739
2025-04-30 00:42:06.518907600,2.32090771484375,-0.2993664561712353,0.0609727576375007,-0.1459876089316029,-0.0168634671717882,0.0154787532304938,0.9766532866012688,-0.0163681174438096,left,0.0032353997230529,-0.3160992724191282,-2.748837812630832,-8.906226177641749,-0.1568325525125293,-0.0055600516498088,-0.0029220283031463,3.0485099105134603,0.0138920545578002
2025-04-30 00:42:06.558907400,2.360907470703125,-0.2996905608994136,0.0537242852151393,-0.1462749632045468,-0.0168318524956703,0.0166651299404308,0.9764497713986706,-0.0143108370112901,left,9.44137573242e-05,-0.3182048063264059,-2.7498230242758988,-8.899182104349135,-0.1577073494806546,-0.0476491563022136,-0.003547191619873,3.068128510957956,0.0053426921367645
2025-04-30 00:42:06.598907600,2.40090771484375,-0.2996907820369773,0.0131732523441314,-0.1462949789088713,0.0129831004887819,0.0172606168401009,0.9762235994181016,-0.0135179565982446,left,-0.000492513179779,-0.3210121492634611,-2.747271293966472,-8.890916964828968,-0.1590193498113634,-0.0528657473623752,0.0001372098922729,3.094264822733402,-0.0018615424633026
2025-04-30 00:42:06.638907600,2.44090771484375,-0.3000663332054088,-0.0258156210184097,-0.1463798868355175,-0.0082652792334556,0.016972430386825,0.9760711157504928,-0.0144265362154793,left,0.0070146918296813,-0.3226994448974723,-2.749062853558361,-8.884884698927403,-0.1599058563310745,-0.0251859948039054,-0.0025123059749603,3.1099618658199906,-0.0040708184242248
2025-04-30 00:42:06.678907600,2.48090771484375,-0.3002828850142848,-0.0276592131704092,-0.1464012312765689,0.0186599530279636,0.0163857406671306,0.9761060259038676,-0.0155845007904295,left,-0.0057653784751892,-0.3221770323915408,-2.7514669920906423,-8.88583980769515,-0.1597339511812597,0.0229779221117496,-0.0028703808784484,3.105102735351026,-0.0027521252632141
2025-04-30 00:42:06.718907600,2.52090771484375,-0.3000589578194332,-0.0235936269164085,-0.1462521239660499,0.006080275401473,0.0158137065263353,0.9762712112460126,-0.0164442539250943,left,0.0038648843765258,-0.3203692231418043,-2.751131768786907,-8.891803684535622,-0.1589166201670765,0.0400110334157943,-0.0061041414737701,3.0882813644096254,0.0017942786216735
2025-04-30 00:42:06.758907600,2.56090771484375,-0.3000278344868585,-0.0031366068869829,-0.1462473660552774,0.0055404203012585,0.0156023874903163,0.9763986119949988,-0.0166306444553932,left,-0.0013955235481262,-0.3187856568538772,-2.752297013173997,-8.896550586801768,-0.1581577500712526,0.0279983039945364,-0.0048547089099884,3.073538261047005,0.0063671767711639
2025-04-30 00:42:06.798907400,2.600907470703125,-0.2996276020155839,0.0082781352102756,-0.1461132133187331,0.0146664502099156,0.0157548771934624,0.976511462582554,-0.0160813365592013,left,0.0021533966064453,-0.3176547601844632,-2.7497604804337024,-8.900966649678349,-0.1575688218756873,0.0363353118300437,-0.0036461949348449,3.0630045920729634,-0.0025391280651092
2025-04-30 00:42:06.838907400,2.640907470703125,-0.2988897247019189,-0.0068766428157687,-0.1458227921500915,0.0072264433838427,0.0159024927317611,0.9766637345498108,-0.0154574238991245,left,0.0029684901237487,-0.31632037262601,-2.7443928159207105,-8.906891363552212,-0.1568777992287386,0.0408001169562339,-0.0009741187095642,3.0505706424355505,-0.0067138969898223
2025-04-30 00:42:06.878907600,2.68090771484375,-0.2982222428942224,-0.0104160234332084,-0.1455234696902468,0.0153625458478927,0.0157965518787519,0.9768111954597192,-0.0153717255020651,left,0.0022531151771545,-0.3150298332423109,-2.739601489990949,-8.912476470208167,-0.1562468262905976,0.0192389525473117,-0.0001205503940582,3.0385403051629662,-0.0024924576282501
2025-04-30 00:42:06.918907600,2.72090771484375,-0.298055020136782,-0.0030631413683295,-0.1454182797504688,0.0105077875778079,0.0155621844895316,0.9768599344516172,-0.0157589272930709,left,-0.002359390258789,-0.3145944636792966,-2.738499373967945,-8.914198471695185,-0.1560637305043517,-0.0105341635644435,0.0011893808841705,3.034480508378148,0.0021202862262725
2025-04-30 00:42:06.958907600,2.76090771484375,-0.298055020136782,0.0040489705279469,-0.1454182797504688,-0.0034269206225872,0.0155621844895316,0.9768599344516172,-0.0157589272930709,left,0.0093057751655578,-0.3145944636792966,-2.738499373967945,-8.914198471695185,-0.1560637305043517,-0.0164304208010435,-0.0007919371128082,3.034480508378148,0.001637727022171
2025-04-30 00:42:06.998907600,2.80090771484375,-0.2981390256596124,0.0132037866860628,-0.1454319465542086,-0.008406420238316,0.0156398870470066,0.97674516838472,-0.0158277881741845,left,0.0005766153335571,-0.3160113553730011,-2.737982364356517,-8.909849628835916,-0.1567598372234578,-0.0292803570628166,0.0003053247928619,3.04769041082412,0.004035860300064
2025-04-30 00:42:07.038907600,2.84090771484375,-0.2981243660593802,0.0091783413663506,-0.1454151286230308,-0.0023596240207552,0.0158007643190229,0.9766445910468932,-0.0156929618084147,left,0.0017853379249572,-0.3173122877473293,-2.7366850180223583,-8.90609232212901,-0.1573852035370241,-0.0253938660025596,-0.0013090372085571,3.0598139793381094,8.94367694854e-05
2025-04-30 00:42:07.078907400,2.880907470703125,-0.2984032821652775,0.0050898320041596,-0.1455380620999259,-0.010503901168704,0.0159386430974338,0.9765335252874,-0.0156316065091276,left,0.0050702691078186,-0.318474057094397,-2.738122065088153,-8.901924681055545,-0.1579456052690885,-0.0273238569498062,-0.0049746930599212,3.0706361098647115,0.0022941529750823
2025-04-30 00:42:07.118907600,2.92090771484375,-0.2987577569689629,0.0041313474066555,-0.1456686961959244,0.0023413673043251,0.0159591890443964,0.9763934357727684,-0.0158728978214628,left,0.0033175945281982,-0.3199636878948387,-2.739927945466339,-8.896572214111686,-0.1586873548091155,-0.0439175963401794,-0.0052188038825988,3.0845065220460293,0.0044611096382141
2025-04-30 00:42:07.158907600,2.96090771484375,-0.2985142308332889,-0.0048380042426288,-0.145472425845965,0.0250158701092004,0.0157626236018193,0.976279922076334,-0.0164995921557335,left,-0.0004297494888305,-0.3217020055013095,-2.7361802833706137,-8.892101206177472,-0.1595831517610433,-0.0461030043661594,-0.0038263499736785,3.1006837498649955,0.0041730105876922
2025-04-30 00:42:07.198907600,3.00090771484375,-0.297653508791447,-0.01593853905797,-0.144946962524779,0.0354648455977439,0.0153204021916489,0.976226867543406,-0.0175016853063783,left,-0.0010841488838195,-0.3232676321792905,-2.7270985667705534,-8.889801112541555,-0.1604265088398749,-0.0359553396701812,-0.0021418631076812,3.1152456514418123,0.0029610395431518
2025-04-30 00:42:07.238907600,3.04090771484375,-0.2966056626440354,-0.0275082979351282,-0.1443115312211383,0.0406652949750423,0.0146533712499905,0.9762349931797002,-0.0188442361849168,left,-0.0010499358177185,-0.3242503857645042,-2.7168858003139493,-8.88972161756456,-0.1610109374517965,-0.0280357263982296,0.0028667151927948,3.124382605360448,0.0032262504100799
2025-04-30 00:42:07.278907600,3.08090771484375,-0.2957617620215348,-0.0320198088884353,-0.1437799075179677,0.0210413262248039,0.0139213588023373,0.9762782478334848,-0.0202572504085348,left,0.006682276725769,-0.3245999181284994,-2.7090643129080534,-8.890966064667701,-0.1612892634719785,-0.0068651586771011,0.0034298002719879,3.1276316702842712,0.0018723011016845
2025-04-30 00:42:07.318907400,3.120907470703125,-0.2956922966605992,-0.0304500460624694,-0.1436324942708939,0.0106420274823904,0.0131774862358379,0.9763161622865408,-0.0217259732769986,left,-5.58495521545e-05,-0.3243100549390191,-2.708710969425738,-8.892021126678586,-0.1612538359507052,0.0050719631835818,0.0054156482219696,3.1249373166337606,0.0037612617015838
2025-04-30 00:42:07.358907600,3.16090771484375,-0.2958519719121398,-0.0150440968573093,-0.1436437727373497,-0.0155226774513721,0.0127280700957921,0.976336402939084,-0.0226235217499668,left,0.009271502494812,-0.3239820544719579,-2.710429171520472,-8.892568239167332,-0.1611572337182047,0.0064940061420202,7.17341899871e-05,3.1218881581962106,0.0037828087806701
2025-04-30 00:42:07.398907600,3.20090771484375,-0.2958519719121398,0.0138521138578653,-0.1436437727373497,0.008929256349802,0.0127280700957921,0.976336402939084,-0.0226235217499668,left,-0.0099101066589355,-0.3239820544719579,-2.710429171520472,-8.892568239167332,-0.1611572337182047,0.012814899906516,0.0011492371559143,3.1218881581962106,0.0042921006679534
2025-04-30 00:42:07.438907600,3.24090771484375,-0.2948826825085958,0.0194473080337047,-0.1432795755427636,0.0166358835995197,0.0132614223056435,0.9764193334176252,-0.0213293782784488,left,0.0045854449272155,-0.3237045829369734,-2.702060279364884,-8.89601984092593,-0.1609353290581483,0.0090750884264707,-0.0001475811004638,3.119308663097024,0.0024665296077728
2025-04-30 00:42:07.478907600,3.28090771484375,-0.2942750264820414,0.0132025219500064,-0.1430348325977025,0.01498335134238,0.0135912202262189,0.9764295337410202,-0.020607953591595,left,-0.0001587271690368,-0.3240665434794627,-2.696326411888004,-8.896579228374362,-0.1610643725090322,-0.0116138625890016,0.0010648071765899,3.1226737556159496,0.0031647980213165
2025-04-30 00:42:07.518907600,3.32090771484375,-0.2942750264820414,0.0014427788555622,-0.1430348325977025,0.0120122581720352,0.0135912202262189,0.9764295337410202,-0.020607953591595,left,0.0056309103965759,-0.3240665434794627,-2.696326411888004,-8.896579228374362,-0.1610643725090322,-0.0051832874305546,0.0012602806091308,3.1226737556159496,0.0025500059127807
2025-04-30 00:42:07.558907400,3.360907470703125,-0.2942750264820414,0.0071968673728406,-0.1430348325977025,-0.0096217636018991,0.0135912202262189,0.9764295337410202,-0.020607953591595,left,0.0057032108306884,-0.3240665434794627,-2.696326411888004,-8.896579228374362,-0.1610643725090322,-0.0072233029641211,-0.0010474324226379,3.1226737556159496,0.0101023912429809
2025-04-30 00:42:07.598907600,3.40090771484375,-0.2941119389342688,0.0226322747766971,-0.1429949454146348,-0.0033263522200286,0.0140170633794054,0.9763460760113696,-0.0198789872567992,left,-0.0008497238159179,-0.325203167013127,-2.693844824205339,-8.89361628691554,-0.1615680033746173,0.0022248257882893,-0.0035610496997833,3.133237819728255,0.0067692101001739
2025-04-30 00:42:07.638907600,3.44090771484375,-0.2942386781537063,0.0272818487137556,-0.1431520304582745,-0.0180541519075632,0.01464963064104,0.9763065539760803,-0.018644836278643,left,0.0038990378379821,-0.3254749002275632,-2.694724821910262,-8.892459518095851,-0.1616114013319903,0.0180707853287458,-0.0028626322746276,3.135762954291701,0.0008879303932189
2025-04-30 00:42:07.678907600,3.48090771484375,-0.2940492479130851,0.0183732211589813,-0.1431594281593315,0.001832952722907,0.0152405138457487,0.9763095638148556,-0.0174054337816034,left,0.0019638538360595,-0.3254908666029894,-2.693025909037888,-8.892921874910593,-0.1615318965718322,0.0061556985601782,-0.0028054118156433,3.135911130590737,-0.001022845506668
2025-04-30 00:42:07.718907600,3.52090771484375,-0.2941272704006657,-0.0114221833646297,-0.1431936000797577,0.005717565305531,0.0152822279485085,0.9762762644570272,-0.0173847113026432,left,0.0017061829566955,-0.3258374484098459,-2.69340438696146,-8.891670998066664,-0.161698926528036,-0.0119255473837256,0.0011369287967681,3.13913126168102,-0.0005950033664703
2025-04-30 00:42:07.758907600,3.56090771484375,-0.2943651208618246,-0.012467797845602,-0.1432443491301236,-0.0098520908504724,0.0149478188886572,0.97624607354142,-0.0181448104470019,left,0.0032238960266113,-0.3260754307276242,-2.6953023295372724,-8.89031490728259,-0.1618676689784791,-0.004769779741764,0.0006321668624877,3.14134221572876,0.002997487783432
2025-04-30 00:42:07.798907400,3.600907470703125,-0.2952679892803042,0.0009480882436037,-0.1436684160984944,-0.0303037967532873,0.014864143705413,0.976209468116151,-0.0184167156078588,left,0.004600167274475,-0.3257476628913033,-2.703627674812078,-8.88886237038672,-0.1617205190961514,0.0133807584643363,2.7120113372e-06,3.1382971489444373,0.0022923946380615
2025-04-30 00:42:07.838907400,3.640907470703125,-0.2964272462186146,0.0208536833524703,-0.1442988674589366,-0.026435999199748,0.015260589377046,0.9761611386537604,-0.0177197946960904,left,-0.0027638673782348,-0.3252388246536858,-2.7143963215857743,-8.887248505449294,-0.1614133748512226,0.016193313524127,0.0001987218856811,3.133569243639708,0.0047137439250946
2025-04-30 00:42:07.878907600,3.68090771484375,-0.2965206487714446,0.0257713347673416,-0.1444424262334763,-0.0005887728184461,0.0158377659567389,0.9761559051802424,-0.01653231863228,left,-0.002404510974884,-0.3251036889366325,-2.715349969048798,-8.887399312096834,-0.1612609997459819,0.0097929509356617,-0.0015094578266143,3.132313398359716,0.0004169344902038
2025-04-30 00:42:07.918907600,3.72090771484375,-0.296230560805814,0.0082965102046728,-0.1443678448673281,0.002658246550709,0.0162064606186252,0.976176727275858,-0.0157168913422549,left,0.0022541880607604,-0.3250231656404692,-2.712845585012436,-8.888428070622682,-0.161165159100103,0.0122087504714727,-0.0012825429439544,3.131565210340917,-0.0047242939472198
2025-04-30 00:42:07.958907600,3.76090771484375,-0.2958923904245455,-0.0149854552000761,-0.1442153686410822,0.0070961988531053,0.0161503247580422,0.9762503295027848,-0.0156824118092678,left,0.0020661354064941,-0.3244000278347351,-2.710408128732442,-8.8912098102957,-0.1608613614733833,0.0119490977376699,-0.0013917386531829,3.125773475196957,-0.0033583641052246
2025-04-30 00:42:07.998907600,3.80090771484375,-0.2957952508299954,-0.0238109938800334,-0.1441139354508988,0.0157300848513841,0.0157269186812878,0.9763043794708666,-0.016456143160919,left,-0.000948429107666,-0.3238832544443604,-2.710014745500684,-8.893017151978611,-0.1606657578010421,-0.0008459948003292,1.56164169311e-05,3.1209695820465684,-0.0004661381244659
2025-04-30 00:42:08.038907600,3.84090771484375,-0.2954203658361181,-0.0176008529961109,-0.1438575411723878,0.0158847868442535,0.0152334304764721,0.9763467239586096,-0.0173899781138534,left,0.0010814070701599,-0.3237809225388282,-2.7067738638833165,-8.894338171449304,-0.1606859498924073,-0.0112456064671278,0.0002016723155975,3.1200182726711034,0.0011518597602844
2025-04-30 00:42:08.078907400,3.880907470703125,-0.2952797913279227,-0.0201542191207408,-0.1437057658415014,0.0117490123957395,0.0147590293790226,0.976344975847384,-0.0183751701240444,left,0.0002707242965698,-0.3240243101078744,-2.7053023300260306,-8.89399154996872,-0.1608765924512198,-0.0115155605599284,0.0008258521556854,3.12228095690608,-0.0001240670680999
2025-04-30 00:42:08.118907600,3.92090771484375,-0.2952797913279227,-0.0171266254037618,-0.1437057658415014,-0.0101489294320344,0.0147590293790226,0.976344975847384,-0.0183751701240444,left,0.0112088322639465,-0.3240243101078744,-2.7053023300260306,-8.89399154996872,-0.1608765924512198,-0.0046736188232898,0.0004900693893432,3.12228095690608,-0.0012871921062469
2025-04-30 00:42:08.158907600,3.96090771484375,-0.2957143478913495,0.0001028012484312,-0.1438337856573669,0.0069186054170131,0.0142516813883797,0.9763360344470896,-0.0194585369958523,left,-0.0094072222709655,-0.3238412433103232,-2.709333485238254,-8.893361435371636,-0.1608619970270345,0.0090335393324494,0.0012896656990051,3.120579121424257,0.0007110834121704
2025-04-30 00:42:08.198907600,4.00090771484375,-0.2957143478913495,0.0145357605069875,-0.1438337856573669,0.0056360359303653,0.0142516813883797,0.9763360344470896,-0.0194585369958523,left,0.0067492127418518,-0.3238412433103232,-2.709333485238254,-8.893361435371636,-0.1608619970270345,0.0020954380743205,-0.0005163550376892,3.120579121424257,0.0029949247837066
2025-04-30 00:42:08.238907600,4.04090771484375,-0.2953606314811359,0.0182025078684091,-0.1437107726888499,-0.0115663465112447,0.0145787051520384,0.9763320144986628,-0.0187771595966788,left,0.0008854866027832,-0.3241526700222607,-2.7059046798333526,-8.893389492422342,-0.1609675089136601,-0.0084194559603929,0.0003122091293334,3.123474258343875,0.0015307068824768
2025-04-30 00:42:08.278907600,4.08090771484375,-0.295399079799858,0.0165927819907665,-0.1437725386855112,-0.0099171567708253,0.0149421746161458,0.9762786005742932,-0.018125790455395,left,0.0036653280258178,-0.3247307879646334,-2.705720555438101,-8.891556431776285,-0.1612025022196485,-0.0063280994072556,-0.000503271818161,3.128847768075764,0.0003798604011535
2025-04-30 00:42:08.318907400,4.120907470703125,-0.2958750840055716,0.0140096805989742,-0.1440392868562091,-0.0166219342499971,0.0152798120763756,0.9761982028009852,-0.0175924257753023,left,0.0039000511169433,-0.3252608408247652,-2.7094685097947715,-8.888679415035247,-0.1614191532082771,-0.0079590212553739,-0.0010245144367218,3.133773826301097,0.0016259849071502
2025-04-30 00:42:08.358907600,4.16090771484375,-0.2963145957115246,0.0131317926570773,-0.1442883952240598,-0.0119367018342018,0.0155990365342779,0.9761279402863562,-0.017076696112305,left,-0.0004603862762451,-0.3256966199802256,-2.712975933393836,-8.886181168478727,-0.1615911848436739,-0.0098278522491455,-0.0018528699874877,3.1378231016919016,0.0026810467243194
2025-04-30 00:42:08.398907600,4.20090771484375,-0.2968200716485639,0.0038642790168523,-0.1445384840516288,-0.0190768353641033,0.0157705407321581,0.9760387643672486,-0.0169061887015101,left,0.0031946301460266,-0.326341038480654,-2.716875278919935,-8.8828727745831,-0.1618892844646436,-0.0093209752812981,-0.0027507543563842,3.1438097748860714,-5.89191913604e-05
2025-04-30 00:42:08.438907600,4.24090771484375,-0.2972221910883927,-0.004787559621036,-0.1447224247330416,0.0016415826976299,0.0157476579994532,0.9760020065069376,-0.0170362792917205,left,-0.0004127025604248,-0.3264502648089197,-2.7203464621618387,-8.881451217347383,-0.1619488041378513,0.0046346671879291,-0.0024314224720001,3.1448242126256227,-0.0012036561965942
2025-04-30 00:42:08.478907600,4.28090771484375,-0.2972221910883927,-0.0105310473591089,-0.1447224247330416,-0.0085423989221453,0.0157476579994532,0.9760020065069376,-0.0170362792917205,left,0.0027747154235839,-0.3264502648089197,-2.7203464621618387,-8.881451217347383,-0.1619488041378513,0.0119599867612123,-0.0014753937721252,3.1448242126256227,0.0016183257102966
2025-04-30 00:42:08.518907600,4.32090771484375,-0.2978802371910135,-0.004126111511141,-0.1450356804708537,-0.0021645743399858,0.0155646834819444,0.976044218965717,-0.0173540952979765,left,0.0001245737075805,-0.3253519340792261,-2.7272026116669177,-8.882955776691436,-0.1614309073390301,0.0233126357197761,-0.0017789602279663,3.134620213997364,0.0007527768611907
2025-04-30 00:42:08.558907400,4.360907470703125,-0.298305415543813,0.0030374736525118,-0.1452874165042165,-0.0154036125168204,0.0156875155332295,0.9760933366286808,-0.0170146958442805,left,0.0044231414794921,-0.324309807905978,-2.731937531234324,-8.884913340499997,-0.1608945783270841,0.0298556685447692,-0.0032889544963836,3.124934978546202,-0.0013822317123413
2025-04-30 00:42:08.598907600,4.40090771484375,-0.2990223014814523,-0.004609677940607,-0.1456718099479793,-0.0141703449189662,0.0158426782192744,0.9760904693513356,-0.0167158160933406,left,0.0006352663040161,-0.3236576940878703,-2.738906201203167,-8.884898142930865,-0.1605490515599704,0.0065335296094417,-0.0012225210666656,3.1188726097673176,-0.0024415850639343
2025-04-30 00:42:08.638907600,4.44090771484375,-0.2999090343949413,-0.0231061112135648,-0.1460652422862746,-0.0328619331121444,0.0156977606655082,0.976018992154186,-0.0171788113416544,left,0.0099739432334899,-0.3237900932769978,-2.746661637635529,-8.882071395072341,-0.1606404135209727,-0.0072908215224742,-0.0059910714626312,3.120103612866997,-0.0127313435077667
2025-04-30 00:42:08.678907600,4.48090771484375,-0.3020392846503189,-0.0513400398194789,-0.1469594526342579,-0.0332680940628051,0.0150100019290624,0.9758660968560856,-0.0189594227196122,left,0.0003003478050231,-0.3239230466726213,-2.7654528473451734,-8.875803566849232,-0.1608193495786571,-0.0273017864674329,-0.0025675892829895,3.12133958440274,-0.0075198113918304
2025-04-30 00:42:08.718907600,4.52090771484375,-0.303905218686665,-0.055966917425394,-0.1476339922715112,-0.0108650960028171,0.0138519424967916,0.9756957046784266,-0.0217446508712571,left,-0.0019087195396423,-0.3245945559750933,-2.781381945621967,-8.86862622256577,-0.1613384704090558,-0.0492938682436943,-0.0045020580291748,3.127581693662703,0.0014957189559936
2025-04-30 00:42:08.758907600,4.56090771484375,-0.3045271729914051,-0.0338734537363052,-0.147707611658066,0.0290663540363311,0.0127349978195324,0.9755724723226202,-0.0243225265307492,left,-0.0049906969070434,-0.3257876864760902,-2.7857763811886307,-8.86332811615765,-0.1621063709422296,-0.0548533461987972,-0.0011549592018127,3.1386691971272227,0.00966677069664
2025-04-30 00:42:08.798907400,4.600907470703125,-0.3034470356746474,-0.0145652741193771,-0.1470406643459411,0.0547064654529094,0.012008539516234,0.9755748965397596,-0.0258007612354599,left,-0.0042253136634826,-0.3268752411032556,-2.7751795838505027,-8.86306917296052,-0.1627521427876798,-0.0147085152566432,0.0007276535034179,3.148771488946676,0.0024072229862213
2025-04-30 00:42:08.838907400,4.640907470703125,-0.3017514168355617,-0.0125341610983014,-0.1461897344846073,0.0219659879803657,0.0116860184942781,0.975719195774695,-0.0261442782952174,left,0.0109708309173583,-0.3266498929955566,-2.76035786229372,-8.868439760082959,-0.1626775010339971,0.0199145078659057,0.0013739168643951,3.146678608320653,-0.0031483173370361
2025-04-30 00:42:08.878907600,4.68090771484375,-0.3010907304418033,-0.0093482192605733,-0.1458666866003551,0.0284463949501514,0.0114920880839237,0.9758262849826124,-0.0263195631166242,left,-0.0105743408203125,-0.3259214001937471,-2.755177244785428,-8.87244841120243,-0.1623389300981315,0.0091819250956177,0.005215585231781,3.139911306142807,0.0003202557563781
2025-04-30 00:42:08.918907600,4.72090771484375,-0.2997518814494011,-0.0122863566502928,-0.1451794214939309,0.0228834953159093,0.0112227624443927,0.9759070930621456,-0.0266846892542786,left,0.0104985833168029,-0.326155730030655,-2.74307851845175,-8.875425965708494,-0.1624873795365199,-0.0169573277235031,0.0021700263023376,3.1420883579209447,-0.0028739869594573
2025-04-30 00:42:08.958907600,4.76090771484375,-0.300444242581397,-0.0347133949398994,-0.1454141290300997,-0.0231028776615858,0.0107488163438784,0.9758258170839896,-0.0278437154810007,left,0.0050984621047973,-0.3266271511297328,-2.748784328877926,-8.872108803984522,-0.1627976367946459,-0.0253392532467842,-0.0012897551059722,3.1464673036575315,-0.003591775894165
2025-04-30 00:42:08.998907600,4.80090771484375,-0.3015465439282896,-0.0363282784819603,-0.145770566156547,-0.0070512108504772,0.0099598743595519,0.9756698274732788,-0.0298117396926039,left,0.0015684366226196,-0.3277094425506468,-2.757549234613776,-8.865816425842047,-0.1634628302791679,-0.0525161623954772,-0.002320259809494,3.1565178652897474,0.0013547837734222
2025-04-30 00:42:09.038907600,4.84090771484375,-0.3025462401501393,-0.030339216813445,-0.1460516807278294,-0.0019371500238776,0.0091260242294157,0.9754780340393862,-0.0319396537588288,left,-0.0003999471664428,-0.3293287327884386,-2.764884399807453,-8.858164449784159,-0.1644025568404929,-0.0535528659820556,-0.004209816455841,3.171548553422093,0.0014984011650085
2025-04-30 00:42:09.078907400,4.880907470703125,-0.302826291693628,-0.0138224102556705,-0.1460304667939575,0.0157385133206844,0.0084821902936497,0.9753555715893176,-0.0335184039577459,left,-0.0018494129180908,-0.3306905171214617,-2.7660744863748548,-8.853259142085909,-0.1651802186271418,-0.0385127775371074,-0.0021421015262603,3.184182409545779,0.0080479979515075
2025-04-30 00:42:09.118907600,4.92090771484375,-0.302843012253726,0.0073042511940002,-0.1459719737422612,0.0023410497233271,0.0083083170690373,0.9752682804257536,-0.0340488385105326,left,0.00286066532135,-0.3317916561469143,-2.765175199447572,-8.849860731819271,-0.1657553790997758,-0.020230259746313,-0.0013092458248138,3.194394006958604,0.0052863657474517
2025-04-30 00:42:09.158907600,4.96090771484375,-0.302843012253726,0.0125015173107385,-0.1459719737422612,0.0086998352780938,0.0083083170690373,0.9752682804257536,-0.0340488385105326,left,0.0022186040878295,-0.3317916561469143,-2.765175199447572,-8.849860731819271,-0.1657553790997758,0.0044685043394565,-0.0003040730953216,3.194394006958604,0.0008303821086883
2025-04-30 00:42:09.198907600,5.00090771484375,-0.302843012253726,0.0002307258546352,-0.1459719737422612,-0.0050436221063137,0.0083083170690373,0.9752682804257536,-0.0340488385105326,left,0.0019007921218872,-0.3317916561469143,-2.765175199447572,-8.849860731819271,-0.1657553790997758,0.0093187484890222,0.002754122018814,3.194394006958604,0.0008202791213989
2025-04-30 00:42:09.238907600,5.04090771484375,-0.302828096107898,-0.0125404689460992,-0.1460027920029354,-0.0100954417139291,0.0085229415526922,0.9752708185423038,-0.0335996622207443,left,0.0008876323699951,-0.3317497428076183,-2.7650831372499463,-8.850029658645392,-0.1657022386095386,0.0075615439563989,0.000558465719223,3.194005299901962,0.0007110834121704
2025-04-30 00:42:09.278907600,5.08090771484375,-0.3034563870515397,-0.0076468656770884,-0.1462924135840622,-0.017638387158513,0.0084174182869757,0.9752500454260916,-0.0338763914244574,left,0.0027272105216979,-0.3314514877313302,-2.7709274793639778,-8.849199637562036,-0.1655744842351132,0.0055649089626967,-0.0005881190299987,3.19123963458091,0.0045751631259918
2025-04-30 00:42:09.318907400,5.120907470703125,-0.3041828447973421,0.0063864248804748,-0.1466620248335729,-0.0187298581004142,0.0085168202278105,0.9752171805565736,-0.0337554044510373,left,0.0024719834327697,-0.3311921666238019,-2.777603011605144,-8.847973895159363,-0.1654362003629949,0.0082271322607994,-0.0012389421463012,3.18883491152674,0.0035736858844757
2025-04-30 00:42:09.358907600,5.16090771484375,-0.3047660095757943,0.0081837940961122,-0.1469998117502005,-0.0123965069651603,0.0088454069148547,0.9751857993856542,-0.0331530110362189,left,0.0031158328056335,-0.3310166849110852,-2.782930344107747,-8.846886099922656,-0.1653039562472514,0.0144123062491416,-0.0019457936286926,3.187207602585852,-0.0006151497364044
2025-04-30 00:42:09.398907600,5.20090771484375,-0.3050974879463607,-0.0105399247258901,-0.1471985781759406,-0.0036945305764675,0.0089976379165648,0.9751982287769128,-0.0328222169118642,left,-0.0014111399650573,-0.3305386872207083,-2.78631998654604,-8.847415092232822,-0.165045276826487,0.0143690081313252,-0.0035749077796936,3.18277400405258,-0.0056374967098236
2025-04-30 00:42:09.438907600,5.24090771484375,-0.3050974879463607,-0.0251319333910942,-0.1471985781759406,0.0259819477796554,0.0089976379165648,0.9751982287769128,-0.0328222169118642,left,-0.0072931051254272,-0.3305386872207083,-2.78631998654604,-8.847415092232822,-0.165045276826487,-0.0052569946274161,-0.0002430975437164,3.18277400405258,-0.0014664828777313
2025-04-30 00:42:09.478907600,5.28090771484375,-0.3040986375058978,-0.0265264324843883,-0.1465484517594034,0.042252879589796,0.0079299524687285,0.9752889020700126,-0.0348254190990177,left,-0.0037113428115844,-0.3304280565929922,-2.777586937253177,-8.850529424861072,-0.165142714717644,-0.0275145508348941,0.0028252005577087,3.181747875875234,-0.0006139576435089
2025-04-30 00:42:09.518907600,5.32090771484375,-0.3028640014746209,-0.0254758298397064,-0.1457894860827874,0.0374762751162052,0.0070757256849416,0.9753164146051834,-0.0365020647888283,left,0.0033360719680786,-0.3312901281293622,-2.7658383395314217,-8.851330804371834,-0.1656898912800576,-0.047909639775753,0.0055363178253173,3.1897435508042573,0.0041796565055847
2025-04-30 00:42:09.558907400,5.360907470703125,-0.3019759612543532,-0.0262521635740995,-0.1451767313600434,0.0297166500240564,0.0062607714948712,0.9752622904337834,-0.0382630738372775,left,0.0066946744918823,-0.3328410884065303,-2.756502355909348,-8.849049415436387,-0.1665765576172585,-0.0451626516878604,0.0024243593215942,3.204122204768657,-0.0021114349365234
2025-04-30 00:42:09.598907600,5.40090771484375,-0.3025341806414103,-0.0346534326672554,-0.1452871696411824,-0.0126461256295442,0.0054762061962037,0.9751819502980876,-0.0400547089044891,left,0.0014452338218688,-0.3334017227450909,-2.760906143826246,-8.845793628510831,-0.1669781090512644,-0.0074810869991779,-0.0049626231193542,3.2093180198460813,0.001417338848114
2025-04-30 00:42:09.638907600,5.44090771484375,-0.3026187741853351,-0.0133722238242626,-0.1453210862485411,0.0046386737376451,0.0051824283237218,0.975277351622279,-0.0404769794711579,left,-0.0073188543319702,-0.3321518819435179,-2.76284763328284,-8.849382008391618,-0.1663997504084307,0.0668278485536575,-0.0097485184669494,3.197733672775328,-0.0122285783290863
2025-04-30 00:42:09.678907600,5.48090771484375,-0.3019938688376024,0.0054626930505037,-0.1452153058304208,-0.0156535916030406,0.0054749629492126,0.9756401483342342,-0.0391450171282293,left,0.012359619140625,-0.3281260161393408,-2.7611235859692096,-8.863325778070092,-0.1643431218308892,0.1329641044139862,-0.0149416029453277,3.160385354372859,-0.009171575307846
2025-04-30 00:42:09.718907600,5.52090771484375,-0.3026384927501229,0.0451191142201423,-0.1458289762401924,-0.0409570187330246,0.0064355088900741,0.9759257338123144,-0.0366134970211482,left,0.0074530839920043,-0.3238098424319057,-2.770876041437685,-8.87448254737854,-0.1620531808866397,0.0996171087026596,-0.0106041431427001,3.12028715274036,0.0079909563064575
2025-04-30 00:42:09.758907600,5.56090771484375,-0.3032207512605371,0.0669432953000068,-0.1463995573532705,-0.0226836781948804,0.0078826661970076,0.9760007202663942,-0.0334883873561634,left,0.001891016960144,-0.3221634698055959,-2.777573200988769,-8.877758208048343,-0.1610200795905191,0.0173412337899208,-0.0026844143867492,3.1049767708837983,0.0123703479766845
2025-04-30 00:42:09.798907400,5.600907470703125,-0.3033626650645365,0.0404636487364769,-0.1466003829820849,-0.0004338920116424,0.0090134199560482,0.9758532970179576,-0.0314494932822391,left,0.0055453777313232,-0.323803929988893,-2.777307535789906,-8.872491081300378,-0.1616699766463965,-0.0508595257997512,0.005739003419876,3.1202322076827285,0.0085130929946899
2025-04-30 00:42:09.838907400,5.640907470703125,-0.3036346385928904,-0.0122621953487396,-0.1466383692462228,0.0066879168152809,0.0091013038531467,0.975579317677096,-0.0318186722130923,left,0.0026298761367797,-0.3270461498971346,-2.7766812205851075,-8.862035153737663,-0.1632762939046828,-0.0934824869036674,0.0095819234848022,3.15035875813812,0.0076263844966888
2025-04-30 00:42:09.878907600,5.68090771484375,-0.3041127338742435,-0.0414231047034263,-0.1466209539040113,-0.0062865605577826,0.0083128520058231,0.975286966007462,-0.0340380031181831,left,0.0104260444641113,-0.3303985303018599,-2.77773978972733,-8.850580278265475,-0.1650705709361218,-0.07619009912014,0.0024391710758209,3.181474027369916,0.0083090364933013
2025-04-30 00:42:09.918907600,5.72090771484375,-0.3054669561972174,-0.0496404729783535,-0.1470423314534001,-0.0246019810438156,0.0073296681230267,0.9750725910761237,-0.0365277917468181,left,0.0007281303405761,-0.3319547611277968,-2.78823049634248,-8.842077822858094,-0.1660061798990285,-0.0289424657821655,-0.0015764534473419,3.195906165087223,0.0099243819713592
2025-04-30 00:42:09.958907600,5.76090771484375,-0.3070408097420694,-0.0412620157003402,-0.1476282561065413,-0.0079349819570779,0.0064084798983023,0.9749591348425598,-0.0386951977708732,left,-0.0042337775230407,-0.3320164249934525,-2.802083665128052,-8.837490495067835,-0.1661904764773126,0.0003557614982128,0.0035316050052642,3.1964778274953365,0.0112073123455047
2025-04-30 00:42:09.998907600,5.80090771484375,-0.3078855835610471,-0.0377956368029117,-0.1479758457932006,-0.0247607454657554,0.0058270307382012,0.9750058398977934,-0.0398227747186545,left,0.0073722004890441,-0.3306955218800243,-2.8108251899883148,-8.839136508709192,-0.1656279430814053,0.0627272129058837,-0.0032001137733459,3.184228879036009,-0.0052809715270996
2025-04-30 00:42:10.038907600,5.84090771484375,-0.3093205854996378,-0.0277181006968021,-0.1487152234698544,-0.0342610739171505,0.0055206263290505,0.9751505619103537,-0.0401937988420692,left,-0.0016462206840515,-0.3275459443234006,-2.8265456139504908,-8.844602957421541,-0.1641174319799976,0.0830096006393432,-0.0022384822368621,3.1549998619422315,7.73668289184e-05
2025-04-30 00:42:10.078907400,5.880907470703125,-0.3101598879880887,-0.0143831679597496,-0.1492100141787594,-0.0404552891850471,0.0055075836452989,0.975308374185986,-0.0399133664363174,left,0.0127345323562622,-0.3247353482644743,-2.836663103339076,-8.850636976888776,-0.1627251505276679,0.0719586312770843,-0.0109636783599853,3.1288901459127665,-0.002322107553482
2025-04-30 00:42:10.118907600,5.92090771484375,-0.3123204503478719,-0.0319249518215656,-0.1503257657087178,-0.0363670289516449,0.00540147204217,0.9753878757141748,-0.0399946308350544,left,-0.0066648125648498,-0.3216421082789781,-2.858739033807814,-8.853655447927117,-0.1612183881542008,0.0783062949776649,-0.0058817267417907,3.100126408243179,-0.0062076747417449
2025-04-30 00:42:10.158907600,5.96090771484375,-0.3129638865762145,-0.0717909336090087,-0.1506190349096701,0.0247966721653938,0.0046220074775278,0.975596796890364,-0.0411679502776806,left,-0.007308542728424,-0.3183422081923178,-2.867569113734364,-8.861499147164821,-0.1596972082943662,0.0659710094332695,0.0041973888874053,3.069408321635425,-0.0105940699577331
2025-04-30 00:42:10.198907600,6.00090771484375,-0.3128006234414908,-0.0953802764415741,-0.150380685239259,0.0163104236125946,0.0029597407702772,0.9758513886270028,-0.0440485703212855,left,0.0141510367393493,-0.3152375244757832,-2.86904123211354,-8.87099178265333,-0.1584012318935176,0.0425616800785064,0.0011249184608459,3.040476533922553,-0.0132834911346435
2025-04-30 00:42:10.238907600,6.04090771484375,-0.3146951557281113,-0.0886165350675582,-0.1511088265639763,-0.0533047616481781,0.0012051547001029,0.975944887653876,-0.0474512772603711,left,0.0072325468063354,-0.3121489319260404,-2.8887352358818053,-8.874427602320909,-0.1571503756872146,0.0330749340355396,-0.0014761984348297,3.0116660345017907,-0.0056318938732147
2025-04-30 00:42:10.278907600,6.08090771484375,-0.3182254634803174,-0.05320680513978,-0.1526873357003071,-0.0782807543873786,0.0001011084505764,0.9758344730965608,-0.0499370979119138,left,-0.004581332206726,-0.3100433003958667,-2.922024342021346,-8.870176959139108,-0.1563118566871766,0.0250708907842636,5.79059123992e-05,2.9920079788297413,-0.0006974339485168
2025-04-30 00:42:10.318907400,6.120907470703125,-0.3205330343167535,-0.0247764345258474,-0.1537718372209196,-0.0146334916353225,-0.0003349857866143,0.9757706340973672,-0.0509480097888936,left,-0.0195328593254089,-0.308516439771349,-2.9439208242699504,-8.867735995727777,-0.1556454299755672,0.0246097166091203,0.0080702602863311,2.977745060199499,-0.0028078854084014
2025-04-30 00:42:10.358907600,6.16090771484375,-0.3202860849771085,-0.0382370389997959,-0.1536086866999564,0.0216486752033233,-0.0008810326241667,0.9758701711119434,-0.0518463681012335,left,-0.0012396574020385,-0.3074198242069306,-2.942757333448529,-8.871557015320658,-0.1551800194361366,0.0140675595030188,0.0071163475513458,2.967496930168569,-0.0075842440128326
2025-04-30 00:42:10.398907600,6.20090771484375,-0.3197367330760783,-0.0549060478806495,-0.1532423988920536,0.0136419413611292,-0.0018391471401892,0.9760026346802078,-0.0535165461232243,left,0.0022082328796386,-0.3061735208495829,-2.939043573622405,-8.876676258030534,-0.154700401091777,0.0172623712569475,0.0047511756420135,2.955845655341446,-0.0078575313091278
2025-04-30 00:42:10.438907600,6.24090771484375,-0.3193335734532467,-0.045890487730503,-0.1529664793789322,-0.0015080934390425,-0.0027603726193781,0.9761495669034708,-0.0550732123008906,left,0.0141375064849853,-0.3045562281861947,-2.936961506651342,-8.882387621414662,-0.1540308751960435,0.0376144722104072,-0.0021987259387969,2.940719105619192,-0.0092205703258514
2025-04-30 00:42:10.478907600,6.28090771484375,-0.3212708635793202,-0.0634237900376319,-0.1538778212332424,-0.0597257949411869,-0.0035817440711755,0.9762211661468824,-0.0565500345199293,left,-0.0014819502830505,-0.3014761909997316,-2.957009730684757,-8.885233073973655,-0.152645965673095,0.0695342868566513,-0.0054126381874084,2.911890193758905,-0.0043193101882934
2025-04-30 00:42:10.518907600,6.32090771484375,-0.3231699404511141,-0.0584513694047927,-0.1547149923744227,-0.0025656819343566,-0.0046075395650424,0.976241644452444,-0.0585487381058262,left,-0.0179705023765563,-0.2990846879637745,-2.976081218640506,-8.886179414913057,-0.1516383595102958,-0.0018925443291664,0.006188541650772,2.889487223292887,0.0120858550071716
2025-04-30 00:42:10.558907400,6.360907470703125,-0.3244156685840328,-0.0619951263070106,-0.1550615968403914,-0.0254978910088539,-0.0059865323632071,0.9760789974263604,-0.0617041784437445,left,0.0219800472259521,-0.2998965145552433,-2.986399783559144,-8.880238918948173,-0.1522816826184335,-0.065758965909481,0.0012658238410949,2.897093898904324,0.0008823871612548
2025-04-30 00:42:10.598907600,6.40090771484375,-0.328013900907838,-0.0523617900907993,-0.1565486966392441,-0.1104733273386955,-0.0070580846851677,0.9756868995309956,-0.0647054210311263,left,0.0163063406944274,-0.3013262805981221,-3.016995997352898,-8.865505460196733,-0.1532237742903505,-0.0377920158207416,-0.0088130235671997,2.9104864644408224,-0.0064814686775207
2025-04-30 00:42:10.638907600,6.44090771484375,-0.3329630389359467,-0.0249130129814147,-0.1587941317728751,-0.1046187207102775,-0.0075431942270804,0.9752342639206916,-0.0666123066907671,left,-0.0040370821952819,-0.3021040357031224,-3.060094842106104,-8.848323439249397,-0.1537708703350511,-0.0295706279575824,-0.0063818991184234,2.9177690226644275,0.0057689547538757
2025-04-30 00:42:10.678907600,6.48090771484375,-0.3372137878320856,0.0141029693186283,-0.1607551984709436,-0.0810365006327629,-0.0075527573986582,0.9747933387468464,-0.0675420712501901,left,-0.0051204562187194,-0.3034717189622375,-3.096355949793756,-8.831461736297607,-0.154526788875055,-0.0471070632338523,0.0040250420570373,2.930571221092343,0.0153650045394897
2025-04-30 00:42:10.718907600,6.52090771484375,-0.3407830889421873,0.022240912541747,-0.1624837457793973,-0.1053289845585823,-0.0069007580481894,0.974388404712946,-0.0670613043376046,left,0.0069904327392578,-0.3051173695535537,-3.126242261752486,-8.815796549654006,-0.1553013389222128,-0.0136084072291851,-0.0052733123302459,2.9459684044495225,-0.0036287903785705
2025-04-30 00:42:10.758907600,6.56090771484375,-0.3456803328975625,-0.0104998592287302,-0.1649295752240087,-0.1497785449028015,-0.0062533448909241,0.9740193851650444,-0.0664386331865737,left,0.0112518668174743,-0.3047042879537764,-3.1697897270560262,-8.801524863195418,-0.1550656104403801,0.0466219149529933,-0.0084195733070373,2.9421041302368045,-0.0102887153625488
2025-04-30 00:42:10.798907400,6.600907470703125,-0.351826953946986,-0.0172404870390892,-0.1680159162655833,-0.1731039881706237,-0.0058183601798721,0.973673825822301,-0.0661027109708102,left,0.0092001557350158,-0.3023972027502293,-3.2261595567926764,-8.7882240675956,-0.1539348377740699,0.0732251927256584,-0.0089753866195678,2.920513645197451,-0.0055956840515136
2025-04-30 00:42:10.838907400,6.640907470703125,-0.3593689767343553,0.0040054321289062,-0.1718624808837084,-0.2122627049684524,-0.0050658751330226,0.9732775695701856,-0.0651122507672267,left,0.0120332837104797,-0.2989803165322782,-3.2958383654356003,-8.77293239043951,-0.1522110389532244,0.0962892919778823,-0.0095544159412384,2.8885090259104964,-0.0066559612751007
2025-04-30 00:42:10.878907600,6.68090771484375,-0.3669794377287437,0.0182951837778091,-0.1758005781163554,-0.1754721403121948,-0.003868693526524,0.9728450058916096,-0.0632309974103013,left,-0.0087828636169433,-0.2957697554931223,-3.365818495112657,-8.756207465609908,-0.15050522075166,0.0795704051852226,-0.0075535178184509,2.8584061485916377,-0.004195898771286
2025-04-30 00:42:10.918907600,6.72090771484375,-0.3718654843161084,0.0222968831658363,-0.1783330039684925,-0.0934542194008827,-0.0028856754732556,0.972513229142234,-0.0616924623057367,left,-0.0108119249343872,-0.2943518186587145,-3.410030561804771,-8.743424556404351,-0.1496888789901495,0.0132745876908302,-0.0097376108169555,2.8451018458604813,-0.0005160868167877
2025-04-30 00:42:10.958907600,6.76090771484375,-0.3747330168954311,0.0139009580016136,-0.1797376790930125,-0.0628169924020767,-0.0023629694049122,0.9721977611746232,-0.0612250185346214,left,-0.0009294152259826,-0.2952092484159963,-3.4341944044634696,-8.731336643725633,-0.1500669380325182,-0.0444497689604759,-0.0098207592964172,2.853147497411072,-0.0003938972949981
2025-04-30 00:42:10.998907600,6.80090771484375,-0.3768979648835939,0.0015300270169973,-0.1806787209710678,-0.0430115908384323,-0.0022831889023012,0.9718442664253188,-0.061837010060399,left,0.0019312500953674,-0.2974737624383451,-3.4507024716719985,-8.717851723730563,-0.1512232549879977,-0.0724629163742065,-0.0056473016738891,2.8743869770556687,0.0004754960536956
2025-04-30 00:42:11.038907600,6.84090771484375,-0.3789791627787651,-0.0093934517353773,-0.1815246149622212,-0.0396468192338943,-0.0025022722636646,0.9714849501909738,-0.0630861130370821,left,0.0040401220321655,-0.2998891814851788,-3.466259814026952,-8.704175665077567,-0.1525102287154355,-0.0618937462568283,-0.0058003067970275,2.8970252175822853,0.0004846155643463
2025-04-30 00:42:11.078907400,6.880907470703125,-0.3810052058104247,-0.015323232859373,-0.1823562218504544,-0.0407825820147991,-0.0028410383122766,0.9711810781966504,-0.0644316539688728,left,0.0036059617996215,-0.3015591800664881,-3.4820839906245467,-8.692631357756257,-0.1534448915728375,-0.0403075516223907,-0.003632366657257,2.912667315611244,0.0042209923267364
2025-04-30 00:42:11.118907600,6.92090771484375,-0.3829157016478687,0.0005468688905239,-0.1831946902260287,-0.0414478220045566,-0.0029658950061505,0.9709331390356952,-0.0651932964726622,left,0.0045505166053771,-0.3025791191686319,-3.497572943918407,-8.683203019675611,-0.1540115421509881,-0.0207874663174152,-0.0029541850090026,2.922216649723053,0.0061451196670532
2025-04-30 00:42:11.158907600,6.96090771484375,-0.3845207698747043,0.0182158127427101,-0.1839647573638785,-0.0277521573007106,-0.0027107310708725,0.970739371131382,-0.065053401701307,left,-0.0007975101470947,-0.3032367444857868,-3.510784015408158,-8.675794789245725,-0.1543195837334206,-0.0044090170413255,-0.0037588775157928,2.9283722497433424,0.008037120103836
2025-04-30 00:42:11.198907600,7.00090771484375,-0.3846725069079271,0.0189006030559539,-0.1840925367356389,0.0081624463200569,-0.0022090120096444,0.9706893072314828,-0.0641481949213329,left,-0.0045868754386901,-0.3037600097156454,-3.511524896903336,-8.673840148046612,-0.1544899622934726,0.0013903495855629,-0.0009789168834686,2.933269081874192,0.0041602849960327
2025-04-30 00:42:11.238907600,7.04090771484375,-0.3846725069079271,-0.0022161472588777,-0.1840925367356389,0.0005643693730235,-0.0022090120096444,0.9706893072314828,-0.0641481949213329,left,0.0037004947662353,-0.3037600097156454,-3.511524896903336,-8.673840148046612,-0.1544899622934726,-0.0021659866906702,0.0001159012317657,2.933269081874192,0.0017211735248565
2025-04-30 00:42:11.278907600,7.08090771484375,-0.3846725069079271,-0.0220507737249135,-0.1840925367356389,0.0007912680739536,-0.0022090120096444,0.9706893072314828,-0.0641481949213329,left,0.0041015744209289,-0.3037600097156454,-3.511524896903336,-8.673840148046612,-0.1544899622934726,-0.0156804323196411,0.0002461671829223,2.933269081874192,0.0028983354568481
2025-04-30 00:42:11.318907400,7.120907470703125,-0.3851853119104245,-0.0209126845002174,-0.1842158348104014,-0.0112348208203911,-0.0027437014788344,0.9705874391060748,-0.0654804012312207,left,0.0086416006088256,-0.304505004934502,-3.515150393924117,-8.670010945147276,-0.1549741132538797,-0.0191854815930128,-0.0003342926502227,2.940239797669649,0.0057940185070037
2025-04-30 00:42:11.358907600,7.16090771484375,-0.3861535216215717,-0.0118362111970782,-0.184606272418732,-0.0169176794588565,-0.0030680471327926,0.9704727054516789,-0.0663712258358939,left,0.0026512145996093,-0.3048433146490519,-3.523168280684948,-8.665681391510367,-0.1552215108556683,-0.0050586881116032,-0.0026822090148925,2.9434046914413567,0.0033708810806274
2025-04-30 00:42:11.398907600,7.20090771484375,-0.3869800040657341,-0.0053675775416195,-0.1849830650532292,-0.0174696054309606,-0.0031420208670554,0.9703926317261832,-0.066665125704746,left,0.0032695531845092,-0.3048893162216912,-3.5302781126901506,-8.662641293162107,-0.1552722214874249,0.005789871327579,-0.0038963556289672,2.943835191813111,0.0018975436687469
2025-04-30 00:42:11.438907600,7.24090771484375,-0.3877223797946589,-0.0031706651207059,-0.185355585254513,-0.0119727328419685,-0.0031234635260517,0.9703524739369148,-0.0666650248246451,left,0.0003222227096557,-0.3044885918083049,-3.5371538436785337,-8.661109845811128,-0.1550793354578603,0.0212290249764919,-0.0050374269485473,2.940086360673606,-0.002575010061264
2025-04-30 00:42:11.478907600,7.28090771484375,-0.3881645015878942,-0.0116727640852332,-0.1856094140086483,-0.0204536449164152,-0.0031350591097291,0.9703831324882196,-0.0665568139083389,left,0.0051437020301818,-0.3034820539367258,-3.5421009446918963,-8.66227947411239,-0.1545826202564691,0.0248254910111427,-0.0073693394660949,2.930667959465086,-0.0046354830265045
2025-04-30 00:42:11.518907600,7.32090771484375,-0.3888519034817392,-0.007256110664457,-0.1859820930679918,-0.0119090601801872,-0.0031527554881897,0.9703964954621612,-0.0664828810107073,left,0.0032429695129394,-0.3023922032989607,-3.5492633836671708,-8.662793268853425,-0.1540491085514558,0.023431871086359,-0.0074673593044281,2.920466883446276,-0.0052937865257263
2025-04-30 00:42:11.558907400,7.360907470703125,-0.3891341053237011,-0.0072409766726195,-0.1861482534404938,0.0012769317254424,-0.0031965908691146,0.970430904187638,-0.0664447029120299,left,-0.0003004074096679,-0.3015338328210822,-3.5526577022805808,-8.664107274061442,-0.1536303425880466,0.0128509951755404,-0.0066902339458465,2.91242999972403,-0.0046238601207733
2025-04-30 00:42:11.598907600,7.40090771484375,-0.3891341053237011,-0.0105972122400999,-0.1861482534404938,0.0100569119676947,-0.0031965908691146,0.970430904187638,-0.0664447029120299,left,-0.001065194606781,-0.3015338328210822,-3.5526577022805808,-8.664107274061442,-0.1536303425880466,-0.003016005270183,-0.0044540762901306,2.91242999972403,-0.0033020377159118
2025-04-30 00:42:11.638907600,7.44090771484375,-0.3889998158495956,-0.0157539322972297,-0.1860322259535416,0.0124938515946269,-0.0036368338381781,0.9704682337838568,-0.0672556889026826,left,0.0021675825119018,-0.3011620962045988,-3.55190454582572,-8.665585529920458,-0.1535255487968013,-0.0077045890502631,-0.0033394396305084,2.908948879610002,-0.0039078891277313
2025-04-30 00:42:11.678907600,7.48090771484375,-0.3888153712196536,-0.0244203396141529,-0.185863110646411,0.0141846751794219,-0.0041933588834604,0.9704925756253736,-0.068346505196384,left,0.0036045312881469,-0.3010287877735075,-3.550453177973628,-8.666599090877174,-0.1535620557724813,-0.0088213309645652,-0.00196373462677,2.907700340853632,-0.00279101729393
2025-04-30 00:42:11.718907600,7.52090771484375,-0.3890340715047674,-0.0237230490893125,-0.1858822492374749,0.0041530961170792,-0.0048148691261157,0.9704904912496348,-0.0696013431947781,left,0.0047540664672851,-0.3007288592611871,-3.5526790373295545,-8.666629486015438,-0.1535339264241796,-0.0006072791293263,-0.0024888813495635,2.9048911286517978,-4.50313091278e-05
2025-04-30 00:42:11.758907600,7.56090771484375,-0.3894284289302335,-0.0183154791593551,-0.1860209536107318,-0.0004509529098868,-0.0052699911167846,0.9704875656170528,-0.0704978454709422,left,0.0027750730514526,-0.300215666754681,-3.5566619694858788,-8.666605520617962,-0.1533697608295448,0.0076633058488368,-0.0039998888969421,2.9000840206310152,2.34842300415e-05
2025-04-30 00:42:11.798907400,7.600907470703125,-0.3894284289302335,-0.0106158377602696,-0.1860209536107318,0.0001844155485741,-0.0052699911167846,0.9704875656170528,-0.0704978454709422,left,0.0017147660255432,-0.300215666754681,-3.5566619694858788,-8.666605520617962,-0.1533697608295448,0.0108360378071665,-0.0041593611240386,2.9000840206310152,0.0008992850780487
2025-04-30 00:42:11.838907400,7.640907470703125,-0.3898284519002314,-0.0073226494714617,-0.1861980587419663,0.0018098677974194,-0.0056205826979196,0.9705126064020796,-0.0710980425583747,left,0.0028572082519531,-0.2992996855445789,-3.561136484551429,-8.667635448187589,-0.1529831655515192,0.0072499699890613,-0.0026222169399261,2.891501777985692,-0.0008783340454101
2025-04-30 00:42:11.878907600,7.68090771484375,-0.3898284519002314,-0.004783812444657,-0.1861980587419663,-0.0058960737660527,-0.0056205826979196,0.9705126064020796,-0.0710980425583747,left,0.0067361593246459,-0.2992996855445789,-3.561136484551429,-8.667635448187589,-0.1529831655515192,0.0079808421432971,-0.0031233131885528,2.891501777985692,-0.0042923390865325
2025-04-30 00:42:11.918907600,7.72090771484375,-0.3903471134637828,0.003177769947797,-0.1864637746265156,-0.0070036193355917,-0.0056850996635834,0.9705089771710256,-0.0711818615049669,left,-0.0013682842254638,-0.2986543449857413,-3.566341067457199,-8.667511529546976,-0.1526799459902884,0.0087622329592704,-0.0049440264701843,2.885454022254049,-0.0035037696361541
2025-04-30 00:42:11.958907600,7.76090771484375,-0.3903471134637828,0.0079999584704637,-0.1864637746265156,0.0159120932221412,-0.0056850996635834,0.9705089771710256,-0.0711818615049669,left,-0.0027490854263305,-0.2986543449857413,-3.566341067457199,-8.667511529546976,-0.1526799459902884,0.0007955292239785,-0.0027806162834167,2.885454022254049,-0.0026845037937164
2025-04-30 00:42:11.998907600,7.80090771484375,-0.3903471134637828,-0.0005333665758371,-0.1864637746265156,0.0062903938814997,-0.0056850996635834,0.9705089771710256,-0.0711818615049669,left,0.0011895895004272,-0.2986543449857413,-3.566341067457199,-8.667511529546976,-0.1526799459902884,-0.0094245458021759,-0.0035741627216339,2.885454022254049,-0.0001153647899627
2025-04-30 00:42:12.038907600,7.84090771484375,-0.3895405595222886,-0.0018809125758707,-0.1860577812556817,0.0138734998181462,-0.0057011796118665,0.9705519794534798,-0.0711815649156752,left,0.002094566822052,-0.299115998611108,-3.558842820656299,-8.669151697969436,-0.1529011719419122,-0.0165634900331497,-0.0025950670242309,2.88978065328151,0.0005206763744354
2025-04-30 00:42:12.078907400,7.880907470703125,-0.3890287373648572,-0.0028717764653265,-0.1857787162891108,0.0091959852725267,-0.0058132645443626,0.970570587418458,-0.0714141097473263,left,0.0046127438545227,-0.299522662498586,-3.553959140267968,-8.669884103897214,-0.1531182381686384,-0.0113242622464895,-0.0042333304882049,2.8935911514803765,0.0007795095443725
2025-04-30 00:42:12.118907600,7.92090771484375,-0.3890287373648572,0.0007395343855023,-0.1857787162891108,0.0114268092438578,-0.0058132645443626,0.970570587418458,-0.0714141097473263,left,0.0001911520957946,-0.299522662498586,-3.553959140267968,-8.669884103897214,-0.1531182381686384,-0.0171240493655204,-0.0040075480937957,2.8935911514803765,0.0022127926349639
2025-04-30 00:42:12.158907600,7.96090771484375,-0.388547313008365,0.0041395700536668,-0.1854851947076471,0.0015954431146383,-0.0058984205977346,0.9705370140718252,-0.0717369487241105,left,0.0045557022094726,-0.3006284012753573,-3.5485704329669474,-8.668627381834387,-0.1536822491065122,-0.0194853618741035,-0.002237319946289,2.903950340670347,-0.0006313920021057
2025-04-30 00:42:12.198907600,8.00090771484375,-0.3885831369743346,0.0085811037570238,-0.1854540115485794,-0.0018370260950177,-0.0059099195101216,0.9704647124870172,-0.0719634324500689,left,0.0039421916007995,-0.3016042197139005,-3.5478058783352373,-8.665874283733963,-0.154175843841302,-0.0240488927811384,0.0002007186412811,2.913089340415597,-0.0009719133377075
2025-04-30 00:42:12.238907600,8.04090771484375,-0.3890951662248681,0.0174959450960159,-0.1856516664441437,-0.0210909266024827,-0.0057778506369229,0.9703200271829504,-0.0720509893228026,left,0.0045507550239562,-0.3029803424226119,-3.550718550911545,-8.660338861438632,-0.1548517224333405,-0.0342292822897434,-0.000322550535202,2.925972495125234,0.0003934204578399
2025-04-30 00:42:12.278907600,8.08090771484375,-0.3897166823181859,0.0208131596446037,-0.1859259816381298,-0.0107846157625317,-0.0054544562020157,0.9701574915329096,-0.0717856882430878,left,-0.0012694597244262,-0.3044712932704441,-3.554438740478456,-8.654085061740874,-0.1555505579459093,-0.0258520096540451,-0.00018310546875,2.939924448110163,-0.0014551281929016
2025-04-30 00:42:12.318907400,8.120907470703125,-0.3899385071231658,0.0187793187797069,-0.186043806207004,-0.0074946931563317,-0.0050933542335905,0.9700715066124768,-0.0712674406659323,left,0.0030221939086914,-0.3054115945824424,-3.555306170962751,-8.65073575131297,-0.1559580504908153,-0.009228765964508,-0.0023680925369262,2.948720333506167,-0.0033434629440307
2025-04-30 00:42:12.358907600,8.16090771484375,-0.3900344199945357,0.0143440179526805,-0.1861172876803786,-0.0040216380730271,-0.0047683315982199,0.9700279495143008,-0.0707151623842942,left,0.0012025237083435,-0.3059166673495401,-3.5555689135521646,-8.649016087913513,-0.1561513497208999,-0.0093013839796185,-0.0015442073345184,2.953443854896724,-0.0011370778083801
2025-04-30 00:42:12.398907600,8.20090771484375,-0.3900344199945357,0.0058343820273876,-0.1861172876803786,0.0011940598487854,-0.0047683315982199,0.9700279495143008,-0.0707151623842942,left,0.0022687315940856,-0.3059166673495401,-3.5555689135521646,-8.649016087913513,-0.1561513497208999,-0.015755733475089,-0.0027527213096618,2.953443854896724,-0.0012016296386718
2025-04-30 00:42:12.438907600,8.24090771484375,-0.3901371585935275,-0.0004393239505589,-0.1861303616068553,0.004318528342992,-0.004695712770221,0.969947803918384,-0.0707821380498026,left,0.0022598505020141,-0.3069035955536497,-3.5553473797559736,-8.645950855123996,-0.1566354380371439,-0.0162677560001611,-0.0036849975585937,2.9626714097082614,-0.0014682412147521
2025-04-30 00:42:12.478907600,8.28090771484375,-0.3901371585935275,-0.0022397586144506,-0.1861303616068553,0.0024008094333112,-0.004695712770221,0.969947803918384,-0.0707821380498026,left,0.0023548603057861,-0.3069035955536497,-3.5553473797559736,-8.645950855123996,-0.1566354380371439,-0.01126629114151,-0.004674345254898,2.9626714097082614,-0.0007916688919067
2025-04-30 00:42:12.518907600,8.32090771484375,-0.3901371585935275,0.0111427567899227,-0.1861303616068553,-0.001513407099992,-0.004695712770221,0.969947803918384,-0.0707821380498026,left,0.0017996430397033,-0.3069035955536497,-3.5553473797559736,-8.645950855123996,-0.1566354380371439,0.0002057133242487,-0.0041578710079193,2.9626714097082614,0.003855675458908
2025-04-30 00:42:12.558907400,8.360907470703125,-0.3901195325467576,0.0276525821536779,-0.1861515214848885,0.0046778484247624,-0.0043251709014442,0.9699052938853012,-0.0701442615091492,left,0.0001635551452636,-0.3075398014666336,-3.554477318923176,-8.644268601125479,-0.1568839051434256,0.0036096544936299,-0.0025031268596649,2.968618335413933,0.0036244988441467
2025-04-30 00:42:12.598907600,8.40090771484375,-0.3893954424055295,0.0356627069413661,-0.1858664380891811,0.019098687916994,-0.0037504182178343,0.9699202766928308,-0.06899587750779,left,0.0038713812828063,-0.3082999988510281,-3.5473595958724617,-8.64474966264069,-0.1571435247443252,-0.0083550093695521,-0.0016450881958007,2.9757226144611835,0.0023702681064605
2025-04-30 00:42:12.638907600,8.44090771484375,-0.3883138651001872,0.0267138704657554,-0.1853766038901185,0.0252534244209527,-0.0032608853204675,0.9699331822216952,-0.0680607033187256,left,0.0014547109603881,-0.3095362675627719,-3.536611991886794,-8.645169933879375,-0.1576531069300143,-0.0180778801441192,-0.0026110708713531,2.987272474740445,-0.0033431053161621
2025-04-30 00:42:12.678907600,8.48090771484375,-0.3867636538343131,0.0120771527290344,-0.1846265204450666,0.0451314039528369,-0.0030647317066647,0.9700002028770064,-0.0676177355397499,left,0.0013856291770935,-0.3105983088681541,-3.522007127951085,-8.64769916009605,-0.1581236952428732,-0.0216885618865489,-0.0018245577812194,2.9971909344255923,-0.0037175714969635
2025-04-30 00:42:12.718907600,8.52090771484375,-0.3855689641284818,-0.0068426262587308,-0.1840000705180896,0.0236073415726423,-0.0032293327864865,0.9700550059914236,-0.0679134701218946,left,0.0072565674781799,-0.3113527144670444,-3.510822009330988,-8.64980285437703,-0.1585142004142916,-0.0231968145817518,-0.002195119857788,3.004234130935371,-0.0025850236415863
2025-04-30 00:42:12.758907600,8.56090771484375,-0.385040756669726,-0.0088315550237894,-0.1836686193943032,0.0150518799200654,-0.0035958343467424,0.9700681507616132,-0.0686765269489377,left,0.0062288641929626,-0.3118213288886893,-3.5057235171481964,-8.650350551387668,-0.1588102473878243,-0.0160313583910465,-0.0021378397941589,3.0086084004968403,0.0013445913791656
2025-04-30 00:42:12.798907400,8.600907470703126,-0.385040756669726,0.0030085342004895,-0.1836686193943032,0.0006363438442349,-0.0035958343467424,0.9700681507616132,-0.0686765269489377,left,0.006191611289978,-0.3118213288886893,-3.5057235171481964,-8.650350551387668,-0.1588102473878243,-0.0156487580388784,-0.0035295486450195,3.0086084004968403,0.0050067603588104
2025-04-30 00:42:12.838907400,8.640907470703125,-0.3851760361613928,0.0139343747869133,-0.1836757215412677,-0.0063545037992298,-0.003603546473943,0.9699696947767384,-0.0689486406711509,left,0.0021762251853942,-0.3129903192456839,-3.505569787891209,-8.646610780337452,-0.1594012778681105,-0.019305033609271,-0.0038005709648132,3.019517332524061,0.0044389367103576
2025-04-30 00:42:12.878907600,8.68090771484375,-0.3854783697082412,0.0157365482300519,-0.1838067297904447,-0.0134904086589813,-0.0033465000977166,0.9698593990749776,-0.068695296668211,left,0.0070011615753173,-0.3141232420474237,-3.5068951912760733,-8.642375334724784,-0.1599267650257037,-0.0173639636486768,-0.0053725540637969,3.0300857805505395,0.0006013214588165
2025-04-30 00:42:12.918907600,8.72090771484375,-0.385945642437511,0.0125053729861974,-0.1840386038370691,-0.0057700248435139,-0.0030511145953475,0.9697593602417824,-0.0683202680651495,left,0.0017756819725036,-0.3149062022483769,-3.5100390422597525,-8.638535025909542,-0.1602718910417643,-0.0054697627201676,-0.0028401017189025,3.037387335735559,0.0006079375743865
2025-04-30 00:42:12.958907600,8.76090771484375,-0.385945642437511,0.0022192988544702,-0.1840386038370691,-0.0039130421355366,-0.0030511145953475,0.9697593602417824,-0.0683202680651495,left,0.0023143291473388,-0.3149062022483769,-3.5100390422597525,-8.638535025909542,-0.1602718910417643,0.0083288205787539,-0.0040546655654907,3.037387335735559,-0.0038062036037445
2025-04-30 00:42:12.998907600,8.80090771484375,-0.3859903257248525,-0.0091471206396818,-0.184092025218912,0.0068705240264534,-0.0029496038080433,0.9697798585811708,-0.068052581018239,left,0.0001776814460754,-0.3145786772427971,-3.510799505238235,-8.639299580541252,-0.1600888314595733,0.0126732066273689,-0.0015580356121063,3.034333208861947,-0.0025186538696289
2025-04-30 00:42:13.038907600,8.84090771484375,-0.3857095384788426,-0.0118788741528987,-0.183966455899958,0.0136794038116931,-0.0031167394179715,0.9698587175278632,-0.0682056396380844,left,0.0013937354087829,-0.313854061989624,-3.509199668826162,-8.642319805145263,-0.1597518585661316,0.0121015971526503,-0.0017898678779602,3.0275752590343354,-0.0018351674079895
2025-04-30 00:42:13.078907400,8.880907470703125,-0.3857095384788426,-0.0101232351735234,-0.183966455899958,0.0147137027233839,-0.0031167394179715,0.9698587175278632,-0.0682056396380844,left,0.0014603734016418,-0.313854061989624,-3.509199668826162,-8.642319805145263,-0.1597518585661316,0.0023038936778903,-0.0009710788726806,3.0275752590343354,-0.000287652015686
2025-04-30 00:42:13.118907600,8.92090771484375,-0.384958812853681,-0.0056665316224098,-0.1835698833955174,0.0141981858760118,-0.0034754438619706,0.9699525662068657,-0.0687513905273755,left,0.0024706125259399,-0.3135030129092115,-3.503109535257518,-8.645936242076754,-0.1596308825540256,-0.0073916055262088,0.0003796815872192,3.0243004751473666,0.0007257163524627
2025-04-30 00:42:13.158907600,8.96090771484375,-0.384958812853681,-0.0008258461020886,-0.1835698833955174,0.0045432010665535,-0.0034754438619706,0.9699525662068657,-0.0687513905273755,left,0.0026255846023559,-0.3135030129092115,-3.503109535257518,-8.645936242076754,-0.1596308825540256,-0.0095492452383041,0.0007418990135192,3.0243004751473666,0.0024380385875701
2025-04-30 00:42:13.198907600,9.00090771484375,-0.3847009999417203,0.0044363993220031,-0.1833887089933082,-0.0017828266136348,-0.0036343757724901,0.9699240795682535,-0.069176699172245,left,0.0025898218154907,-0.3142031371772125,-3.500084926739335,-8.644874750325084,-0.1600082584588225,-0.0120064299553632,-0.0001075863838195,3.0308310459598897,0.0028789043426513
2025-04-30 00:42:13.238907600,9.04090771484375,-0.3847009999417203,0.0070733814500272,-0.1833887089933082,-0.005787611939013,-0.0036343757724901,0.9699240795682535,-0.069176699172245,left,0.0013200044631958,-0.3142031371772125,-3.500084926739335,-8.644874750325084,-0.1600082584588225,-0.0062652942724525,-0.0005905032157897,3.0308310459598897,0.0020885169506073
2025-04-30 00:42:13.278907600,9.08090771484375,-0.3850699646516546,0.0057064015418291,-0.1835551038980051,-0.0047792424447834,-0.0034638717640608,0.9698353513536746,-0.069036113017066,left,0.0018346309661865,-0.3149530723773215,-3.502419799427688,-8.641473417448998,-0.1603589075824581,-0.0049598789773881,0.0003752410411834,3.037824558109045,0.0029973685741424
2025-04-30 00:42:13.318907400,9.120907470703123,-0.3850699646516546,0.0080042872577905,-0.1835551038980051,-0.01802409440279,-0.0034638717640608,0.9698353513536746,-0.069036113017066,left,0.0082547068595886,-0.3149530723773215,-3.502419799427688,-8.641473417448998,-0.1603589075824581,0.0021958630532026,-0.0022671222686767,3.037824558109045,0.0030759572982788
2025-04-30 00:42:13.358907600,9.16090771484375,-0.3856582044106917,0.0130064580589532,-0.1839281415810677,-0.0110970009118318,-0.0029672371705533,0.9698037180480112,-0.0680523304839132,left,-0.0004332065582275,-0.3146695142945117,-3.507826334646344,-8.640209681123494,-0.1601322725200689,0.0423946902155876,-0.0017678141593933,3.035180473341048,-0.0038372874259948
2025-04-30 00:42:13.398907600,9.20090771484375,-0.3856826302654672,0.0131796533241868,-0.1840954600450456,-0.0046318271197378,-0.0024511929807841,0.9699132821418414,-0.0666921778288045,left,-0.0011293292045593,-0.3131723250440975,-3.509742689661681,-8.644324715226889,-0.1592826496442491,0.0472135581076145,0.0018023550510406,3.0212153686136007,-0.00345179438591
2025-04-30 00:42:13.438907600,9.24090771484375,-0.3850438140593424,0.0135234240442514,-0.1839117235549055,0.0174667034298181,-0.0020363957718811,0.9700512479903916,-0.0655194567644026,left,-0.0060524940490722,-0.3121091302147101,-3.5054245342016217,-8.649536896917223,-0.1586594454135212,0.0187668055295944,0.0061115622520446,3.011294570840895,-0.0069665610790252
2025-04-30 00:42:13.478907600,9.28090771484375,-0.3850438140593424,-0.0130029004067182,-0.1839117235549055,-0.0196269620209932,-0.0020363957718811,0.9700512479903916,-0.0655194567644026,left,0.0058752298355102,-0.3121091302147101,-3.5054245342016217,-8.649536896917223,-0.1586594454135212,-0.0114554855972528,0.0029982328414916,3.011294570840895,-0.008273959159851
2025-04-30 00:42:13.518907600,9.32090771484375,-0.3865324330238861,-0.0281727388501167,-0.1845284364328637,-0.0360733568668365,-0.0024094642226904,0.9698740798344896,-0.0666385599088745,left,0.0023590922355651,-0.3126386664678436,-3.5176948177099225,-8.64283067727685,-0.1590204841717186,-0.0502188652753829,0.0028432607650756,3.0162361188963054,0.0014424920082092
2025-04-30 00:42:13.558907400,9.360907470703124,-0.3886683494827245,-0.0180189702659845,-0.1853658145525434,-0.0420694909989833,-0.0030028103006092,0.9695617133026534,-0.0685219547328342,left,0.0049343109130859,-0.3141698414125596,-3.5343928545326,-8.631013398233055,-0.1599383955047768,-0.0618079155683517,-0.0018441081047058,3.030520372575521,0.0053958594799041
2025-04-30 00:42:13.598907600,9.40090771484375,-0.3908624387549336,-0.0046464391052722,-0.1862851084979832,-0.0564564801752567,-0.0032650549185269,0.9692464852807602,-0.0697276263100767,left,0.0113357305526733,-0.3156585241839709,-3.5515988408774137,-8.619057002979517,-0.1607738554473729,-0.0276337638497352,-0.0099827647209167,3.0444015984117985,0.0001966953277587
2025-04-30 00:42:13.638907600,9.44090771484375,-0.3933662871867426,0.0001462972722947,-0.1874454953567524,-0.0484788678586483,-0.0032116632528011,0.9689691053077164,-0.0701516868380322,left,-0.0009148120880126,-0.3162392964841865,-3.5724902377367016,-8.608503460261225,-0.1610983123855144,-0.014762663282454,-0.0105953216552734,3.049815147893131,0.0056287944316864
2025-04-30 00:42:13.678907600,9.48090771484375,-0.3949805006861862,-0.0007991254678927,-0.1881622555188534,-0.0137965306639671,-0.0031899185778063,0.9687456740171286,-0.0705729773869776,left,-0.0019808411598205,-0.3172015995214592,-3.58525035058856,-8.600012110769748,-0.1616055918958981,-0.0286774262785911,-0.0069264471530914,3.0587825904637573,0.0049753785133361
2025-04-30 00:42:13.718907600,9.52090771484375,-0.3953598949006481,-0.0082231871783733,-0.1882674395183417,0.0144389830529689,-0.0034087336381019,0.9686536105409792,-0.0712419138273864,left,0.0004154443740844,-0.3179495121968759,-3.5876308159843084,-8.596537712657451,-0.1620305797282925,-0.0040798336267471,-0.0093076229095458,3.065750383649766,-0.0021453499794006
2025-04-30 00:42:13.758907600,9.56090771484375,-0.3953598949006481,0.0027996767312288,-0.1882674395183417,0.0252673663198947,-0.0034087336381019,0.9686536105409792,-0.0712419138273864,left,0.0003961324691772,-0.3179495121968759,-3.5876308159843084,-8.596537712657451,-0.1620305797282925,0.0149185247719287,-0.0071824193000793,3.065750383649766,0.002253919839859
2025-04-30 00:42:13.798907400,9.600907470703126,-0.3935485599172257,0.0299565736204385,-0.1874737628341616,0.0374820828437805,-0.003257979749448,0.9688760833344344,-0.0704863017575907,left,0.0005349516868591,-0.3172586034658111,-3.572865208528936,-8.604976455178857,-0.1616226925196363,0.0210962742567062,-0.0037106275558471,3.0593139208614826,0.007230669260025
2025-04-30 00:42:13.838907400,9.640907470703125,-0.3917008973027631,0.048111580312252,-0.1867117715479704,0.039336547255516,-0.0026186887785204,0.9690538954539764,-0.0688515848439646,left,0.0007911324501037,-0.3172235284949161,-3.557000992181897,-8.611662216553091,-0.1614501050759587,0.0106225330382585,-0.001679390668869,3.058986880864203,0.0074396133422851
2025-04-30 00:42:13.878907600,9.68090771484375,-0.390010030392799,0.0391268879175186,-0.1860094235813938,0.0231647007167339,-0.0018215504015034,0.9691539763169276,-0.067087565713542,left,0.0075106024742126,-0.3180257125053694,-3.541500640711188,-8.615392050731181,-0.1616716971173092,-0.0115337986499071,0.0004096925258636,3.0664602854847907,0.0044997334480285
2025-04-30 00:42:13.918907600,9.72090771484375,-0.3892235523388822,0.0248118415474891,-0.1856471974626884,0.020075162872672,-0.0013443473314339,0.9691160619804028,-0.066273798296324,left,0.0002160668373107,-0.3195197548024735,-3.5329812341690063,-8.613926069831848,-0.1623179202054344,-0.0301575679332017,0.0027993619441986,3.080373660025,0.0040212571620941
2025-04-30 00:42:13.958907600,9.76090771484375,-0.3890306045476505,0.0075351931154727,-0.185533445232163,-0.0041007380932569,-0.0011395415905134,0.969044441750332,-0.0660606156538411,left,0.0048564076423645,-0.3207160634900552,-3.529918923988938,-8.611191676431893,-0.1628764509098486,-0.014296555891633,0.0001846849918365,3.0915093865454195,-0.0005183815956115
2025-04-30 00:42:13.998907600,9.80090771484375,-0.3890306045476505,-0.0056516071781516,-0.185533445232163,-0.0045348545536398,-0.0011395415905134,0.969044441750332,-0.0660606156538411,left,0.0013021230697631,-0.3207160634900552,-3.529918923988938,-8.611191676431893,-0.1628764509098486,0.0172576177865266,-0.0011734962463378,3.0915093865454195,-0.0052559971809387
2025-04-30 00:42:14.038907600,9.84090771484375,-0.3894562100590489,-0.0084158331155776,-0.1857718598106312,0.0008217855356633,-0.0012005750952463,0.969080606126412,-0.0660540544351589,left,-0.0018867254257202,-0.3197076092469884,-3.5347654872372742,-8.612568810003996,-0.1623884863971745,0.0316064991056919,-0.0031874477863311,3.082122549518943,-0.0027068853378295
2025-04-30 00:42:14.078907400,9.880907470703123,-0.389097500156366,-0.0037663774564862,-0.1856312090783883,0.0284137688577175,-0.0013414016828073,0.9691950373589991,-0.0660650360665373,left,-0.009454607963562,-0.3186215781196309,-3.532943532507121,-8.616927589735388,-0.161864132219687,0.0181448906660079,0.0008021295070648,3.07201002856642,4.73856925964e-05
2025-04-30 00:42:14.118907600,9.92090771484375,-0.3879573096097098,-0.0025367559865117,-0.1850996568721597,0.0196363143622875,-0.0014386815626105,0.9693351049257504,-0.0659827340311627,left,0.0030111670494079,-0.3181620404776408,-3.5236499267220496,-8.62225667580366,-0.1616334595434843,0.0066784881055355,0.0004023611545562,3.067730159290135,-0.0050151348114013
2025-04-30 00:42:14.158907600,9.96090771484375,-0.3874140660326874,0.0029691462405025,-0.1848624983617144,0.0061616953462362,-0.0014476224118138,0.9694174259980788,-0.0658243897069862,left,0.0022021532058715,-0.3177336696339723,-3.519461827382445,-8.625385621479154,-0.1614112184067826,0.0142575353384017,0.0009621977806091,3.0637396283492446,-0.0048535466194152
2025-04-30 00:42:14.198907600,10.00090771484375,-0.3875986790274308,0.0209407750517129,-0.1850272861729961,-0.0296573396772146,-0.0011270086379458,0.969439207269308,-0.0650896532432299,left,0.0099874138832092,-0.3172168769182715,-3.521652030903101,-8.626199860471486,-0.1610934234462929,0.0189998522400856,-0.0014167428016662,3.058924921543896,-0.0019770562648773
2025-04-30 00:42:14.238907600,10.04090771484375,-0.3881367955276814,0.0480187572538852,-0.1854436230093946,-0.0195065606385469,-0.000268382484334,0.9694219516190884,-0.0633210469806832,left,-0.0032549500465393,-0.3167871453019706,-3.526790562835336,-8.62552006151378,-0.16072192607428,0.0240716133266687,-0.0018670558929443,3.054920654338598,0.000343233346939
2025-04-30 00:42:14.278907600,10.08090771484375,-0.3881811869274797,0.0531564056873321,-0.1856750163792125,-0.0310990884900093,0.0009728830922132,0.9694251121211556,-0.060746510738336,left,0.0092802643775939,-0.3166825125555505,-3.527294420704245,-8.625659177723527,-0.1604324432795654,0.0227535869926214,-0.0057297050952911,3.0539456718266007,-0.003630518913269
2025-04-30 00:42:14.318907400,10.120907470703123,-0.3891793719706872,0.0367898046970367,-0.1863027500423495,-0.0272986814379692,0.0020171728926595,0.9693054941686464,-0.0588257866304728,left,-0.0004593729972839,-0.3170234603254974,-3.5355072455152867,-8.621170049610733,-0.1604180140145713,-0.0060409791767597,-0.0024390518665313,3.057122840557992,-0.0004711747169494
2025-04-30 00:42:14.358907600,10.16090771484375,-0.3896744216556084,0.0219976622611284,-0.1865726957585906,-0.009626742452383,0.0026009308729673,0.9691598187389724,-0.0579691157965315,left,0.0012745261192321,-0.3183413710141929,-3.538241054393351,-8.615684311676025,-0.1609750878354713,-0.0350165367126464,-0.0041393041610717,3.0694004305899143,-0.0010075271129608
2025-04-30 00:42:14.398907600,10.20090771484375,-0.3896306880748089,0.0084881074726581,-0.186489095524737,0.0206648670136928,0.002716952026033,0.9690286642076492,-0.0580858249064845,left,-0.0044054985046386,-0.3201421821638413,-3.5357588821887966,-8.610711783960461,-0.1618570066688665,-0.0501736477017402,-0.0015735626220703,3.0861680255174635,0.0007424056529998
2025-04-30 00:42:14.438907600,10.24090771484375,-0.3886806669773662,0.0033416296355426,-0.1859315056429626,0.0371522605419158,0.0025468744065524,0.9689834352136956,-0.0586363753804291,left,-0.0024518966674804,-0.3219211503024629,-3.5254908784136174,-8.608972831338644,-0.1627698178582816,-0.045666329562664,-0.0001018643379211,3.102722562216222,0.0030549466609954
2025-04-30 00:42:14.478907600,10.28090771484375,-0.3871658437249363,0.0077084028162062,-0.1851286429827033,0.0343580767512321,0.0023796413185366,0.9690230024805504,-0.0589950015762501,left,0.006413459777832,-0.3232565503214261,-3.5108784156933424,-8.610459270504116,-0.1634507332150604,-0.0198235791176557,0.0012001395225524,3.115142775589228,0.0020463466644287
2025-04-30 00:42:14.518907600,10.32090771484375,-0.3854189198394998,0.0210490692406892,-0.1843003047761151,0.0409115180373191,0.0024661720248449,0.9691496740283372,-0.0586111872564696,left,0.0025606155395507,-0.3237039270088021,-3.495306752552092,-8.615286836791038,-0.1636337861370083,0.0072996169328689,0.00164595246315,3.119302525617182,0.0046604871749877
2025-04-30 00:42:14.558907400,10.360907470703124,-0.3839289980517799,0.0299289375543594,-0.1836885192756434,0.018428785726428,0.0029547883268834,0.9692971398121892,-0.0573199068984945,left,0.0038485527038574,-0.3235452793448694,-3.482652145901322,-8.620943839639425,-0.1634402635663726,0.0253884065896272,0.0013147890567779,3.117827484628558,0.0095836520195007
2025-04-30 00:42:14.598907600,10.40090771484375,-0.3824865989530852,0.0297205131500959,-0.183165923455911,0.0236166007816791,0.0036445635843787,0.9694950106489376,-0.0554754663568793,left,0.0053896903991699,-0.3226450854750163,-3.4712598142713307,-8.628558406296372,-0.1628379428979331,0.0640299841761589,0.0011198818683624,3.109456254385412,0.0073123574256896
2025-04-30 00:42:14.638907600,10.44090771484375,-0.3809001547963926,0.0060319919139146,-0.1826656265298407,0.0240395087748765,0.0043052836112979,0.969870421311534,-0.0532371558384837,left,0.0041634440422058,-0.3195527376275893,-3.461124789226055,-8.64293939834833,-0.1611396277053764,0.1362323760986328,-0.0006872415542602,3.0806808262780305,-0.0016338527202606
2025-04-30 00:42:14.678907600,10.48090771484375,-0.3796925736524443,-0.0243327617645263,-0.1824015922685198,0.0127242291346192,0.004679604479885,0.9703994340483696,-0.0511567973834661,left,0.003350555896759,-0.3139038986588566,-3.457079897749424,-8.66313755224645,-0.1582167975098063,0.1739785075187683,-0.0031447708606719,3.028039953936636,-0.0020087957382202
2025-04-30 00:42:14.718907600,10.52090771484375,-0.3789964310514321,-0.0418565720319747,-0.1823167355914604,0.0166751407086849,0.0045639769870892,0.9709190093129352,-0.0500629508746111,left,0.0009130835533142,-0.3076742811552712,-3.4579607722371817,-8.682899068292976,-0.1550998443867377,0.1400902867317199,-0.0019709169864654,2.969875057476759,0.0006147325038909
2025-04-30 00:42:14.758907600,10.56090771484375,-0.3785953454658357,-0.0506173335015773,-0.1822267913614326,0.0110193351283669,0.0040091095568696,0.9712832535502732,-0.0502580311245123,left,0.0039458870887756,-0.3031501499133949,-3.459408632957935,-8.696680925408005,-0.1529250366085884,0.0769301503896713,-0.0017955601215362,2.927561810143292,-0.001364529132843
2025-04-30 00:42:14.798907400,10.600907470703126,-0.3788341787195302,-0.0488992556929588,-0.1823076623441017,-0.0018706079572439,0.0031665868829221,0.971436185408117,-0.0515587118006066,left,0.0067682862281799,-0.3007367677040978,-3.46408860746771,-8.702393457835912,-0.1518727662140989,0.0278608612716197,-0.0017260909080505,2.904965362931788,-0.0010568797588348
2025-04-30 00:42:14.838907600,10.64090771484375,-0.379516377816725,-0.030801435932517,-0.1825583314916052,-0.0057826503179967,0.0024289235412069,0.9714486833274086,-0.0529836525369073,left,0.0012524127960205,-0.2997134120269018,-3.4711239129319784,-8.702785087502003,-0.1515054635283785,0.0045013334602117,-0.0010461211204528,2.8953786194190383,-0.0001958310604095
2025-04-30 00:42:14.878907600,10.68090771484375,-0.3798702101438889,-0.0094093438237905,-0.18268515800764,-0.0010204869322478,0.002080026037231,0.9714400774536252,-0.0536937240522399,left,-0.0003260970115661,-0.2993900036049985,-3.4745500879883764,-8.702425606539846,-0.1514130551947076,0.0016591912135481,0.001908928155899,2.892348165681958,-0.006143569946289
2025-04-30 00:42:14.918907600,10.72090771484375,-0.3798702101438889,0.0131257697939872,-0.18268515800764,-0.0082306191325187,0.002080026037231,0.9714400774536252,-0.0536937240522399,left,0.0004650950431823,-0.2993900036049985,-3.4745500879883764,-8.702425606539846,-0.1514130551947076,-0.0048475330695509,0.0023777484893798,2.892348165681958,-0.0065360963344573
2025-04-30 00:42:14.958907600,10.76090771484375,-0.3802054707999535,0.0439162030816078,-0.1828959143200689,-0.0209766700863838,0.0026481012208016,0.9713461634712386,-0.0527486192691622,left,0.0033208131790161,-0.300267579930056,-3.476524310670793,-8.698899770501255,-0.1517518585280843,-0.0282634161412715,0.0001703798770904,2.9005703428432343,-0.002478152513504
2025-04-30 00:42:14.998907600,10.80090771484375,-0.3806257200488523,0.0645597279071807,-0.1831628338913549,-0.0279216654598712,0.0036737347045731,0.9711465465111888,-0.0511394870255011,left,-0.0020033717155456,-0.3024934000640102,-3.4777725571662184,-8.691421981966496,-0.1526832069640571,-0.0484465286135673,-0.0031052827835083,2.921414393429458,-0.0036341547966003
2025-04-30 00:42:15.038907600,10.84090771484375,-0.3808514376989876,0.0628350675106048,-0.1833158047064829,-0.011943619698286,0.0047808128759885,0.9708996502426468,-0.0495028020697566,left,-0.0037946701049804,-0.305588400165001,-3.476356552888453,-8.682201733678578,-0.1540332050302074,-0.0697293579578399,-0.00334233045578,2.95037394593209,-0.0014251172542572
2025-04-30 00:42:15.078907400,10.880907470703123,-0.3809905085405881,0.0407930798828601,-0.183353044419146,-0.0077626365236938,0.0055314983419014,0.9706251181307142,-0.0486786734141412,left,0.0024196505546569,-0.3091529167844507,-3.4736315118387338,-8.671900119894742,-0.1556849197193287,-0.0847031101584434,-0.0007934868335723,2.9836914013832807,0.0003582537174224
2025-04-30 00:42:15.118907600,10.92090771484375,-0.381265398268817,0.0103439912199974,-0.1833933201491953,0.0027314540930092,0.0057402168331034,0.9703834862490432,-0.0488720183160584,left,-0.0006656646728515,-0.3120991368534934,-3.472729010041058,-8.66274826066792,-0.1571294291597331,-0.0622077584266662,0.001527726650238,3.01120133959949,-0.0014364123344421
2025-04-30 00:42:15.158907600,10.96090771484375,-0.3810232207362818,0.0015607988461852,-0.1831907383573888,0.0074694547802209,0.0056646200625111,0.9702735204243844,-0.0493425064615941,left,0.0058994889259338,-0.313899433150952,-3.468609592023492,-8.658542625671625,-0.1580453606701375,-0.0379519537091255,-0.0025428533554077,3.0279984528824686,0.0057968199253082
2025-04-30 00:42:15.198907600,11.00090771484375,-0.3808916505093066,-5.92347932979e-05,-0.1830585130950315,0.003084366209805,0.0055884495676722,0.9701851982546564,-0.0497454563166871,left,0.0042437314987182,-0.3152595920465404,-3.4659359889000654,-8.655167011758685,-0.1587414722370032,-0.0346625484526157,-0.005184382200241,3.0406822856277227,0.0086865723133087
2025-04-30 00:42:15.238907600,11.04090771484375,-0.3808493554108806,-0.009456293657422,-0.1829341320488109,0.0115759409964084,0.0053604818492014,0.9700735999521148,-0.0505171723164624,left,0.002948522567749,-0.3168295703309516,-3.4637910858258603,-8.650871360391378,-0.1595725676900639,-0.0519853383302688,-0.0021341443061828,3.055316083396971,0.0088346600532531
2025-04-30 00:42:15.278907600,11.08090771484375,-0.3807094315520078,-0.02427963539958,-0.1826850788122362,0.0302323941141366,0.0047598905205066,0.9699441068501088,-0.0521148085876929,left,0.000228464603424,-0.3187739080768541,-3.4603666643351314,-8.645824598395825,-0.1606604702443486,-0.0506919249892234,0.0011487007141113,3.073428663192689,0.0062323212623596
2025-04-30 00:42:15.318907400,11.120907470703123,-0.3801018839264194,-0.0378748327493667,-0.1822097878147867,0.0272371508181095,0.0038851418872943,0.9699283914349294,-0.0540136931783391,left,0.0049926042556762,-0.3197706898864996,-3.453975209732353,-8.645076410377024,-0.1613176106976991,-0.0191551409661769,7.12871551513e-05,3.0827097017571328,0.0036824941635131
2025-04-30 00:42:15.358907600,11.16090771484375,-0.3797731199075619,-0.0384852215647697,-0.1819309790907275,0.0199322681874036,0.0030164567125838,0.969996418598514,-0.0556582612404056,left,0.0031718015670776,-0.3193028505898947,-3.451666932789981,-8.64754952249229,-0.1612413950565444,0.0162076167762279,0.001703917980194,3.078354136896133,0.004997044801712
2025-04-30 00:42:15.398907600,11.20090771484375,-0.3791271114419175,-0.0239899139851331,-0.1815959257933376,0.0153550095856189,0.0024520225436867,0.9701636402206646,-0.0564344077299171,left,0.0051085352897644,-0.317875084800341,-3.4477029975950715,-8.65385183750689,-0.160621486758704,0.0402217172086238,0.0001189410686492,3.065057140688598,0.0023607611656188
2025-04-30 00:42:15.438907600,11.24090771484375,-0.3787389791098967,-0.0059953313320875,-0.1814772106323361,0.0055766962468624,0.0023417834555102,0.9703386601913422,-0.0562309447296813,left,0.0026653409004211,-0.3160055357251905,-3.44645679692626,-8.660498435914516,-0.1596980653357181,0.053119346499443,-0.0003798902034759,3.047636342549324,1.04010105133e-05
2025-04-30 00:42:15.478907600,11.28090771484375,-0.3785554938624549,0.0012046373449265,-0.1815051053379735,-0.0063798110932111,0.0025598504165723,0.9704877029447012,-0.055400010044832,left,0.0026993155479431,-0.3142115920307622,-3.4468826211228967,-8.66619693981707,-0.1587539475255887,0.049144122749567,-0.002113252878189,3.0309099564149973,-0.0050281882286071
2025-04-30 00:42:15.518907600,11.32090771484375,-0.3789472825624751,-0.0098526645451784,-0.1817823814237286,-0.0148152615875005,0.0026936523249478,0.9705710644437197,-0.0548717137778378,left,0.0021634697914123,-0.3125957611371627,-3.452084865941107,-8.669384337681532,-0.1579226553113779,0.0350755266845226,-0.0039540231227874,3.0158357214018703,-0.0087362229824066
2025-04-30 00:42:15.558907400,11.360907470703124,-0.3795852631505688,-0.0179786272346973,-0.1821200954963255,-0.0087627451866865,0.0025669961522968,0.97060969964484,-0.0549795141474539,left,-0.0012240409851074,-0.3112862939014196,-3.459075455480814,-8.67084096623063,-0.1572971924471767,0.0230556391179561,-0.0045725405216217,3.003614245471358,-0.0095613002777099
2025-04-30 00:42:15.598907600,11.40090771484375,-0.3801038470916856,-0.0231167562305927,-0.1823552165797193,-0.001366845332086,0.0021830642063708,0.970651251992482,-0.0556187122069336,left,-0.0010801553726196,-0.3100857067764577,-3.464906938113272,-8.672388195672632,-0.1567731303319539,0.0115305576473474,-0.0042838156223297,2.992403992410004,-0.0076594054698944
2025-04-30 00:42:15.638907600,11.44090771484375,-0.3803223410393098,-0.0197416543960571,-0.1824187825106132,0.0060596959665417,0.0017356015570495,0.9706865775490702,-0.0564292958557751,left,0.0002988576889038,-0.3093399429561678,-3.4676290565535424,-8.673701031836867,-0.1564855072355596,0.0014632567763328,-0.0033951997756958,2.9854385373115537,-0.0039555728435516
2025-04-30 00:42:15.678907600,11.48090771484375,-0.3803762461523071,-0.0119812805205583,-0.1823948061402354,0.0056471871212124,0.0013366587010736,0.9707070614495212,-0.0571931430806887,left,0.0023075938224792,-0.3090004175844987,-3.468472813901305,-8.674454480552672,-0.1563906152321455,-0.0015075162518769,-0.002244085073471,2.9822669215381143,-0.0034055411815643
2025-04-30 00:42:15.718907600,11.52090771484375,-0.3803208142461685,-0.0001921011134982,-0.1823639298941764,-0.0014767139218747,0.0011983417096121,0.970741531766432,-0.0573900941934683,left,0.0055590271949768,-0.3085984848573304,-3.468436865805089,-8.675759133410454,-0.1562138575638904,0.0070492438971996,-0.002552330493927,2.978511660657823,-0.0020363330841064
2025-04-30 00:42:15.758907600,11.56090771484375,-0.3803208142461685,0.0103344367817044,-0.1823639298941764,-0.0032366050872951,0.0011983417096121,0.970741531766432,-0.0573900941934683,left,0.0008631944656372,-0.3085984848573304,-3.468436865805089,-8.675759133410454,-0.1562138575638904,0.0105904238298535,-0.0024289190769195,2.978511660657823,-0.0015281438827514
2025-04-30 00:42:15.798907400,11.600907470703126,-0.3797597049689752,0.0136478543281555,-0.1821708676310763,0.0241883844137191,0.0015617899810276,0.970814981402918,-0.0564889417907606,left,-0.0040873289108276,-0.3082823154375544,-3.463917050293088,-8.67857828248441,-0.1559789244488999,0.0064976471476256,-0.0007528364658355,2.975557487027347,-0.0024508237838745
2025-04-30 00:42:15.838907600,11.64090771484375,-0.3789042360651792,0.0015873908996582,-0.1817849239256888,0.0141384955495595,0.0016941007546614,0.9708880523133656,-0.0560909202810372,left,0.0031278729438781,-0.3083433991598154,-3.45642435645014,-8.681369374507666,-0.1559730070359984,-0.0113882459700107,-4.62532043457e-05,2.976128272652626,-0.0018911063671112
2025-04-30 00:42:15.878907600,11.68090771484375,-0.3783364538237118,0.0046650292351841,-0.1814735380647149,0.0171167962253093,0.0016079174176596,0.970891059513812,-0.0563081624833261,left,0.001116931438446,-0.3090125223307272,-3.450758293512463,-8.681478095579147,-0.1563174816728355,-0.026241322979331,0.0008280277252197,2.9823800265237685,0.0018583238124847
2025-04-30 00:42:15.918907600,11.72090771484375,-0.3778187927855341,0.0171915534883737,-0.1811930245293666,0.0024803103879094,0.0017015629507219,0.9708524844113406,-0.0562606485886197,left,0.0076553225517272,-0.3101830655812065,-3.44497357263118,-8.680012699201702,-0.1568808614312756,-0.0266307406127452,-0.0016039609909057,2.993313216209412,0.0026912987232208
2025-04-30 00:42:15.958907600,11.76090771484375,-0.3778962786093554,0.02634884044528,-0.1812378774824072,-0.0116466097533702,0.002086780829829,0.9707535593038789,-0.0557229793863405,left,0.0028770565986633,-0.3114284761549424,-3.4442680547103284,-8.676274097195266,-0.1574355819496663,-0.0225034411996603,-0.0019817352294921,3.0049414024218914,0.0028348565101623
2025-04-30 00:42:15.998907600,11.80090771484375,-0.3780793896853234,0.0190137960016727,-0.1813276138621984,-0.0026023164391517,0.002473766067543,0.9706351096228034,-0.0552238200868478,left,0.0004934668540954,-0.3128015909841855,-3.44433030629158,-8.671800166651606,-0.1580554616609813,-0.0212134588509798,-0.0013695955276489,3.01775646033138,0.0007694363594055
2025-04-30 00:42:16.038907600,11.84090771484375,-0.3781662142994824,0.0016698352992534,-0.181353266979014,0.0062898360192775,0.0026258321605464,0.970558794021218,-0.0551051156231043,left,-0.0022490620613098,-0.3137246001628232,-3.444053242915869,-8.668909121385216,-0.1584917726995725,-0.0096755949780344,-3.74615192413e-05,3.026367636810243,-0.0036041140556335
2025-04-30 00:42:16.078907400,11.880907470703123,-0.3781662142994824,-0.006171902641654,-0.181353266979014,0.0082334140315651,0.0026258321605464,0.970558794021218,-0.0551051156231043,left,0.0028551816940307,-0.3137246001628232,-3.444053242915869,-8.668909121385216,-0.1584917726995725,0.0009977258741855,-0.001676470041275,3.026367636810243,-0.0010238289833068
2025-04-30 00:42:16.118907600,11.92090771484375,-0.3781662142994824,-0.0042816055938601,-0.181353266979014,0.0128058865666389,0.0026258321605464,0.970558794021218,-0.0551051156231043,left,-0.0019928216934204,-0.3137246001628232,-3.444053242915869,-8.668909121385216,-0.1584917726995725,-0.0040069222450256,-0.0011444985866546,3.026367636810243,0.0017289817333221
2025-04-30 00:42:16.158907600,11.96090771484375,-0.3771216309271103,0.0043952530249953,-0.1807986610502557,0.0255771502852439,0.0023294559795822,0.9706321706692056,-0.0556024752863252,left,-0.0021235346794128,-0.3140180671749054,-3.4346687439769505,-8.671675663489102,-0.1586802849247048,-0.0141106955707073,-0.0003785490989685,3.029104952819645,0.0020096898078918
2025-04-30 00:42:16.198907600,12.00090771484375,-0.3760468607804141,0.0077943205833435,-0.1802342671062352,0.0255521815270185,0.0022020208965768,0.9706684230053128,-0.0558493140065314,left,0.0016059279441833,-0.3148404612855108,-3.4244308430790897,-8.67304227566719,-0.1591022288806911,-0.0233420189470052,0.0013921558856964,3.036774464534223,0.0025357007980346
2025-04-30 00:42:16.238907600,12.04090771484375,-0.3751772809273035,0.0098105231299996,-0.1797737089544469,0.0189815945923328,0.0021655180187647,0.9706719892650036,-0.0559769921558986,left,0.0029554963111877,-0.3158450855861505,-3.41576793641299,-8.673173793092369,-0.1596014214023652,-0.0236935168504714,0.0020329654216766,3.046140551033616,0.0027259588241577
2025-04-30 00:42:16.278907600,12.08090771484375,-0.3745387452250385,0.0115248626098036,-0.1794382679218823,0.0096569238230586,0.0022340950816891,0.9706518601539292,-0.0559311764526013,left,0.0042130947113037,-0.3168795053734685,-3.4090745762541887,-8.672415668201445,-0.1600992066848381,-0.0196721460670232,0.001550555229187,3.0557813628211616,0.0030324161052703
2025-04-30 00:42:16.318907400,12.120907470703123,-0.3745387452250385,-0.0025574387982487,-0.1794382679218823,-0.0032156473025679,0.0022340950816891,0.9706518601539292,-0.0559311764526013,left,0.002155065536499,-0.3168795053734685,-3.4090745762541887,-8.672415668201445,-0.1600992066848381,0.0102776698768138,0.0018115043640136,3.0557813628211616,0.0032936334609985
2025-04-30 00:42:16.358907600,12.16090771484375,-0.3746436611377376,-0.0186781287193298,-0.1795088048537931,-0.0049440315924584,0.0021358003230346,0.9707061561818278,-0.0559861348429273,left,0.0039218068122863,-0.3160289755274248,-3.410934232646227,-8.674473769775032,-0.1596919218776383,0.037279762327671,0.0025799870491027,3.047854661475122,0.0065641701221466
2025-04-30 00:42:16.398907600,12.20090771484375,-0.3748999542060272,-0.0304864533245563,-0.1796615666907567,-0.0061936788260936,0.0018090066951662,0.9708288960250412,-0.0563226153775931,left,0.0023014545440673,-0.3140753049878454,-3.415331298561394,-8.67912364140749,-0.1587752103053457,0.0545470118522644,0.0008128881454467,3.029638913565874,0.0024470686912536
2025-04-30 00:42:16.438907600,12.24090771484375,-0.3751734323037173,-0.0257873386144638,-0.1798374353680535,-0.0103102922439575,0.001452316583846,0.970982181586334,-0.056635428294139,left,0.0049293637275695,-0.3116710670216079,-3.4203637397706506,-8.68494138777554,-0.15763793971616,0.0607477650046348,0.0015519559383392,3.007205840222537,0.0027779340744018
2025-04-30 00:42:16.478907600,12.28090771484375,-0.3757053296252927,-0.0053651221096515,-0.1801694229286311,-0.0201794393360614,0.0014171304887584,0.9710798594193824,-0.056408250870066,left,0.0043028593063354,-0.3096850336514678,-3.4271675745666026,-8.688659531515837,-0.1566544801510906,0.0438629202544689,-0.0001277029514312,2.9886618832722305,0.0021715760231018
2025-04-30 00:42:16.518907600,12.32090771484375,-0.3763756205487594,0.0120252948254346,-0.1805744168063383,-0.0206185244023799,0.0017108182855816,0.9710876710257292,-0.055728170048689,left,0.0031095147132873,-0.3087431993144338,-3.434023724071681,-8.688974588814377,-0.1561360788357065,0.0225551817566156,-0.0020181238651275,2.979863659788668,-0.0003823935985565
2025-04-30 00:42:16.558907400,12.360907470703124,-0.3773369374030629,0.0158099103718996,-0.1811310042618909,-0.0343035832047462,0.0021929871337603,0.9710413213886172,-0.0547786616030855,left,0.0052493810653686,-0.3081743956977054,-3.442999057687819,-8.687243819499015,-0.1557735506230069,0.0277392864227294,-0.0031100809574127,2.9745488945066927,-0.0011939704418182
2025-04-30 00:42:16.598907600,12.40090771484375,-0.3781266594645326,0.0304687917232513,-0.1816419161798222,-0.0087050236761569,0.0028601309106385,0.9710197433911828,-0.0533918407210824,left,-0.0084194540977478,-0.3074610438567438,-3.4506408046126364,-8.686491539826989,-0.1553010046186122,0.0284306015819311,-0.0021021366119384,2.9678821300938725,0.0012648999691009
2025-04-30 00:42:16.638907600,12.44090771484375,-0.3777388477852694,0.0231501311063766,-0.1816140843096513,0.0014518871903419,0.0036317897428343,0.9711079670748082,-0.051590513956638,left,-0.0005001425743103,-0.3066919323266036,-3.4481127474397417,-8.689948402282596,-0.1547651913960352,0.0376451574265956,-0.0008448064327239,2.960692510850728,-0.0082131624221801
2025-04-30 00:42:16.678907600,12.48090771484375,-0.3773561458769435,0.0191052425652742,-0.181582887896512,-0.0038682473823428,0.0042637767464331,0.9712255949159856,-0.0499969211058001,left,0.004093050956726,-0.3055049464496532,-3.446079195785522,-8.694528131288289,-0.1540457347471114,0.0408746637403965,-0.0020703375339508,2.949593316948414,-0.0061322152614593
2025-04-30 00:42:16.718907600,12.52090771484375,-0.3773889336918545,0.0180801562964916,-0.1817261684861069,-0.011435205116868,0.0048006512315442,0.9712948576040455,-0.0486943534440401,left,0.0036011934280395,-0.3044657998548181,-3.4474919851928947,-8.697259602078795,-0.1534234310844346,0.0204945113509893,-0.0045830905437469,2.9398730101838706,-0.0028428137302398
2025-04-30 00:42:16.758907600,12.56090771484375,-0.3774602632193387,0.022109255194664,-0.1818176492747391,0.0043083392083644,0.0052348161320708,0.9712669620296926,-0.0478634992796639,left,-0.002034842967987,-0.3047324285832751,-3.447823409104347,-8.696284619566798,-0.1534770511148376,-0.0208586100488901,-0.003133088350296,2.942367457348108,0.0007866024971008
2025-04-30 00:42:16.798907400,12.600907470703126,-0.3771751985431795,0.0148889478296041,-0.1816641467008724,0.0150548433884978,0.005467660142708,0.9711937671307728,-0.0476029856917875,left,-0.0006300806999206,-0.30609056380312,-3.443869410781562,-8.693544380947946,-0.1541127434566099,-0.0344689525663852,-0.0039118826389312,2.955069702532888,-0.0019816160202026
2025-04-30 00:42:16.838907600,12.64090771484375,-0.3768157162967074,0.0067255590111017,-0.1814417591577393,0.0095052924007177,0.0055177091343161,0.9711195647942134,-0.0477288240730492,left,0.0048776865005493,-0.3075629152212766,-3.439139167389273,-8.690726400917768,-0.1548390848885996,-0.0326884277164936,-0.002524584531784,2.968834316252172,-0.0013070106506347
2025-04-30 00:42:16.878907600,12.68090771484375,-0.3764604362893894,-0.0007625459693372,-0.1812125115499254,0.0215037632733583,0.0054185716756671,0.9710720635438452,-0.0480905608138982,left,-0.0007205605506896,-0.3086667232030698,-3.434844685065746,-8.68889509383738,-0.1554080416861942,-0.027871124446392,-0.0002830624580383,2.979149081778526,0.0001997351646423
2025-04-30 00:42:16.918907600,12.72090771484375,-0.3755953997533269,-0.006385856308043,-0.1807267919564736,0.0279608983546495,0.0051824977157024,0.971082859828715,-0.0486200495028374,left,0.0031261444091796,-0.3096050715386063,-3.426300144082308,-8.689258666452766,-0.1559132022536235,-0.0210296809673309,-0.001719057559967,2.987915156558156,-0.0030233860015869
2025-04-30 00:42:16.958907600,12.76090771484375,-0.3747644059760514,-0.008259268477559,-0.1802729431972778,0.0265002530068159,0.004896179837627,0.9711329119130456,-0.0491453499766162,left,0.0013696551322937,-0.3099623893712668,-3.4186870387300847,-8.691108678233624,-0.1561359506735634,-0.006804653443396,-0.0003256499767303,2.9912524842873216,-0.0039685070514678
2025-04-30 00:42:16.998907600,12.80090771484375,-0.3739292541944847,-0.003969685640186,-0.1798470288229876,0.0173293240368366,0.0046688987852462,0.9712189473358412,-0.0494526337303059,left,0.0044574737548828,-0.3098250716132497,-3.4115774989858267,-8.694343422371148,-0.156099027559552,-1.06948427855e-05,-0.0032893121242523,2.989969751000404,-0.0031654238700866
2025-04-30 00:42:17.038907600,12.84090771484375,-0.3734712738230664,-0.0040612174198031,-0.1795980314031899,0.0166219882667064,0.0045124794640432,0.9712479873299522,-0.0497345862577838,left,-0.0015515685081481,-0.3099987483159186,-3.4074057662591337,-8.695421280735731,-0.1562096310745674,-0.0246603358536958,-0.002361387014389,2.9915917992442846,-0.0003773570060729
2025-04-30 00:42:17.078907400,12.880907470703123,-0.3728579758136737,-0.016375508159399,-0.1791894312350501,0.0332222953438758,0.0040901541353042,0.9712157894807268,-0.050738878931249,left,-0.0028321743011474,-0.311211162356749,-3.400748646457493,-8.694124811184405,-0.1568889331801098,-0.0521201975643634,0.0014575123786926,3.0029128192037344,-2.59280204772e-05
2025-04-30 00:42:17.118907600,12.92090771484375,-0.3721546873184564,-0.0254993624985218,-0.1786673249894599,0.0314340852200984,0.0033232383388377,0.9711671579021908,-0.0525030375031109,left,0.0037484169006347,-0.3127644563862551,-3.392933004270494,-8.69215906406939,-0.1578011783785201,-0.0490468442440032,0.0011099278926849,3.017409838850796,0.0002488195896148
2025-04-30 00:42:17.158907600,12.96090771484375,-0.3716076531709623,-0.0102565512061119,-0.1782662639466945,0.0171341896057128,0.0027101882910609,0.9711435192634604,-0.0538693937117524,left,0.0047100782394409,-0.3137682610264704,-3.3870760949358343,-8.69118700416684,-0.1584105887330773,-0.0259899944067001,0.0004220902919769,3.0267747563064096,0.0036869645118713
2025-04-30 00:42:17.198907600,13.00090771484375,-0.3715094081204363,0.0111882332712411,-0.178181853647652,-0.0007537808269262,0.0026254733489411,0.9711106933101168,-0.0541362324941129,left,0.0037196278572082,-0.3143327290391633,-3.385601346208155,-8.689926774972676,-0.1587081381122859,-0.0149831185117363,-0.0003454089164733,3.0320395449668167,0.0047220885753631
2025-04-30 00:42:17.238907600,13.04090771484375,-0.3714144236978422,0.0159305483102798,-0.1781488781983507,-0.0002021358232013,0.0029173204719734,0.9710560278980822,-0.0536804731941178,left,0.0012376308441162,-0.315170399103922,-3.3838530412361023,-8.687878025749326,-0.1590737495908298,-0.0141289541497826,-0.0012587010860443,3.039850803239643,0.0021901726722717
2025-04-30 00:42:17.278907600,13.08090771484375,-0.3711650238773052,0.0019789887592196,-0.1780174336397538,0.0127766672521829,0.0030654576302512,0.9710117308100824,-0.0535045158070375,left,-0.0026891231536865,-0.3160565278473788,-3.3807077289476988,-8.68620804671049,-0.1594879965645832,-0.0171167738735675,0.0003488957881927,3.048111558845639,-0.0021165907382965
2025-04-30 00:42:17.318907400,13.120907470703123,-0.3707349793602897,-0.0183347016572952,-0.1777496623085822,0.0191222131252288,0.0027793199883266,0.9710202072630422,-0.0541018012357527,left,0.0013390183448791,-0.3164665370447241,-3.3765190450862046,-8.686495631480216,-0.1597404806689033,-0.008863978087902,0.0005586743354797,3.0519328706994653,-0.0040909349918365
2025-04-30 00:42:17.358907600,13.16090771484375,-0.3706574101432138,-0.0202090628445148,-0.17763658811935,0.0054798480123281,0.0022559484679221,0.9710451176957996,-0.0551240517590055,left,0.0034475326538085,-0.3162424115679022,-3.376092928628623,-8.687395210668445,-0.159722771166282,-0.0056704971939325,0.0004368126392364,3.04984408172667,0.000573456287384
2025-04-30 00:42:17.398907600,13.20090771484375,-0.3707169259100872,-0.0050511723384261,-0.177624287826882,0.0098320795223116,0.0019476293448683,0.9710582624398446,-0.0557232454949751,left,-0.0038297772407531,-0.3160045357069081,-3.3768726808294653,-8.68786984244287,-0.1596606213581781,-0.0039291279390454,-0.0023527443408966,3.0476269901990887,0.0015164017677307
2025-04-30 00:42:17.438907600,13.24090771484375,-0.3702731685409744,0.0116497008129954,-0.1774022877992215,0.0064458232372999,0.0019641687417306,0.9710716598397412,-0.0556828971999855,left,0.0054138898849487,-0.31635265469244,-3.372632851302624,-8.688378376486897,-0.1598262020033002,-0.00679212808609,-0.0029872059822082,3.050871671208739,0.0017164349555969
2025-04-30 00:42:17.478907600,13.28090771484375,-0.369979730425439,0.0212622620165348,-0.1772896779761197,0.0024701645597815,0.0023076461560496,0.9710438112004534,-0.0550626513740646,left,0.0036781430244445,-0.3170603659771503,-3.3693016610533,-8.687351956048607,-0.1601145867341178,-0.0105994660407304,-0.001709371805191,3.057466831690073,0.0017376840114593
2025-04-30 00:42:17.518907600,13.32090771484375,-0.3696681668052881,0.0207749456167221,-0.1771764669774023,0.0071815606206655,0.0026917283225217,0.9710193302137266,-0.0543506942253721,left,0.0026832818984985,-0.317742918047514,-3.365840122422576,-8.68645354590416,-0.1603827171704212,-0.0041802646592259,-0.0004575550556182,3.063825845327973,0.0019385814666748
2025-04-30 00:42:17.558907400,13.360907470703124,-0.3692127380418653,0.0301498696208,-0.177034402623478,0.0044964333064854,0.0032105290320917,0.9710357726617384,-0.0532633760010121,left,0.0014638304710388,-0.3180385771002614,-3.3615564537540075,-8.687140359124541,-0.160430421422141,0.0091654835268855,-0.0001091957092285,3.0665801124721765,0.0011768341064453
2025-04-30 00:42:17.598907600,13.40090771484375,-0.3687987805388688,0.0260987803339958,-0.1769323203470924,0.0044835861772298,0.0038281403761291,0.9710548653852816,-0.0519615015791899,left,-0.0006704926490783,-0.3182408333065631,-3.3577366032049056,-8.687952260029315,-0.1604139884330926,0.0033314176835119,0.0005475878715515,3.068464026522636,0.0015944242477416
2025-04-30 00:42:17.638907600,13.44090771484375,-0.3686503008626546,0.0043002013117074,-0.1769036618347176,-0.006191587075591,0.0041959945659235,0.9710321569017502,-0.0512662682085923,left,0.0020903944969177,-0.3186973760753092,-3.3559415364816783,-8.68714328173399,-0.1605740971054635,-0.0066778571344912,0.0009002685546875,3.072716131009161,-0.0018194913864135
2025-04-30 00:42:17.678907600,13.48090771484375,-0.3686503008626546,-0.0191640183329582,-0.1769036618347176,0.0050312085077166,0.0041959945659235,0.9710321569017502,-0.0512662682085923,left,0.0004286170005798,-0.3186973760753092,-3.3559415364816783,-8.68714328173399,-0.1605740971054635,-0.0143121154978871,0.001843899488449,3.072716131009161,-0.0017165541648864
2025-04-30 00:42:17.718907600,13.52090771484375,-0.3690616738108339,-0.0317627564072608,-0.1769630545369397,-0.0025800778530538,0.003488021052054,0.9709673999010175,-0.0528717756330918,left,0.0014083385467529,-0.319112764724954,-3.3590541155442595,-8.684570800897479,-0.1609167002314621,-0.0156815685331821,0.0004027187824249,3.076584204614162,-0.0010112524032592
2025-04-30 00:42:17.758907600,13.56090771484375,-0.3695101930615211,-0.0247636698186397,-0.1770496621728396,0.0053722443990409,0.0027689406834025,0.9709197128008676,-0.0544536063307698,left,-0.0003622174263,-0.3192502016116263,-3.362796224682033,-8.682668766668439,-0.1611226206048217,-0.0120742106810212,0.0002610981464385,3.077864015291631,0.0013314485549926
2025-04-30 00:42:17.798907400,13.600907470703126,-0.3696975829458933,-0.005667770281434,-0.1770725816776251,-0.0016335169784724,0.0024098111983796,0.970893834799884,-0.0552506168462328,left,0.0042079091072082,-0.3193868147195997,-3.3642709734097123,-8.681646437883376,-0.1612591460181194,-0.0067260190844535,-0.000774323940277,3.079135934923589,0.0038948953151702
2025-04-30 00:42:17.838907600,13.64090771484375,-0.3699173983473692,0.0101749077439308,-0.1771651861870408,-0.0032628467306494,0.0024510292290212,0.9708431358134862,-0.0552814543763722,left,0.000340461730957,-0.3198008536427808,-3.365718249608576,-8.679717515647411,-0.1614622547863301,-0.010689590126276,0.0002547800540924,3.082990564525127,0.0044346749782562
2025-04-30 00:42:17.878907600,13.68090771484375,-0.3699005574238879,0.0130833331495523,-0.1771627791849782,-0.0016336498083546,0.0026735408925095,0.9707892251527548,-0.0549589344406886,left,0.003105342388153,-0.320525457562749,-3.364763433101773,-8.67768864016831,-0.1617848592090801,-0.005893507041037,-0.0004482865333557,3.0897353626102206,-0.0002573728561401
