time,seconds_elapsed,roll,rotationRateZ,quaternionY,rotationRateY,quaternionZ,quaternionW,yaw,devicelocation,accelerationZ,pitch,gravityX,gravityZ,quaternionX,rotationRateX,accelerationX,gravityY,accelerationY
2025-04-30 00:58:56.366609700,0.206609619140625,0.0007188976388402,0.0037232865579426,0.0003502687616156,-0.0037550281267613,2.830100531052356e-17,0.991511003224224,9.42726941202e-05,left,-0.0011423495598137,-0.2607820581381642,0.0068116076812759,-9.47507119024694,-0.130021878479698,-0.049859020859003,-0.0011091313790529,2.52850988509804,0.00546715548262
2025-04-30 00:58:56.406609400,0.246609375,0.0005779387321224,0.0104930279776453,0.0002505545636579,0.0042942082509398,0.0002339617014054,0.9913795687042718,0.0005483719722742,left,-0.0032289624214172,-0.2627953317394827,0.0054730588329373,-9.469962468931078,-0.131019969543557,-0.0510660931468009,-0.0003086383803747,2.5475807885319,0.0067975521087646
2025-04-30 00:58:56.446609400,0.286609375,0.0004378500318902,0.0172627680003643,0.0001508367336028,0.012343443930149,0.0004679467709857,0.991247164172466,0.0010024718709308,left,-0.005319595336914,-0.264808713305387,0.0041441697225658,-9.46481458464861,-0.1320179288432446,-0.0522731654345989,0.0004908584523946,2.566642339615524,0.0081288814544677
2025-04-30 00:58:56.486609400,0.326609375,-0.0019172021606804,0.0153713710606098,-0.0010156542062857,0.0154051193967461,0.000613533078774,0.990920291436035,0.0009781886566434,left,-0.00044846534729,-0.2697073682229514,-0.0181216318934981,-9.45211117042005,-0.134444794051594,-0.0678661316633224,0.0012082195607945,2.6129762207672,0.0097316801548004
2025-04-30 00:58:56.526609700,0.366609619140625,-0.0013879959501807,0.006062064319849,-0.0007753357469879,0.0122530348598957,0.0007361600785658,0.9907998287684848,0.0012964071521181,left,0.0037600398063659,-0.271496634257186,-0.0131130031013803,-9.44742915008366,-0.1353312751139199,-0.0647355169057846,0.0009964732453227,2.629884393209218,0.0067268908023834
2025-04-30 00:58:56.566609700,0.406609619140625,-0.0010923437537738,0.0044198725372552,-0.0006464063470978,0.0057213264517486,0.0008363265049731,0.990556144357457,0.0015374069289465,left,0.0046440958976745,-0.2750745511985108,-0.0103095048293471,-9.437962818080186,-0.1371035889722644,-0.0549133270978927,0.0015794397331774,2.6636694661721587,0.0073458552360534
2025-04-30 00:58:56.606594600,0.446594482421875,-0.0008450251065561,0.0049826260656118,-0.000545211557036,0.0042835529893636,0.0009643010759806,0.9903447559497668,0.001829122932399,left,5.358713679e-06,-0.2781398067474899,-0.0079683833508315,-9.429756130748986,-0.1386216110443313,-0.0390469580888748,0.0013111017178744,2.6925869330987333,0.0039302823133766
2025-04-30 00:58:56.646594600,0.486594482421875,-0.0005615546023583,0.0050971405580639,-0.0004236644350165,0.0034546677488833,0.0010760649526952,0.990284346397281,0.0020943917251271,left,-0.0009361505508422,-0.2790087497593486,-0.0052940090466698,-9.427414536058905,-0.1390519580241273,-0.0239995438605546,0.0020066830329596,2.7007795919045803,0.0025351643562316
2025-04-30 00:58:56.686594800,0.5265947265625,-0.0002777617753938,0.0052116550505161,-0.0003021131232648,0.002625782508403,0.0011878402066163,0.9902237686417424,0.0023600081770457,left,-0.0018784403800964,-0.2798776623473728,-0.0026179234176786,-9.425065342584253,-0.1394822888793495,-0.0089521287009119,0.0027020988054573,2.708970204883814,0.0011402666568756
2025-04-30 00:58:56.726594600,0.566594482421875,6.3528609551e-06,0.0053261690773069,-0.0001805590439316,0.0017968975007534,0.0012996325263474,0.9901629385816252,0.0026259840943471,left,-0.0028215050697326,-0.2807464768672998,5.98609958925e-05,-9.422708550325035,-0.1399125825846166,0.0060952855274081,0.0033973467070609,2.717157895253598,-0.0002543032169342
2025-04-30 00:58:56.766594600,0.606594482421875,6.3528609551e-06,0.0097110942006111,-0.0001805590439316,0.0037316791713237,0.0012996325263474,0.9901629385816252,0.0026259840943471,left,0.0004429817199707,-0.2807464768672998,5.98609958925e-05,-9.422708550325035,-0.1399125825846166,0.0127050448209047,0.0020610450301319,2.717157895253598,0.0001606941223144
2025-04-30 00:58:56.806594600,0.646594482421875,0.0005421529084155,0.0089062172919511,3.76539754709e-05,-0.0048376657068729,0.001597536135639,0.9901897208714217,0.0033032244920974,left,0.0008727312088012,-0.2803572481631853,0.0051091220330155,-9.42376419685781,-0.139720237792113,0.0095151970162987,0.0019687749445438,2.713490020395815,9.65595245361e-05
2025-04-30 00:58:56.846594600,0.686594482421875,0.0007456534068147,0.0113362371921539,8.74329942038e-05,-0.0019682932179421,0.0019472245932777,0.9902134581852708,0.0040380146871797,left,-0.0001857280731201,-0.2800066332286239,0.0070275713948503,-9.42471346040666,-0.1395468631926641,0.0099321017041802,0.001762052765116,2.710185718153417,-0.0040923058986663
2025-04-30 00:58:56.886594600,0.726594482421875,0.0007456534068147,0.0064198127947747,8.74329942038e-05,-0.0051473071798682,0.0019472245932777,0.9902134581852708,0.0040380146871797,left,0.0002083778381347,-0.2800066332286239,0.0070275713948503,-9.42471346040666,-0.1395468631926641,0.0057008387520909,0.0023617285769432,2.710185718153417,-0.0021415054798126
2025-04-30 00:58:56.926594600,0.766594482421875,0.0006539030486753,0.0015265196561813,2.06717783471e-05,-0.0052181668579578,0.002106566701162,0.9902265594132942,0.0043467980137429,left,0.0001238584518432,-0.2798156930263106,0.0061631891008786,-9.425231346800922,-0.1394522289467561,2.94130295515e-05,0.0042909039184451,2.708386267516017,-0.0012003779411315
2025-04-30 00:58:56.966594800,0.8065947265625,0.0006539030486753,-0.0010213884525001,2.06717783471e-05,-0.0107049997895956,0.002106566701162,0.9902265594132942,0.0043467980137429,left,0.0060823559761047,-0.2798156930263106,0.0061631891008786,-9.425231346800922,-0.1394522289467561,0.0065331906080245,0.0040944013744592,2.708386267516017,-0.0057908594608306
2025-04-30 00:58:57.006594600,0.846594482421875,8.56192386263e-05,0.0017984895966947,-0.0002731984341176,-0.0316803231835365,0.0022392582061186,0.9902626969746744,0.0045345808564762,left,0.0051413774490356,-0.2792933215010137,0.0008071022883043,-9.426647058817744,-0.1391929635031936,0.0073982132598757,0.0002705054939724,2.703462255117297,-0.0021473169326782
2025-04-30 00:58:57.046594600,0.886594482421875,-0.0012015036497089,0.0038379742763936,-0.0009329714542529,-0.0358994752168655,0.0024893991831464,0.9902674081685728,0.0048588834998837,left,-0.002387523651123,-0.2792141735054374,-0.0113264062373316,-9.426853979566692,-0.1391521588701968,-0.0131154796108603,-0.0012502671452239,2.702716405186057,0.0032764971256256
2025-04-30 00:58:57.086594600,0.926594482421875,-0.0023776237430382,0.0033812483306974,-0.0015373494618305,-0.0133293252438306,0.0027195881124655,0.9901930001714918,0.005157651154477,left,-0.0026578903198242,-0.2802648922609086,-0.0224067447421257,-9.42398923778534,-0.1396706768533271,-0.0272607803344726,-0.0030663018114864,2.712619667302072,0.0018215179443359
2025-04-30 00:58:57.126594600,0.966594482421875,-0.0027340634414507,-0.0008785945829004,-0.0017154462523052,-0.0049637639895081,0.0027504082221252,0.9901432947323646,0.0051689159322067,left,-0.0013220906257629,-0.2809729888907737,-0.0257605692316545,-9.422057977461815,-0.1400207318413963,-0.0138715840876102,-0.0041364273056387,2.719292276933789,0.0016117095947265
2025-04-30 00:58:57.166594600,1.006594482421875,-0.0027340634414507,-0.001305368496105,-0.0017154462523052,-0.0063939848914742,0.0027504082221252,0.9901432947323646,0.0051689159322067,left,0.0023627281188964,-0.2809729888907737,-0.0257605692316545,-9.422057977461815,-0.1400207318413963,-0.0035895127803087,-0.003641196526587,2.719292276933789,0.0046978592872619
2025-04-30 00:58:57.206594800,1.0465947265625,-0.0037542214318134,-0.0007432028651237,-0.0022138163345191,-0.0026026973500847,0.0027713320610626,0.9901106197924068,0.0050662277466773,left,-0.0015136003494262,-0.2814254498978336,-0.0353679194243042,-9.420794825658202,-0.1402434373090023,0.0034236521460115,-0.0002712281420826,2.7235549028143287,0.001550406217575
2025-04-30 00:58:57.246594600,1.086594482421875,-0.0039468717141183,0.0046892412938177,-0.002319303712026,-0.0110545875504612,0.0028570024594234,0.9901174705924924,0.0052121567655924,left,0.0067842006683349,-0.2813233639392891,-0.0371839353207265,-9.421066043815015,-0.1401924458695618,0.0100871510803699,-0.0045302673242986,2.7225933643057942,0.0019207894802093
2025-04-30 00:58:57.286594600,1.126594482421875,-0.0046415631733721,0.0137317609041929,-0.0027008111990097,-0.0121108051389455,0.003173479571114,0.9901357087778088,0.005753611632925,left,-0.0043642520904541,-0.2810387782790301,-0.0437322564190719,-9.421812478268146,-0.1400498327651693,0.0026571718044579,-0.0006089238449931,2.7199121623978018,0.0028432607650756
2025-04-30 00:58:57.326594600,1.166594482421875,-0.0046415631733721,0.0153850838541984,-0.0027008111990097,0.002280700020492,0.003173479571114,0.9901357087778088,0.005753611632925,left,0.0005136728286743,-0.2810387782790301,-0.0437322564190719,-9.421812478268146,-0.1400498327651693,-0.0077342302538454,-0.0007399688474833,2.7199121623978018,0.0014157891273498
2025-04-30 00:58:57.366594600,1.206594482421875,-0.0046479482262064,0.0069500934332609,-0.0027672768692057,-0.0016395249404013,0.003616263207654,0.9900958728520098,0.0066460867100303,left,0.0017386078834533,-0.2815847750698673,-0.0437855027099605,-9.420325454580784,-0.1403189078989637,-0.0048530725762248,7.51274637877e-05,2.7250559550270435,-0.0002362430095672
2025-04-30 00:58:57.406594600,1.246594482421875,-0.0048934186508716,0.0056472108699381,-0.0029202873798864,-0.0067823696881532,0.0038515393672681,0.9900661642617674,0.007085767253452,left,0.0012828111648559,-0.2819914446153573,-0.0460924873109674,-9.419205510640143,-0.1405191404495928,-0.0036484380252659,-0.0002057114616036,2.7288866192311048,0.0025556981563568
2025-04-30 00:58:57.446594800,1.2865947265625,-0.0048934186508716,0.0063875680789351,-0.0029202873798864,-0.0080927209928631,0.0038515393672681,0.9900661642617674,0.007085767253452,left,0.0005183815956115,-0.2819914446153573,-0.0460924873109674,-9.419205510640143,-0.1405191404495928,-0.0039411070756614,-0.0002994984388351,2.7288866192311048,0.0011107325553894
2025-04-30 00:58:57.486594600,1.326594482421875,-0.0051323721080622,0.0048576658591628,-0.0030692232099573,-0.0034436350688338,0.0040807597679828,0.990042298048,0.0075142380243421,left,6.98566436767e-05,-0.2823142452878129,-0.0483387136014876,-9.418312945714591,-0.1406778152707777,-0.0020272922702133,-0.0007086624391376,2.7319273021012545,0.0005747377872467
2025-04-30 00:58:57.526594600,1.366594482421875,-0.0051323721080622,0.0002294341102242,-0.0030692232099573,-0.010492892935872,0.0040807597679828,0.990042298048,0.0075142380243421,left,0.0032839775085449,-0.2823142452878129,-0.0483387136014876,-9.418312945714591,-0.1406778152707777,-0.0019239806570112,-0.0007926821708679,2.7319273021012545,0.0005379021167755
2025-04-30 00:58:57.566594600,1.406594482421875,-0.0051323721080622,0.0025328658521175,-0.0030692232099573,-0.0013705734163522,0.0040807597679828,0.990042298048,0.0075142380243421,left,-0.0015044808387756,-0.2823142452878129,-0.0483387136014876,-9.418312945714591,-0.1406778152707777,0.0072357528842985,0.0022767237387597,2.7319273021012545,0.0014413297176361
2025-04-30 00:58:57.606594600,1.446594482421875,-0.0051323721080622,0.0025824825279414,-0.0030692232099573,-0.0011740748304873,0.0040807597679828,0.990042298048,0.0075142380243421,left,0.0002228021621704,-0.2823142452878129,-0.0483387136014876,-9.418312945714591,-0.1406778152707777,0.0074330568313598,0.0002757394686341,2.7319273021012545,0.001550406217575
2025-04-30 00:58:57.646594600,1.486594482421875,-0.0051323721080622,0.000569780357182,-0.0030692232099573,-0.0050908476114273,0.0040807597679828,0.990042298048,0.0075142380243421,left,0.0015145540237426,-0.2823142452878129,-0.0483387136014876,-9.418312945714591,-0.1406778152707777,0.0065264259465038,-0.0005496027879416,2.7319273021012545,-0.0002352595329284
2025-04-30 00:58:57.686594800,1.5265947265625,-0.0056612049528898,0.001166887464933,-0.0033816297124554,-0.0050655221566557,0.0044801859098379,0.9900751446731176,0.0082471110860628,left,0.0018486380577087,-0.2818116626005919,-0.0533271878048544,-9.419657930582762,-0.140426715652141,0.0064511294476687,-0.000958904158324,2.7271932593166825,0.0009182393550872
2025-04-30 00:58:57.726594600,1.566594482421875,-0.0056612049528898,-0.0027559879235923,-0.0033816297124554,-0.0053771552629768,0.0044801859098379,0.9900751446731176,0.0082471110860628,left,0.0002075433731079,-0.2818116626005919,-0.0533271878048544,-9.419657930582762,-0.140426715652141,-0.0013206633739173,-0.0024328548461198,2.7271932593166825,0.0028697848320007
2025-04-30 00:58:57.766594600,1.606594482421875,-0.0056612049528898,-0.0016411590622738,-0.0033816297124554,-8.48588533699e-05,0.0044801859098379,0.9900751446731176,0.0082471110860628,left,-0.0006647706031799,-0.2818116626005919,-0.0533271878048544,-9.419657930582762,-0.140426715652141,0.0002520412672311,-0.0020983819849789,2.7271932593166825,0.0018513202667236
2025-04-30 00:58:57.806594600,1.646594482421875,-0.0056612049528898,-0.0053424932993948,-0.0033816297124554,-0.0072335498407483,0.0044801859098379,0.9900751446731176,0.0082471110860628,left,0.0040481090545654,-0.2818116626005919,-0.0533271878048544,-9.419657930582762,-0.140426715652141,0.0137333925813436,-0.0033626034855842,2.7271932593166825,0.0004369914531707
2025-04-30 00:58:57.846594600,1.686594482421875,-0.0064962548762641,-0.0046508554369211,-0.0037700836603695,-0.0049767498858273,0.0043664359608116,0.990096218244552,0.0078997265809518,left,0.000727355480194,-0.2815013807146327,-0.0611985468010418,-9.420455802962184,-0.1402718836179765,0.0153528181836009,-0.0014784415252506,2.724270357607305,0.0007695853710174
2025-04-30 00:58:57.886594600,1.726594482421875,-0.0066751420974827,7.53318890929e-05,-0.0038453241501206,0.0026959306560456,0.004296424135847,0.9901726317568826,0.0077360033922409,left,-0.0006573796272277,-0.2804103307876655,-0.0629035469209076,-9.423411730158328,-0.139731661308842,0.020466798916459,-0.00069215381518,2.713990371133387,6.8247318267e-06
2025-04-30 00:58:57.926594600,1.766594482421875,-0.0068537926379551,0.0048015182837843,-0.003920557682558,0.0103686107322573,0.0042263509637694,0.9902487031745048,0.0075724122934384,left,-0.0020433068275451,-0.2793192204858807,-0.0646073049317579,-9.42635596691668,-0.1391913857251787,0.0255807805806398,9.39946621656e-05,2.703706585267186,-0.0007555782794952
2025-04-30 00:58:57.966594800,1.8065947265625,-0.0064496376743415,0.0067858984693884,-0.0037336198965035,0.008574984036386,0.0043003680921883,0.9903035565895932,0.0077808136815008,left,0.0030162930488586,-0.2785352071858172,-0.06081124168362,-9.428497655120491,-0.1388036485285876,0.0246489606797695,-0.0006357920356094,2.6963150137111542,-0.0026345252990722
2025-04-30 00:58:58.006594600,1.846594482421875,-0.0063160034147695,0.0081906393170356,-0.0036945964382891,-0.004936815239489,0.0044947887707552,0.9903626254534816,0.0081944196823139,left,0.0041048526763916,-0.2776738330246094,-0.0595659177976427,-9.430824636763331,-0.1383766448599051,0.0087896678596735,-0.0005930396728217,2.6881924975320697,-0.0027118027210235
2025-04-30 00:58:58.046594600,1.886594482421875,-0.0063160034147695,0.0045484714210033,-0.0036945964382891,-0.0085323685780167,0.0044947887707552,0.9903626254534816,0.0081944196823139,left,-0.0003864765167236,-0.2776738330246094,-0.0595659177976427,-9.430824636763331,-0.1383766448599051,0.0003428701311349,0.0001190854236483,2.6881924975320697,-0.0022601187229156
2025-04-30 00:58:58.086594600,1.926594482421875,-0.0067374434697578,0.004856557585299,-0.0039330204916442,-0.0100399954244494,0.004738835396655,0.9903725005230328,0.0086288463737552,left,0.0030403137207031,-0.277504566422542,-0.0635435070585692,-9.431253675830364,-0.138291029166078,0.0013120570220053,-0.0017561251297593,2.686596168251336,-0.0045205056667327
2025-04-30 00:58:58.126594600,1.966594482421875,-0.0067374434697578,0.0056723593734204,-0.0039330204916442,0.0107159586623311,0.004738835396655,0.9903725005230328,0.0086288463737552,left,-0.0068331360816955,-0.277504566422542,-0.0635435070585692,-9.431253675830364,-0.138291029166078,-0.0010566746350377,0.0008200551383197,2.686596168251336,-0.0015847086906433
2025-04-30 00:58:58.166594600,2.006594482421875,-0.0061628194389376,0.0034039707388728,-0.0036773698275626,0.010904730297625,0.0049059062074245,0.9903718885765568,0.0090464501416393,left,-0.0005465149879455,-0.2775142546528844,-0.0581239068623632,-9.431262443658708,-0.1382964215999328,-0.0072166165336966,0.0006928285583853,2.6866873536661267,-0.0003125667572021
2025-04-30 00:58:58.206594800,2.0465947265625,-0.0061628194389376,0.0001385931391268,-0.0036773698275626,0.005082547198981,0.0049059062074245,0.9903718885765568,0.0090464501416393,left,0.0014811158180236,-0.2775142546528844,-0.0581239068623632,-9.431262443658708,-0.1382964215999328,-0.0033355902414768,0.0020417827181518,2.6866873536661267,-0.0008346736431121
2025-04-30 00:58:58.246594600,2.086594482421875,-0.0061628194389376,0.0074709495529532,-0.0036773698275626,0.0004689446650445,0.0049059062074245,0.9903718885765568,0.0090464501416393,left,0.0016036033630371,-0.2775142546528844,-0.0581239068623632,-9.431262443658708,-0.1382964215999328,-0.0022180960513651,0.0018887701444327,2.6866873536661267,0.0009846687316894
2025-04-30 00:58:58.286594600,2.126594482421875,-0.0054527764445115,0.0094685554504394,-0.0033757897745158,-0.0058640539646148,0.005208474801018,0.9903409443157052,0.0097557235987897,left,0.0010134577751159,-0.2779535060140468,-0.0514208518600324,-9.430120872408152,-0.1385144748369398,-0.0036044721491634,0.0019410580862313,2.690829860298336,0.0001076459884643
2025-04-30 00:58:58.326594600,2.166594482421875,-0.0054527764445115,0.0030353036709129,-0.0033757897745158,-0.0087252249941229,0.005208474801018,0.9903409443157052,0.0097557235987897,left,8.34465026855e-05,-0.2779535060140468,-0.0514208518600324,-9.430120872408152,-0.1385144748369398,-0.0078850304707884,0.0019843068439513,2.690829860298336,0.0002206563949584
2025-04-30 00:58:58.366594600,2.206594482421875,-0.0054527764445115,-0.0019590486772358,-0.0033757897745158,-0.0103606153279542,0.005208474801018,0.9903409443157052,0.0097557235987897,left,0.0014733076095581,-0.2779535060140468,-0.0514208518600324,-9.430120872408152,-0.1385144748369398,-0.0037284675054252,-0.0003579771146178,2.690829860298336,-0.0019193887710571
2025-04-30 00:58:58.406594600,2.246594482421875,-0.0062477163868087,-0.0013619791716337,-0.0037774193135379,0.0012353304773569,0.0053118397822053,0.990297286356074,0.0098518137492257,left,-0.003933310508728,-0.2785581838800474,-0.0589070383303798,-9.428447970759867,-0.1388116327631693,0.0006438177078962,0.0011046021245419,2.696531871332228,-0.0018193125724792
2025-04-30 00:58:58.446594800,2.2865947265625,-0.0062477163868087,-0.0025797395501285,-0.0037774193135379,0.0006826247554272,0.0053118397822053,0.990297286356074,0.0098518137492257,left,-0.0010944008827209,-0.2785581838800474,-0.0589070383303798,-9.428447970759867,-0.1388116327631693,-0.0008485475555062,0.0003861123695969,2.696531871332228,-0.0005613267421722
2025-04-30 00:58:58.486594600,2.326594482421875,-0.0060684779700717,-0.0020440754014998,-0.0036625115550467,0.0069223530590534,0.0051140519449,0.990304860645832,0.0094777003574497,left,-0.0007786154747009,-0.2784682143297477,-0.0572185692202067,-9.428701068738102,-0.1387682441785095,-0.0012172238202765,0.0038682909216731,2.695683437809348,-4.37796115875e-05
2025-04-30 00:58:58.526594600,2.366594482421875,-0.0060684779700717,-0.0061909286305308,-0.0036625115550467,0.0025139516219496,0.0051140519449,0.990304860645832,0.0094777003574497,left,0.0026047229766845,-0.2784682143297477,-0.0572185692202067,-9.428701068738102,-0.1387682441785095,0.00287054060027,0.0040167085826396,2.695683437809348,-0.0008917152881622
2025-04-30 00:58:58.566594600,2.406594482421875,-0.0060684779700717,-0.0063355527818202,-0.0036625115550467,-0.0018848404288291,0.0051140519449,0.990304860645832,0.0094777003574497,left,0.0021533370018005,-0.2784682143297477,-0.0572185692202067,-9.428701068738102,-0.1387682441785095,-0.0037107765674591,0.0039710481651127,2.695683437809348,-0.0001924633979797
2025-04-30 00:58:58.606594600,2.446594482421875,-0.0063595973435621,-0.0217139031738042,-0.0037291561057699,-0.0166476741433143,0.0045790512834583,0.9902947373775636,0.0083559728443139,left,0.0024623870849609,-0.2786446780157509,-0.0599604198408313,-9.428207732263209,-0.1388569954006609,-0.0078334789723157,0.0024505984038114,2.6973472793683406,-0.0012950301170349
2025-04-30 00:58:58.646594600,2.486594482421875,-0.0069590943577544,-0.0281406827270984,-0.0039608074138484,-0.0116088725626468,0.0041529496131227,0.9902759276087976,0.0074105152565843,left,0.0020512342453002,-0.2789296620821195,-0.0656072392219211,-9.42740109205544,-0.1389986016228386,-0.007965238764882,0.0027900957502424,2.700034034234285,-0.0001488327980041
2025-04-30 00:58:58.686594800,2.5265947265625,-0.0076887588643626,-0.0381865985691547,-0.0042181797282718,-0.0119138099253177,0.0034612115357731,0.990255413882176,0.0059099592246957,left,0.0031650066375732,-0.2792436234985605,-0.0724795407107798,-9.426502681910993,-0.1391557399953537,-0.004610133357346,0.0022375769913196,2.702993760822713,0.0009660422801971
2025-04-30 00:58:58.726594600,2.566594482421875,-0.0085409110492976,-0.0230342410504817,-0.0045211405592816,-0.0103950724005699,0.0026741608158785,0.9902606847594576,0.0042008787709971,left,0.0009394288063049,-0.2791782185872262,-0.0805138351837173,-9.426614325591922,-0.1391257885772493,0.0056777354329824,0.0004768474027514,2.7023773824900386,0.0054177343845367
2025-04-30 00:58:58.766594600,2.606594482421875,-0.0089057567868452,-0.0025830883532762,-0.0046718508768458,-0.010340548120439,0.002487367404283,0.9902868293185751,0.0037739456829769,left,-0.0010814666748046,-0.2787995295070304,-0.0839622038056142,-9.427606843760609,-0.1389387809911078,0.0131051419302821,0.0004614386707544,2.698807122787833,0.00602388381958
2025-04-30 00:58:58.806594600,2.646594482421875,-0.0092362135403101,0.0179948601871728,-0.004866250299171,-0.0164473783224821,0.0027313541206227,0.990323820438511,0.0042227297451249,left,0.0008424520492553,-0.278247236461691,-0.0870913686768151,-9.429067563962937,-0.1386638054216438,0.0181783754378557,0.0001187203451991,2.6935999095335603,0.0027840137481689
2025-04-30 00:58:58.846594600,2.686594482421875,-0.009874793831686,0.026345245540142,-0.0052620235570592,-0.0278378129005432,0.0033475149703951,0.990371876098418,0.0053810708493695,left,0.0012198090553283,-0.2775042925540742,-0.0931323019420262,-9.431008761158584,-0.1382920165638596,0.0177788231521844,-0.000437282025814,2.686593537902832,-0.000140756368637
2025-04-30 00:58:58.886594600,2.726594482421875,-0.0112668461033173,0.0299504213035106,-0.0060625528193926,-0.0472488030791282,0.0042461603612015,0.9904229865349208,0.0070057995248721,left,0.0043665766716003,-0.2766614496663989,-0.1062861359523609,-9.433130575618147,-0.1378674066650342,0.0178605765104293,-0.003224479034543,2.6786434556812044,-0.0073720216751098
2025-04-30 00:58:58.926594600,2.766594482421875,-0.0121978480793738,0.0295914411544799,-0.0065932111363568,-0.0351720228791236,0.004813983701119,0.9904462286526624,0.0080251288913778,left,-0.0020334720611572,-0.2762476971612718,-0.1150818660847377,-9.43413536874652,-0.137657175804252,0.0058818068355321,-0.0031439010053873,2.674739726240933,-0.0041917264461517
2025-04-30 00:58:58.966594800,2.8065947265625,-0.0133975459747128,0.0209100134670734,-0.0072776665716437,-0.037223745137453,0.0055451705423464,0.9904293641757342,0.0093340603628149,left,0.0022280812263488,-0.2763827748327939,-0.1263950497976038,-9.43362917279005,-0.1377164249811817,-0.0130910854786634,-0.0068810814991593,2.6760142762213945,-0.0057399868965148
2025-04-30 00:58:59.006594600,2.846594482421875,-0.014450312244329,0.0160325951874256,-0.0078340399650587,-0.0341160371899604,0.0058649070587854,0.9903937938366956,0.0098304648604682,left,-0.0001338124275207,-0.2768212906393731,-0.1363094178295228,-9.432316336625814,-0.137928696385319,-0.0155609278008341,-0.0066315038129687,2.680151229895652,-0.0031231641769409
2025-04-30 00:58:59.046594600,2.886594482421875,-0.0154157877573477,0.0168802570551633,-0.0083642937984938,-0.0173914358019828,0.0062971066267391,0.990334317076076,0.0105634100683588,left,-0.0023178458213806,-0.2775938287355653,-0.1453840562348254,-9.430107428404687,-0.1383053381019028,-0.018168831244111,-0.0070299440994858,2.6874378797724843,-0.0017545521259307
2025-04-30 00:58:59.086594600,2.926594482421875,-0.0159791270187727,0.0145526882261037,-0.00869328800163,-0.0128286033868789,0.0066847957391494,0.9902758849833816,0.0112621061433859,left,-0.0007537603378295,-0.2783683396164584,-0.150663083483139,-9.427940021237731,-0.1386840494441435,-0.013596087694168,-0.0074965488165616,2.6947417730450627,-0.0012208819389343
2025-04-30 00:58:59.126594600,2.966594482421875,-0.016422060473576,0.0051077343523502,-0.0089440923420837,-0.0010334253311157,0.0069331597306795,0.990233797301078,0.0116975603442785,left,-0.0025047659873962,-0.2789262952638238,-0.1548143122779205,-9.426367657354474,-0.1389568699824903,-0.0094258021563291,-0.0047033913433551,2.700002470052242,-0.0020744800567626
2025-04-30 00:58:59.166594600,3.006594482421875,-0.016422060473576,0.0007860148325562,-0.0089440923420837,0.0013309794012457,0.0069331597306795,0.990233797301078,0.0116975603442785,left,-0.0015006065368652,-0.2789262952638238,-0.1548143122779205,-9.426367657354474,-0.1389568699824903,-0.007990388199687,-0.004162136465311,2.700002470052242,-0.0020032823085784
2025-04-30 00:58:59.206594800,3.0465947265625,-0.016422060473576,-0.0106302127242088,-0.0089440923420837,0.0111525515094399,0.0069331597306795,0.990233797301078,0.0116975603442785,left,-0.0024757981300354,-0.2789262952638238,-0.1548143122779205,-9.426367657354474,-0.1389568699824903,-0.0028024110943078,-0.0020038820803165,2.700002470052242,-0.0019047856330871
2025-04-30 00:58:59.246594600,3.086594482421875,-0.0161477215658647,-0.0114204538986086,-0.0087639108209076,0.0086635136976838,0.0065920411558327,0.9902020220489528,0.0110434002137525,left,0.000359833240509,-0.2794323940420117,-0.152206193872448,-9.425041961708663,-0.1392112685201871,-0.0080531490966677,-0.0029579475522041,2.704773337715864,0.0018698275089263
2025-04-30 00:58:59.286594600,3.126594482421875,-0.0161477215658647,-0.0035937968641519,-0.0087639108209076,0.0065695312805473,0.0065920411558327,0.9902020220489528,0.0110434002137525,left,0.000182569026947,-0.2794323940420117,-0.152206193872448,-9.425041961708663,-0.1392112685201871,-0.0060490258038043,-0.0002534482628107,2.704773337715864,0.0007093846797943
2025-04-30 00:58:59.326594600,3.166594482421875,-0.0158462972587985,-0.0037996280007064,-0.0085591772650772,0.0036034439690411,0.0061693768398904,0.9901598731038416,0.0102273362962603,left,0.0004996061325073,-0.2800915957583629,-0.1493369677122216,-9.423303009086847,-0.139542145633614,0.0018495536642149,-0.0007520364597439,2.7109865131422874,0.0009433031082153
2025-04-30 00:58:59.366594600,3.206594482421875,-0.0158462972587985,-0.0049284384585917,-0.0085591772650772,0.001144403591752,0.0061693768398904,0.9901598731038416,0.0102273362962603,left,0.0010551810264587,-0.2800915957583629,-0.1493369677122216,-9.423303009086847,-0.139542145633614,0.0005146184703335,-0.0004830071702599,2.7109865131422874,0.0009940564632415
2025-04-30 00:58:59.406594600,3.246594482421875,-0.0158462972587985,-0.0060572489164769,-0.0085591772650772,-0.0013146370183676,0.0061693768398904,0.9901598731038416,0.0102273362962603,left,0.0016108155250549,-0.2800915957583629,-0.1493369677122216,-9.423303009086847,-0.139542145633614,-0.0008203168399631,-0.0002139778807759,2.7109865131422874,0.0010448396205902
2025-04-30 00:58:59.446594800,3.2865947265625,-0.0158825750262323,-0.003656170098111,-0.0085603587561649,-7.2544207796e-06,0.0060503368778309,0.9901429924562958,0.0099799596766113,left,0.0007880330085754,-0.2803429828473752,-0.1496679988980293,-9.422615611344575,-0.1396675398564615,-7.03309779055e-05,0.0001188712194561,2.7133555803611875,0.0011804103851318
2025-04-30 00:58:59.486594600,3.326594482421875,-0.0158825750262323,-0.0003937883302569,-0.0085603587561649,0.0014043390983715,0.0060503368778309,0.9901429924562958,0.0099799596766113,left,0.0008478760719299,-0.2803429828473752,-0.1496679988980293,-9.422615611344575,-0.1396675398564615,0.0001982127141673,0.0005669118836522,2.7133555803611875,0.0008913278579711
2025-04-30 00:58:59.526594600,3.366594482421875,-0.0158825750262323,-3.58327233698e-05,-0.0085603587561649,-0.0009608798427507,0.0060503368778309,0.9901429924562958,0.0099799596766113,left,0.0008830428123474,-0.2803429828473752,-0.1496679988980293,-9.422615611344575,-0.1396675398564615,0.0005843306425958,0.000569749623537,2.7133555803611875,0.0001056194305419
2025-04-30 00:58:59.566594600,3.406594482421875,-0.0158825750262323,0.0006710801972076,-0.0085603587561649,-0.0051112789660692,0.0060503368778309,0.9901429924562958,0.0099799596766113,left,0.0015280246734619,-0.2803429828473752,-0.1496679988980293,-9.422615611344575,-0.1396675398564615,-0.0013797453138977,-0.0001264596357941,2.7133555803611875,-5.34951686859e-05
2025-04-30 00:58:59.606594600,3.446594482421875,-0.0158825750262323,0.0003202415828127,-0.0085603587561649,-0.0091799478977918,0.0060503368778309,0.9901429924562958,0.0099799596766113,left,0.0011748671531677,-0.2803429828473752,-0.1496679988980293,-9.422615611344575,-0.1396675398564615,-0.00290268054232,-0.0007358053699135,2.7133555803611875,-0.0007510483264923
2025-04-30 00:58:59.646594600,3.486594482421875,-0.0163473452743611,0.0031475527212023,-0.0087935786442835,-0.0054046465083956,0.0061005753983173,0.9901097235208232,0.0100125508057286,left,0.0019627809524536,-0.280788572963482,-0.1540275458144024,-9.421335508406164,-0.1398865835450081,-0.0054167667403817,-0.0010190904140472,2.7175544933557507,-0.001632809638977
2025-04-30 00:58:59.686594800,3.5265947265625,-0.0163473452743611,0.0060754232108592,-0.0087935786442835,-0.0064561474137008,0.0061005753983173,0.9901097235208232,0.0100125508057286,left,-0.0003994107246398,-0.280788572963482,-0.1540275458144024,-9.421335508406164,-0.1398865835450081,-0.0068223127163946,-0.0008613932877779,2.7175544933557507,0.0002731680870056
2025-04-30 00:58:59.726594600,3.566594482421875,-0.016594709129917,0.0119487568736076,-0.0089519013479238,-0.0018665748648345,0.0063644795494801,0.990058971045855,0.0105054983729987,left,-0.0003543496131896,-0.2814749741908571,-0.1563270549284294,-9.419429382523894,-0.1402234306940542,-0.0139751750975847,-0.0013524107635021,2.724021643543243,0.0004443824291229
2025-04-30 00:58:59.766594600,3.606594482421875,-0.0168116113167165,0.0076948958449065,-0.0090947613435377,-0.0082261022180318,0.0066216548000496,0.9900027787382032,0.0109884745905413,left,0.0018982291221618,-0.2822379494862497,-0.1583351616141386,-9.417314582327007,-0.1405982434997784,-0.0159806534647941,-0.0014281291514635,2.731208632437885,-0.0010064244270324
2025-04-30 00:58:59.806594600,3.646594482421875,-0.0171159253569987,0.0077777910046279,-0.0092721545264856,-0.00752495508641,0.0068236717698189,0.989953289598354,0.011348211946979,left,0.0015487074851989,-0.2829035811126166,-0.1611698187844827,-9.41544586584568,-0.1409250541257903,-0.0107757914811372,-0.0012738052755594,2.7374773374438286,-0.0003075003623962
2025-04-30 00:58:59.846594600,3.686594482421875,-0.0174056609106117,0.0052159922197461,-0.0094407119351065,-0.0076260049827396,0.0070158247595725,0.989922227165757,0.0116919902123553,left,0.0009520649909973,-0.2833081467247604,-0.1638785114875994,-9.41429085059166,-0.1411226895120188,-0.0068610291928052,-0.0017182491719722,2.741286958859861,-0.0001572370529174
2025-04-30 00:58:59.886594600,3.726594482421875,-0.0174056609106117,0.0032636076211929,-0.0094407119351065,-0.0070478441193699,0.0070158247595725,0.989922227165757,0.0116919902123553,left,0.0007621645927429,-0.2833081467247604,-0.1638785114875994,-9.41429085059166,-0.1411226895120188,-0.0046027512289583,-0.0041954480111598,2.741286958859861,0.0004633367061614
2025-04-30 00:58:59.926594600,3.766594482421875,-0.0178631077663355,0.0035194042138755,-0.0096814081215022,-0.0063852560706436,0.0071441474753572,0.9898955493606464,0.011883312880946,left,0.0005943179130554,-0.2836449513584296,-0.1681685368317179,-9.413291318160296,-0.1412868634048238,-0.0046226494014263,-0.0049533881247043,2.7444579901114103,0.0011887848377227
2025-04-30 00:58:59.966594800,3.8065947265625,-0.0178631077663355,0.000282509252429,-0.0096814081215022,0.0088421776890754,0.0071441474753572,0.9898955493606464,0.011883312880946,left,0.0005654096603393,-0.2836449513584296,-0.1681685368317179,-9.413291318160296,-0.1412868634048238,0.0030435863882303,-0.0030372962355613,2.7444579901114103,-0.0016499757766723
2025-04-30 00:59:00.006594600,3.846594482421875,-0.0178631077663355,-0.0029543861746788,-0.0096814081215022,0.0240696147084236,0.0071441474753572,0.9898955493606464,0.011883312880946,left,0.0005365014076232,-0.2836449513584296,-0.1681685368317179,-9.413291318160296,-0.1412868634048238,0.0107098221778869,-0.0011212043464183,2.7444579901114103,-0.0044887661933898
2025-04-30 00:59:00.046594600,3.886594482421875,-0.0173913608848955,-0.0075412141159176,-0.0094239394890732,0.0153476390987634,0.0069465663144487,0.9899213021846804,0.0115539385041902,left,0.0032770633697509,-0.2833288652784738,-0.1637429024091921,-9.414236490055918,-0.1411336471304905,0.0127363773062825,-0.0016014296561479,2.7414818969100714,-0.0022505521774291
2025-04-30 00:59:00.086594600,3.926594482421875,-0.0171903839120262,-0.0051176398992538,-0.009300289341372,0.008876965381205,0.0067663744837197,0.9899454009269618,0.0112209757985761,left,0.0009428262710571,-0.2830162620534489,-0.1618655824963003,-9.415125547850131,-0.1409811709604412,0.006979894824326,-0.0006904900074005,2.7385385369345543,-0.0011526644229888
2025-04-30 00:59:00.126594600,3.966594482421875,-0.0169776935730807,-0.0042254496365785,-0.0091796161721627,0.0075948052108287,0.0066455864440463,0.9899618586151768,0.0110088425449037,left,0.000390887260437,-0.2828080016403682,-0.1598727464449592,-9.415729943484068,-0.140879767466825,0.0027230554260313,-0.0008030142635107,2.736577173733711,-0.0004200339317321
2025-04-30 00:59:00.166594600,4.006594482421875,-0.0166264341234829,-0.0055428096093237,-0.0089908179587361,0.0075473468750715,0.0065170336837925,0.9899713278978708,0.0107998838986113,left,0.0010991692543029,-0.2827065399177576,-0.1565699968388304,-9.416063120961187,-0.1408316449725087,0.0031088814139366,0.0002036187797784,2.7356217727050183,-0.0007703304290771
2025-04-30 00:59:00.206594800,4.0465947265625,-0.0166264341234829,-0.0068601695820689,-0.0089908179587361,0.0074998885393142,0.0065170336837925,0.9899713278978708,0.0107998838986113,left,0.0017734766006469,-0.2827065399177576,-0.1565699968388304,-9.416063120961187,-0.1408316449725087,0.0034947074018418,0.0015470450744032,2.7356217727050183,-0.0012180507183074
2025-04-30 00:59:00.246594600,4.086594482421875,-0.0162142525869004,-0.0039514233358204,-0.008766607121085,0.0027464353479444,0.006347679857123,0.989984458366951,0.0105174684929644,left,0.00198894739151,-0.2825589144996306,-0.1526953930283431,-9.416530738472938,-0.1407611514483941,0.0025461458135396,0.001401262357831,2.734231487390399,0.0002748072147369
2025-04-30 00:59:00.286594600,4.126594482421875,-0.0162142525869004,0.0019590412266552,-0.008766607121085,-0.0020523271523416,0.006347679857123,0.989984458366951,0.0105174684929644,left,0.0009872317314147,-0.2825589144996306,-0.1526953930283431,-9.416530738472938,-0.1407611514483941,-0.0015843722503632,0.0010081157088279,2.734231487390399,0.000773012638092
2025-04-30 00:59:00.326594600,4.166594482421875,-0.0162142525869004,0.0033896039240062,-0.008766607121085,-0.0042097591795027,0.006347679857123,0.989984458366951,0.0105174684929644,left,0.0005320906639099,-0.2825589144996306,-0.1526953930283431,-9.416530738472938,-0.1407611514483941,-0.0043506762012839,0.0005047358572483,2.734231487390399,0.0005188882350921
2025-04-30 00:59:00.366594600,4.206594482421875,-0.0162142525869004,0.0048201666213572,-0.008766607121085,-0.0063671916723251,0.006347679857123,0.989984458366951,0.0105174684929644,left,7.6949596405e-05,-0.2825589144996306,-0.1526953930283431,-9.416530738472938,-0.1407611514483941,-0.0071169799193739,1.3560056686e-06,2.734231487390399,0.0002647936344146
2025-04-30 00:59:00.406594600,4.246594482421875,-0.0162142525869004,-0.0020777322351932,-0.008766607121085,0.0064740069210529,0.006347679857123,0.989984458366951,0.0105174684929644,left,-0.0004128813743591,-0.2825589144996306,-0.1526953930283431,-9.416530738472938,-0.1407611514483941,0.0066670980304479,0.0008566007018089,2.734231487390399,-0.000600516796112
2025-04-30 00:59:00.446594800,4.2865947265625,-0.0162142525869004,-0.0102424221113324,-0.008766607121085,0.0034883685875684,0.006347679857123,0.989984458366951,0.0105174684929644,left,0.0006850957870483,-0.2825589144996306,-0.1526953930283431,-9.416530738472938,-0.1407611514483941,0.0070789996534585,0.0004192646592855,2.734231487390399,0.0007252395153045
2025-04-30 00:59:00.486594600,4.326594482421875,-0.0162142525869004,-0.0059232539497315,-0.008766607121085,-0.0112484814599156,0.006347679857123,0.989984458366951,0.0105174684929644,left,0.0022050142288208,-0.2825589144996306,-0.1526953930283431,-9.416530738472938,-0.1407611514483941,0.0034970929846167,-0.0023118117824196,2.734231487390399,0.0034839212894439
2025-04-30 00:59:00.526594600,4.366594482421875,-0.0162142525869004,0.0162392165511846,-0.008766607121085,-0.0126638375222682,0.006347679857123,0.989984458366951,0.0105174684929644,left,0.0079412460327148,-0.2825589144996306,-0.1526953930283431,-9.416530738472938,-0.1407611514483941,0.0116764018312096,-0.0063700499013066,2.734231487390399,0.0009962320327758
2025-04-30 00:59:00.566594600,4.406594482421875,-0.0160335268934433,0.0074836695566773,-0.0087225366355351,-0.0051733301952481,0.0066584211644472,0.9900081803819868,0.01117351207272,left,0.0050787925720214,-0.2822020487368101,-0.1510092209065333,-9.41753319351375,-0.1405822278098092,0.0080904532223939,-0.0047297803685069,2.730870486524701,-0.0008668005466461
2025-04-30 00:59:00.606594600,4.446594482421875,-0.0158530462028871,-0.0012718783691525,-0.0086784570594451,0.0023171766661107,0.0069691681603747,0.9900318182954964,0.0118294371461419,left,0.0022161602973937,-0.2818450757686838,-0.1493249758803285,-9.418534479510784,-0.1404032824347675,0.0045045055449008,-0.0030893199145793,2.727508024354279,-0.0027296841144561
2025-04-30 00:59:00.646594600,4.486594482421875,-0.0158530462028871,-0.0100274244323372,-0.0086784570594451,0.0098076835274696,0.0069691681603747,0.9900318182954964,0.0118294371461419,left,-0.0007485151290893,-0.2818450757686838,-0.1493249758803285,-9.418534479510784,-0.1404032824347675,0.0009185576345771,-0.0012771189212799,2.727508024354279,-0.0049354434013366
2025-04-30 00:59:00.686594800,4.5265947265625,-0.0158530462028871,-0.011901824735105,-0.0086784570594451,0.018289428204298,0.0069691681603747,0.9900318182954964,0.0118294371461419,left,0.0016562938690185,-0.2818450757686838,-0.1493249758803285,-9.418534479510784,-0.1404032824347675,0.0101170865818858,-0.0011993627995252,2.727508024354279,-0.0022259652614593
2025-04-30 00:59:00.726594600,4.566594482421875,-0.0145599847068185,-0.0052440171130001,-0.0080156900679693,0.0149013027548789,0.0067335129614118,0.9901170932337464,0.0115440434985813,left,0.0013704299926757,-0.2807185816920287,-0.1371907581081614,-9.42178559026122,-0.139851250112148,0.0079507660120725,0.0002017961814999,2.7168951526641845,0.0013127028942108
2025-04-30 00:59:00.766594600,4.606594482421875,-0.0138727389643577,0.0045317853800952,-0.0076741921374956,0.0134241934865713,0.006681713712477,0.9901465814478914,0.0115388193812001,left,0.0008471608161926,-0.2803373319354058,-0.1307300011288374,-9.422912548464536,-0.1396648128660118,0.007839523255825,0.0005834624171257,2.713302388869226,-0.0008813440799713
2025-04-30 00:59:00.806594600,4.646594482421875,-0.0138727389643577,-0.0023729410022497,-0.0076741921374956,0.0009547099471092,0.006681713712477,0.9901465814478914,0.0115388193812001,left,0.0056982040405273,-0.2803373319354058,-0.1307300011288374,-9.422912548464536,-0.1396648128660118,0.011012353003025,0.0010065706446766,2.713302388869226,-0.0048392713069915
2025-04-30 00:59:00.846594600,4.686594482421875,-0.0138727389643577,0.0024942983873188,-0.0076741921374956,0.0015416734386235,0.006681713712477,0.9901465814478914,0.0115388193812001,left,-0.0001564025878906,-0.2803373319354058,-0.1307300011288374,-9.422912548464536,-0.1396648128660118,0.0084797432646155,0.0034789554774761,2.713302388869226,-0.0040477514266967
2025-04-30 00:59:00.886594600,4.726594482421875,-0.0130469563422572,-0.0022813961841166,-0.0072598799872794,0.0044173910282552,0.006602148161427,0.9902337121563938,0.0115014651134654,left,0.0009623169898986,-0.2791335273774401,-0.1229912053040228,-9.426276471939682,-0.1390716917198385,0.0041119479574263,0.001556884497404,2.7019559422075745,-0.0013046264648437
2025-04-30 00:59:00.926594600,4.766594482421875,-0.0130469563422572,-0.0022984999231994,-0.0072598799872794,0.0005638299044221,0.006602148161427,0.9902337121563938,0.0115014651134654,left,0.0018001198768615,-0.2791335273774401,-0.1229912053040228,-9.426276471939682,-0.1390716917198385,-0.0054411659948527,0.0021473728120326,2.7019559422075745,-0.0021462738513946
2025-04-30 00:59:00.966594800,4.8065947265625,-0.0130469563422572,0.0003502774052321,-0.0072598799872794,0.0031310580670833,0.006602148161427,0.9902337121563938,0.0115014651134654,left,0.0014511346817016,-0.2791335273774401,-0.1229912053040228,-9.426276471939682,-0.1390716917198385,-0.0052645620889961,-0.000738151371479,2.7019559422075745,-0.0022559762001037
2025-04-30 00:59:01.006594600,4.846594482421875,-0.0130469563422572,-0.0025338775012642,-0.0072598799872794,-0.0115569261834025,0.006602148161427,0.9902337121563938,0.0115014651134654,left,0.0024046897888183,-0.2791335273774401,-0.1229912053040228,-9.426276471939682,-0.1390716917198385,-0.0117034381255507,-0.0029815332964062,2.7019559422075745,0.0015456974506378
2025-04-30 00:59:01.046594600,4.886594482421875,-0.0135178107611346,-0.0041256346739828,-0.007468789938284,-0.006538045592606,0.0064458612369885,0.9901460894468112,0.011112210670468,left,-0.001179039478302,-0.2803832774754878,-0.1273838507723994,-9.422833638009427,-0.1396903429403017,-0.01990014500916,-0.0033228807151317,2.713735519589484,0.0018321275711059
2025-04-30 00:59:01.086594600,4.926594482421875,-0.0135750795726381,-0.0118543868884444,-0.0074707973610208,0.0117093073204159,0.006255511443827,0.9901042776829664,0.0107159562506815,left,-0.0026754736900329,-0.2809943216507405,-0.1279009517153725,-9.421166581580042,-0.1399941647335725,-0.0027734469622373,-0.0005569122731685,2.7194930602028964,-0.0025937259197235
2025-04-30 00:59:01.126594600,4.966594482421875,-0.0131951302217012,-0.0123519673943519,-0.0072490800252907,0.0100435568019747,0.0059936241271146,0.99012209018916,0.0102419174156244,left,0.0030308961868286,-0.2807823479363813,-0.1243289841132704,-9.421790850958228,-0.1398921152629071,0.0131620801985263,-0.0016153445467352,2.717496041166782,-0.0002699196338653
2025-04-30 00:59:01.166594600,5.006594482421875,-0.0131951302217012,0.0022078230977058,-0.0072490800252907,-0.0048862621188163,0.0059936241271146,0.99012209018916,0.0102419174156244,left,0.0026162862777709,-0.2807823479363813,-0.1243289841132704,-9.421790850958228,-0.1398921152629071,0.0163313336670398,-0.0038192579522728,2.717496041166782,0.0013322234153747
2025-04-30 00:59:01.206594800,5.0465947265625,-0.013102483102766,0.0051927343010902,-0.0072472151949419,0.0034152502194046,0.0063045717811301,0.9901527540381172,0.0108857819152169,left,-0.0003331303596496,-0.2803197479472852,-0.1234725316807161,-9.423058094415069,-0.1396610511007628,0.0055462680757045,-0.0024437345564365,2.7131366769134995,-0.001644879579544
2025-04-30 00:59:01.246594600,5.086594482421875,-0.013102483102766,0.0081776455044746,-0.0072472151949419,0.0117167616263031,0.0063045717811301,0.9901527540381172,0.0108857819152169,left,-0.0034117102622985,-0.2803197479472852,-0.1234725316807161,-9.423058094415069,-0.1396610511007628,-0.0052387975156307,-0.0009808847680687,2.7131366769134995,-0.0050665140151977
2025-04-30 00:59:01.286594600,5.126594482421875,-0.013102483102766,-0.0190510042011737,-0.0072472151949419,0.0069538629613816,0.0063045717811301,0.9901527540381172,0.0108857819152169,left,0.0005130767822265,-0.2803197479472852,-0.1234725316807161,-9.423058094415069,-0.1396610511007628,-0.0027532142121344,0.0027378154918551,2.7131366769134995,-0.0081600248813629
2025-04-30 00:59:01.326594600,5.166594482421875,-0.0124902809204556,-0.0237565636634826,-0.0069000471686035,0.0083579942584037,0.005949991199382,0.9901607483736492,0.0102562320936363,left,0.0039237141609191,-0.280263456615058,-0.1177056021844502,-9.423284888908269,-0.1396372888934187,-0.0074744587764143,-0.0004713190719485,2.712606223298609,-0.0001854598522186
2025-04-30 00:59:01.366594600,5.206594482421875,-0.012604152030366,-0.0128960041329264,-0.0068979368760568,0.0064273653551936,0.0055395980566394,0.9901389035395968,0.0094093019554466,left,-0.003197431564331,-0.2806058689358671,-0.1187669295393396,-9.422342055100202,-0.1398093978820151,-0.0142151676118373,0.0006446940824389,2.715833076390624,0.0032364726066589
2025-04-30 00:59:01.406594600,5.246594482421875,-0.0120988324115799,0.0069903573021292,-0.0066444672812697,0.0188718941062688,0.0054712224823559,0.9900774615977592,0.009337670587708,left,-0.0010960102081298,-0.2815096011205912,-0.1139758776042144,-9.41994259274304,-0.1402584381232078,-0.0314791873097419,0.0002625808119773,2.7243478067576885,0.0063094198703765
2025-04-30 00:59:01.446594800,5.2865947265625,-0.0115471843557125,0.0031655880156904,-0.0064014493954928,-0.0015674494206905,0.0056307931813195,0.9899935035276402,0.0097320363048667,left,0.0074840188026428,-0.2827143930400221,-0.1087413927505258,-9.41671544739008,-0.1408550753114396,-0.0187965873628854,0.0004869857802987,2.735695714724064,-0.0032836198806762
2025-04-30 00:59:01.486594600,5.326594482421875,-0.0115471843557125,-0.0005261243786662,-0.0064014493954928,-6.56106276437e-05,0.0056307931813195,0.9899935035276402,0.0097320363048667,left,0.0014085173606872,-0.2827143930400221,-0.1087413927505258,-9.41671544739008,-0.1408550753114396,0.0030442401766777,0.0017601028084754,2.735695714724064,9.99569892883e-05
2025-04-30 00:59:01.526594600,5.366594482421875,-0.0115471843557125,-0.0077523961663246,-0.0064014493954928,-0.0028610532172024,0.0056307931813195,0.9899935035276402,0.0097320363048667,left,0.0015240311622619,-0.2827143930400221,-0.1087413927505258,-9.41671544739008,-0.1408550753114396,0.0005320601630955,0.0010232403874397,2.735695714724064,0.0010446906089782
2025-04-30 00:59:01.566594600,5.406594482421875,-0.012205706680071,-0.0161633267998695,-0.0066745749029247,-0.0077628851868212,0.0053048679706665,0.9899869190324556,0.0089793977992445,left,0.0002352595329284,-0.282806993128052,-0.1149393888741266,-9.416388699653744,-0.1409015672128859,-0.0017952464986592,0.0009208070114254,2.7365678213834763,-0.0002267956733703
2025-04-30 00:59:01.606594600,5.446594482421875,-0.0125960350001117,-0.0160599034279584,-0.0068051784234008,-0.0042695002630352,0.0048928517345466,0.9899909439504172,0.008091732926125,left,0.0016430616378784,-0.2827619802367516,-0.1186164151527453,-9.416465856543184,-0.1408812956669115,0.003151160897687,-0.0021644830703735,2.7361437507525084,4.03523445129e-05
2025-04-30 00:59:01.646594600,5.486594482421875,-0.012838091024936,-0.0147662051022052,-0.0068729063616336,0.0021490440703928,0.0045462606778074,0.9900169673594792,0.0073591977626536,left,0.0001015663146972,-0.2824057151831313,-0.1209082341506611,-9.417411028438806,-0.1407068714135076,0.005301147699356,-0.0001338189467787,2.732788595105708,2.4735927581e-06
2025-04-30 00:59:01.686594800,5.5265947265625,-0.0125401074260736,-0.0085827466100454,-0.0066950023762185,0.0120222829282283,0.0043133170555569,0.9900409196808128,0.006932770298625,left,0.0019207000732421,-0.282093219400317,-0.1181126942811533,-9.41830008623302,-0.1405542845147836,0.0056057064794003,-0.0005071582272648,2.729845527391136,-0.0005177557468414
2025-04-30 00:59:01.726594600,5.566594482421875,-0.0125401074260736,-0.0035165180452167,-0.0066950023762185,-0.004788851365447,0.0043133170555569,0.9900409196808128,0.006932770298625,left,0.0022749304771423,-0.282093219400317,-0.1181126942811533,-9.41830008623302,-0.1405542845147836,0.0048562427982687,0.0012652492150664,2.729845527391136,-0.0012976825237274
2025-04-30 00:59:01.766594600,5.606594482421875,-0.0125401074260736,0.0054280920885503,-0.0066950023762185,-0.0036513363011181,0.0043133170555569,0.9900409196808128,0.006932770298625,left,0.0006875991821289,-0.282093219400317,-0.1181126942811533,-9.41830008623302,-0.1405542845147836,0.0021420333068817,-0.0006600059568881,2.729845527391136,-0.002230942249298
2025-04-30 00:59:01.806594600,5.646594482421875,-0.0125401074260736,-0.004296884406358,-0.0066950023762185,-0.0004657611716538,0.0043133170555569,0.9900409196808128,0.006932770298625,left,0.0007243156433105,-0.282093219400317,-0.1181126942811533,-9.41830008623302,-0.1405542845147836,-0.0052400920540094,-0.0005781147629022,2.729845527391136,-0.0029838979244232
2025-04-30 00:59:01.846594600,5.686594482421875,-0.0125401074260736,-0.014021860435605,-0.0066950023762185,0.002719814190641,0.0043133170555569,0.9900409196808128,0.006932770298625,left,0.0007609724998474,-0.282093219400317,-0.1181126942811533,-9.41830008623302,-0.1405542845147836,-0.0126222176477313,-0.0004962235689163,2.729845527391136,-0.0037368535995483
2025-04-30 00:59:01.886594600,5.726594482421875,-0.0129909997175704,-0.0200655553489923,-0.0068575681076477,-0.0040314029902219,0.0039164496475926,0.9900177085934728,0.0060650091669716,left,0.0019511580467224,-0.2824279779555484,-0.1223474457740783,-9.417331533461809,-0.1407219972240349,-0.0164953619241714,-0.0005298955366015,2.732998438464105,-0.0007840991020202
2025-04-30 00:59:01.926594800,5.7665947265625,-0.0129909997175704,-0.0051808524876832,-0.0068575681076477,-0.0078667029738426,0.0039164496475926,0.9900177085934728,0.0060650091669716,left,0.0020663738250732,-0.2824279779555484,-0.1223474457740783,-9.417331533461809,-0.1407219972240349,-0.010846747085452,-0.0010306388139724,2.732998438464105,0.002701312303543
2025-04-30 00:59:01.966594800,5.8065947265625,-0.0129909997175704,0.0147124174982309,-0.0068575681076477,-0.0071073709987103,0.0039164496475926,0.9900177085934728,0.0060650091669716,left,0.0007218718528747,-0.2824279779555484,-0.1223474457740783,-9.417331533461809,-0.1407219972240349,-0.0055688619613647,-0.0019343877211213,2.732998438464105,0.0033422708511352
2025-04-30 00:59:02.006594600,5.846594482421875,-0.0138092155331868,0.0159324910491704,-0.0072926526429165,-0.0089029911905527,0.0041809912062779,0.9899456664415536,0.0064768831375166,left,-8.72611999511e-05,-0.2833970659245294,-0.1300161811705213,-9.414575512751936,-0.141198575250726,-0.0076608248054981,-0.0009938115254044,2.742123994205892,0.0005415678024291
2025-04-30 00:59:02.046594600,5.886594482421875,-0.0138092155331868,-0.0037590321153402,-0.0072926526429165,-0.0057820007205009,0.0041809912062779,0.9899456664415536,0.0064768831375166,left,0.0012910962104797,-0.2833970659245294,-0.1300161811705213,-9.414575512751936,-0.141198575250726,-0.0014477111399173,0.0019770702347159,2.742123994205892,-0.0037256479263305
2025-04-30 00:59:02.086594600,5.926594482421875,-0.0138092155331868,-0.0153266377747058,-0.0072926526429165,0.0060020638629794,0.0041809912062779,0.9899456664415536,0.0064768831375166,left,0.0028367042541503,-0.2833970659245294,-0.1300161811705213,-9.414575512751936,-0.141198575250726,0.0045992201194167,-0.0005619619041681,2.742123994205892,-0.0025855600833892
2025-04-30 00:59:02.126594600,5.966594482421875,-0.0143465430673962,-0.0126264346763491,-0.0074828119984977,0.0024408684112131,0.0036878553056853,0.9899567506642546,0.0054050185725396,left,-0.0036578178405761,-0.283239857948255,-0.135081054211501,-9.414935578235983,-0.1411236827098783,0.010612896643579,-0.0003093210980296,2.7406436925202606,-0.0001217424869537
2025-04-30 00:59:02.166594600,6.006594482421875,-0.0143465430673962,0.0053943423554301,-0.0074828119984977,0.0111082028597593,0.0036878553056853,0.9899567506642546,0.0054050185725396,left,-0.00087171792984,-0.283239857948255,-0.135081054211501,-9.414935578235983,-0.1411236827098783,-0.011833663098514,-0.0023275893181562,2.7406436925202606,0.0035338699817657
2025-04-30 00:59:02.206594800,6.0465947265625,-0.013843043367362,0.0099557992070913,-0.0072469831560369,-0.0059069879353046,0.0037441360376178,0.9899084716722784,0.005585892079407,left,0.0062918663024902,-0.2839462852386548,-0.1303137850107625,-9.413063939145207,-0.1414735939635562,-0.0163628384470939,-0.0011204341426491,2.7472946748420592,-0.0020570158958435
2025-04-30 00:59:02.246594600,6.086594482421875,-0.013843043367362,0.0117748379707336,-0.0072469831560369,-0.0053791338577866,0.0037441360376178,0.9899084716722784,0.005585892079407,left,0.0013056397438049,-0.2839462852386548,-0.1303137850107625,-9.413063939145207,-0.1414735939635562,-0.006820011883974,-0.0001787412911653,2.7472946748420592,0.0008799135684967
2025-04-30 00:59:02.286594600,6.126594482421875,-0.014139766794672,0.0072508309967815,-0.007447992075645,-0.0085208732634782,0.0041410594169995,0.9898565359806926,0.0063408265787467,left,0.0013582706451416,-0.2846413560402432,-0.1330798247911501,-9.411113389599322,-0.1418142735865918,-0.0043496349826455,-0.0002065720036625,2.7538375206142662,0.000140905380249
2025-04-30 00:59:02.326594600,6.166594482421875,-0.0144500246922048,-0.0018203924410045,-0.0076119419770767,-0.0056640459224581,0.0042346978881673,0.9898398893862832,0.0064841247555204,left,-0.0009745955467224,-0.2848556331900705,-0.1359911639268975,-9.410481521436571,-0.1419191323454469,-0.0016057884786278,0.0006050318479537,2.755854121133685,-0.0015164613723754
2025-04-30 00:59:02.366594600,6.206594482421875,-0.0144500246922048,-0.0097880493849515,-0.0076119419770767,-0.0087026730179786,0.0042346978881673,0.9898398893862832,0.0064841247555204,left,0.0042456984519958,-0.2848556331900705,-0.1359911639268975,-9.410481521436571,-0.1419191323454469,0.0006497206632047,-0.0014671217650175,2.755854121133685,-0.0016809701919555
2025-04-30 00:59:02.406594600,6.246594482421875,-0.0152805864396637,-0.0036206394433975,-0.0079819555705546,-0.0126075679436326,0.004008245142596,0.9898603098925294,0.0059097658369246,left,0.0008781552314758,-0.2845400564392272,-0.143820377981523,-9.411234385630488,-0.1417634596012946,0.0116897374391555,-0.0012593902647495,2.7528841654121874,-0.0004453957080841
2025-04-30 00:59:02.446594800,6.2865947265625,-0.0152805864396637,0.0090062962844967,-0.0079819555705546,-0.0070771747268736,0.004008245142596,0.9898603098925294,0.0059097658369246,left,0.0029423832893371,-0.2845400564392272,-0.143820377981523,-9.411234385630488,-0.1417634596012946,0.0107707241550087,-0.0057693608105182,2.7528841654121874,-0.0013054013252258
2025-04-30 00:59:02.486594600,6.326594482421875,-0.0159902494747871,0.0083732372149825,-0.0083560621247682,-0.0036229731049388,0.004218395454955,0.9898598237833428,0.0062330688611151,left,-0.0002623200416564,-0.2844962594524075,-0.1505010795881506,-9.411250167721509,-0.1417390069107793,-0.0008543683215975,-0.0060776630416512,2.7524717852190137,-0.000358909368515
2025-04-30 00:59:02.526594600,6.366594482421875,-0.0166998852589967,0.0077401781454682,-0.0087301595884418,-0.000168771483004,0.0044286020395854,0.989859130264642,0.0065565196445629,left,-0.0034676194190979,-0.2844526855755971,-0.1571816076648421,-9.411261273637413,-0.1417145324838072,-0.0124794617295265,-0.0063859894871711,2.7520617431133982,0.0005874037742614
2025-04-30 00:59:02.566594600,6.406594482421875,-0.0160685423243302,0.0007462864741683,-0.0084165065322824,0.0028422814793884,0.0043753753097396,0.9898572619929812,0.0065388705576599,left,-0.0008424520492553,-0.2845177958677806,-0.1512369561146479,-9.411179440572855,-0.1417482226157277,-0.0047105187550187,-0.0036440892145037,2.752674614314735,-0.0007687509059906
2025-04-30 00:59:02.606594600,6.446594482421875,-0.0154371816369859,-0.0062476065941154,-0.0081028499974661,0.005853334441781,0.0043221542684969,0.989855309619794,0.0065212777109523,left,0.0017822980880737,-0.2845828969880498,-0.1452923136976081,-9.411093515855072,-0.1417818861103836,0.0030584251508116,-0.0009021833539009,2.7532871932551264,-0.0021248757839202
2025-04-30 00:59:02.646594600,6.486594482421875,-0.0154371816369859,-0.0132414996623992,-0.0081028499974661,0.0088643878698349,0.0043221542684969,0.989855309619794,0.0065212777109523,left,0.0044158101081848,-0.2845828969880498,-0.1452923136976081,-9.411093515855072,-0.1417818861103836,0.0108273681253194,0.0024459017440676,2.7532871932551264,-0.0034185051918029
2025-04-30 00:59:02.686594800,6.5265947265625,-0.0149643379596496,-0.0127603597939014,-0.0078242202405771,-0.0036627324298024,0.0039782969010076,0.9898840102806906,0.0058967824458702,left,0.0018230676651,-0.2842235138395856,-0.1408571168622933,-9.412150331431627,-0.1416074739894044,0.0071387137286365,0.000887849368155,2.74990456507951,-0.0005711317062377
2025-04-30 00:59:02.726594600,6.566594482421875,-0.0149643379596496,-0.0073656602762639,-0.0078242202405771,-0.0028441643808037,0.0039782969010076,0.9898840102806906,0.0058967824458702,left,0.0023849606513977,-0.2842235138395856,-0.1408571168622933,-9.412150331431627,-0.1416074739894044,0.0045120064169168,0.0007040873169898,2.74990456507951,-0.000622808933258
2025-04-30 00:59:02.766594600,6.606594482421875,-0.0149643379596496,-0.0019709602929651,-0.0078242202405771,-0.0020255963318049,0.0039782969010076,0.9898840102806906,0.0058967824458702,left,0.00294691324234,-0.2842235138395856,-0.1408571168622933,-9.412150331431627,-0.1416074739894044,0.0018852995708584,0.0005203243345022,2.74990456507951,-0.0006744861602783
2025-04-30 00:59:02.806594600,6.646594482421875,-0.0149643379596496,0.0034237392246723,-0.0078242202405771,-0.0012070285156369,0.0039782969010076,0.9898840102806906,0.0058967824458702,left,0.0035088062286376,-0.2842235138395856,-0.1408571168622933,-9.412150331431627,-0.1416074739894044,-0.0007414072751998,0.0003365613520145,2.74990456507951,-0.0007261633872985
2025-04-30 00:59:02.846594600,6.686594482421875,-0.0149643379596496,0.0032508489675819,-0.0078242202405771,-0.0044938721694052,0.0039782969010076,0.9898840102806906,0.0058967824458702,left,-0.0005922317504882,-0.2842235138395856,-0.1408571168622933,-9.412150331431627,-0.1416074739894044,0.0090957311913371,0.0018056137487292,2.74990456507951,-0.0008489787578582
2025-04-30 00:59:02.886594600,6.726594482421875,-0.0148890088792192,0.0025875945575535,-0.007821163767734,-0.0012034873943775,0.0042127065970421,0.9898920929459784,0.0063820442135456,left,0.0008518099784851,-0.2840981198718605,-0.1401532429092563,-9.412505136218666,-0.1415436807475535,0.003415701445192,0.0003175409510731,2.748724123123288,-0.001670479774475
2025-04-30 00:59:02.926594800,6.7665947265625,-0.0148137609198665,0.0019243403803557,-0.0078181121956985,0.0020868971478194,0.0044471106044733,0.9899002597127926,0.0068672666375867,left,0.0022958517074584,-0.2839727616781491,-0.1394500722091179,-9.412860525527597,-0.1414798931175857,-0.0022643278352916,-0.0011704750359058,2.747543973428011,-0.0024919509887695
2025-04-30 00:59:02.966594800,6.8065947265625,-0.0148137609198665,0.0012610862031579,-0.0078181121956985,0.005377281922847,0.0044471106044733,0.9899002597127926,0.0068672666375867,left,0.0037036538124084,-0.2839727616781491,-0.1394500722091179,-9.412860525527597,-0.1414798931175857,-0.0079443575814366,-0.002586780115962,2.747543973428011,-0.0034337937831878
2025-04-30 00:59:03.132159700,6.97215966796875,-0.0151529782933372,0.003961163572967,-0.0080885629752919,-0.0101667828857898,0.0051913975243749,0.9899220466980256,0.0083251873607824,left,-0.0006296697538346,-0.2835949669740949,-0.1426587868562434,-9.413849536564946,-0.1412862946864189,0.0042749010026454,-0.0054060313850641,2.743987449990213,-0.0040192906744778
2025-04-30 00:59:03.172160000,7.012159912109375,-0.0147535542829184,-0.0032839546911418,-0.0078452820234573,-0.0018121097236871,0.0048458827220187,0.9899483963635236,0.0076863684054853,left,0.0018473863601684,-0.2832675612791845,-0.1389119010786526,-9.414803476288917,-0.1411277807960506,0.0082968939095735,-0.0041009727865457,2.7409046815440057,-0.0030047595500946
2025-04-30 00:59:03.212160000,7.052159912109375,-0.0143539413508331,-0.0105290710926055,-0.007602003204849,0.0065425615757703,0.0045004241919339,0.9899745386195076,0.0070475910521473,left,0.0043240785598754,-0.2829403945207419,-0.1351624854172579,-9.415754493403432,-0.1409692353676103,0.0123188868165016,-0.0027961712330579,2.7378239589244124,-0.0019904375076293
2025-04-30 00:59:03.252159700,7.09215966796875,-0.0139541734899196,-0.0177741888910532,-0.0073587258083914,0.0148972338065505,0.0041548986261327,0.9900004228823096,0.0064086005041264,left,0.0068004131317138,-0.282613471650888,-0.1314108321330044,-9.416702587908508,-0.1408106689137886,0.0163408815860748,-0.0014915950596332,2.734745282131433,-0.0009762644767761
2025-04-30 00:59:03.292159700,7.13215966796875,-0.0140922720859639,0.0013959053903818,-0.0074042446039418,-0.0081091588363051,0.0040065508698463,0.9900464875863108,0.0060935808808816,left,0.0027627348899841,-0.281961115619145,-0.1327363816483411,-9.41846609044969,-0.1404886181009535,0.0074675427749753,0.0004399316385388,2.728601080287993,0.0027265548706054
2025-04-30 00:59:03.332159700,7.17215966796875,-0.014183181493452,0.0178691688925027,-0.0074931228626383,-0.0011069648899137,0.0043222882534579,0.9900469336133746,0.0067187059125767,left,-0.0013242959976196,-0.2819305834417105,-0.1335937839289661,-9.418537402120233,-0.1404709947581277,-0.0012424569576978,-0.0002210875973105,2.728313495518267,-0.0013374090194702
2025-04-30 00:59:03.372159700,7.21215966796875,-0.0139456036717065,0.0083265900611877,-0.0073697469520367,-0.0017890121089294,0.0042642074520622,0.9900375134349582,0.0066341083236909,left,1.96099281311e-05,-0.2820809522701467,-0.1313504254489671,-9.418158631935714,-0.1405462435618706,-0.0005650167586281,-0.0001417230814695,2.7297297920569776,-0.0004145205020904
2025-04-30 00:59:03.412160000,7.252159912109375,-0.0139456036717065,-0.0012159887701272,-0.0073697469520367,-0.0024710593279451,0.0042642074520622,0.9900375134349582,0.0066341083236909,left,0.0014021396636962,-0.2820809522701467,-0.1313504254489671,-9.418158631935714,-0.1405462435618706,0.0001124235568568,0.0001663984730839,2.7297297920569776,0.00065279006958
2025-04-30 00:59:03.452160000,7.292159912109375,-0.0139456036717065,-0.0107585676014423,-0.0073697469520367,-0.003153106663376,0.0042642074520622,0.9900375134349582,0.0066341083236909,left,0.0027846693992614,-0.2820809522701467,-0.1313504254489671,-9.418158631935714,-0.1405462435618706,0.0007898637559264,0.0004745200276374,2.7297297920569776,0.0017200708389282
2025-04-30 00:59:03.492159700,7.33215966796875,-0.0139456036717065,0.0065020211040973,-0.0073697469520367,-0.0035826950334012,0.0042642074520622,0.9900375134349582,0.0066341083236909,left,0.0008429884910583,-0.2820809522701467,-0.1313504254489671,-9.418158631935714,-0.1405462435618706,-0.0023023355752229,-0.0031427685171365,2.7297297920569776,0.002815693616867
2025-04-30 00:59:03.532159700,7.37215966796875,-0.0139456036717065,0.0148226646706461,-0.0073697469520367,-0.005759316496551,0.0042642074520622,0.9900375134349582,0.0066341083236909,left,0.0006513595581054,-0.2820809522701467,-0.1313504254489671,-9.418158631935714,-0.1405462435618706,-0.0044451998546719,-0.0002679396420717,2.7297297920569776,0.0027229785919189
2025-04-30 00:59:03.693260800,7.5332607421875,-0.0140508189516426,0.0015598841710016,-0.0074298856648683,-0.0004325252375565,0.0043278390737793,0.9900298204049494,0.0067470662236955,left,-0.0016728920163586,-0.2821799921452377,-0.1323375641896389,-9.417873969775435,-0.1405946402337519,0.0100188069045543,-0.0011825705878436,2.730662688992917,0.0018526609055697
2025-04-30 00:59:03.733260800,7.5732607421875,-0.0134847794451591,0.0113373668864369,-0.0071714465691246,0.0168204959481954,0.0044422179282939,0.990042541649806,0.0070595171442359,left,-0.0023524165153503,-0.2820187997638156,-0.1270125880409032,-9.418387179994582,-0.1405149458863833,-0.0025388495996594,-0.0008600102737545,2.7291443933844564,0.0024724900722503
2025-04-30 00:59:03.773261000,7.613260986328125,-0.0133539924579022,0.0079209562391042,-0.0071260757893831,0.0136317424476146,0.0045689509042846,0.9900362442431656,0.0073335482104741,left,-0.0009447932243347,-0.2821077879290755,-0.1257775389537681,-9.418160970023274,-0.1405582969621784,-0.0016459634061902,-0.001636323519051,2.729982597774267,-0.000174194574356
2025-04-30 00:59:03.813261000,7.653260986328125,-0.0133539924579022,0.0045045455917716,-0.0071260757893831,0.0104429889470338,0.0045689509042846,0.9900362442431656,0.0073335482104741,left,0.0004858374595642,-0.2821077879290755,-0.1257775389537681,-9.418160970023274,-0.1405582969621784,-0.0007530772127211,-0.0022866958752274,2.729982597774267,-0.0027354061603546
2025-04-30 00:59:03.853261000,7.693260986328125,-0.0133539924579022,0.0010881349444389,-0.0071260757893831,0.0072542363777756,0.0045689509042846,0.9900362442431656,0.0073335482104741,left,0.0019165277481079,-0.2821077879290755,-0.1257775389537681,-9.418160970023274,-0.1405582969621784,0.0001398090389557,-0.0029370682314038,2.729982597774267,-0.0052966177463531
2025-04-30 00:59:03.893261000,7.733260986328125,-0.0133539924579022,-0.024164555594325,-0.0071260757893831,0.0078313462436199,0.0045689509042846,0.9900362442431656,0.0073335482104741,left,-0.0011376738548278,-0.2821077879290755,-0.1257775389537681,-9.418160970023274,-0.1405582969621784,-0.0015550323296338,-0.000132187269628,2.729982597774267,-0.0054269433021545
2025-04-30 00:59:03.933260800,7.7732607421875,-0.0130739241851752,-0.033114705234766,-0.0068943699575186,0.0060511929914355,0.0038926547689713,0.9900216329673908,0.0060055192787131,left,-1.32918357849e-05,-0.2823676795941748,-0.1231305224431678,-9.417486431762576,-0.1406922127234081,-0.0048091225326061,-1.547858119e-06,2.7324305754482743,-6.35683536529e-05
2025-04-30 00:59:03.973260800,7.8132607421875,-0.0127155781319573,-0.0193897299468517,-0.0066877618652427,0.0063153244554996,0.003661966782954,0.990026601712116,0.0055906641291556,left,0.0002174377441406,-0.2823266504286493,-0.119757219218323,-9.417641914585232,-0.14067397653302,-0.0056908871047198,3.6702491343e-05,2.732043914218247,0.0001859366893768
2025-04-30 00:59:04.013261000,7.853260986328125,-0.0123572299774715,-0.0056647565215826,-0.0064811608070006,0.0065794559195637,0.0034312901741433,0.9900314022537888,0.0051758200863806,left,0.0004480481147766,-0.2822857173640428,-0.1163838063956238,-9.417796228364107,-0.1406557144164428,-0.0065726516768336,7.49640166759e-05,2.7316584220319986,0.000435322523117
2025-04-30 00:59:04.053261000,7.893260986328125,-0.0119988486644751,0.008060217835009,-0.0062745450463355,0.0068435873836278,0.0032005800474746,0.9900360737988704,0.0047609012179361,left,0.000678539276123,-0.2822449098825645,-0.1130099734478164,-9.417948788577318,-0.1406374354642164,-0.0074544162489473,0.0001131668686866,2.731274098889529,0.0006845891475677
2025-04-30 00:59:04.093261000,7.933260986328125,-0.0119988486644751,0.0053237983956933,-0.0062745450463355,0.0098829744383692,0.0032005800474746,0.9900360737988704,0.0047609012179361,left,0.0014014244079589,-0.2822449098825645,-0.1130099734478164,-9.417948788577318,-0.1406374354642164,-0.0079955868422985,0.0036486759781837,2.731274098889529,-0.0013982057571411
2025-04-30 00:59:04.133261000,7.973260986328125,-0.0111312080464944,-0.0061278156936168,-0.0058620343979002,0.0094301318749785,0.0032572265719865,0.989998000148274,0.0049955998575322,left,0.0024892687797546,-0.2828179205222919,-0.1048210957679431,-9.416476377937196,-0.1409217683307663,-0.0021542366594076,0.0026692235842347,2.736670697236061,-0.0001851916313171
2025-04-30 00:59:04.173260800,8.0132607421875,-0.0110194863807777,-0.0036229968536645,-0.0057839541434044,0.0037930430844426,0.0030893204349349,0.9899984711071976,0.0046722701142313,left,0.0020111799240112,-0.2828233653809895,-0.1037689107007347,-9.416473455327749,-0.1409255798428172,-0.0003002630546689,0.0019153663888573,2.7367218429014084,0.00043585896492
2025-04-30 00:59:04.213260800,8.0532607421875,-0.0110194863807777,-0.0011181780137121,-0.0057839541434044,-0.0018440447747707,0.0030893204349349,0.9899984711071976,0.0046722701142313,left,0.0015334486961364,-0.2828233653809895,-0.1037689107007347,-9.416473455327749,-0.1409255798428172,0.0015537104336544,0.0012687994167208,2.7367218429014084,0.0010620951652526
2025-04-30 00:59:04.253261000,8.093260986328126,-0.0110194863807777,0.0052666449919342,-0.0057839541434044,-0.0074342996813356,0.0030893204349349,0.9899984711071976,0.0046722701142313,left,0.0019157528877258,-0.2828233653809895,-0.1037689107007347,-9.416473455327749,-0.1409255798428172,-0.0033248667605221,-0.000278890132904,2.7367218429014084,0.0037134289741516
2025-04-30 00:59:04.293261000,8.133260986328125,-0.0111454466765276,0.0042218314483761,-0.005863682063802,-0.0062637324444949,0.0032198530392425,0.9899884598501864,0.0049173543863079,left,0.0022332668304443,-0.2829551942995248,-0.1049509874916169,-9.416099361318349,-0.1409899176533254,-0.0041489377617836,-0.0003116242587566,2.737963367395103,0.0015697479248046
2025-04-30 00:59:04.333261000,8.173260986328126,-0.0111454466765276,0.0031770174391567,-0.005863682063802,-0.0050931652076542,0.0032198530392425,0.9899884598501864,0.0049173543863079,left,0.002588927745819,-0.2829551942995248,-0.1049509874916169,-9.416099361318349,-0.1409899176533254,-0.004973008763045,-0.0004648957401514,2.737963367395103,-0.0004473328590393
2025-04-30 00:59:04.373261000,8.213260986328125,-0.0111454466765276,0.002132203662768,-0.005863682063802,-0.0039225979708135,0.0032198530392425,0.9899884598501864,0.0049173543863079,left,0.0029445886611938,-0.2829551942995248,-0.1049509874916169,-9.416099361318349,-0.1409899176533254,-0.0057970797643065,-0.0006181662902235,2.737963367395103,-0.0024644136428833
2025-04-30 00:59:04.413261000,8.253260986328126,-0.0111454466765276,-0.0065186452120542,-0.005863682063802,-0.0067885220050811,0.0032198530392425,0.9899884598501864,0.0049173543863079,left,-0.0022658109664916,-0.2829551942995248,-0.1049509874916169,-9.416099361318349,-0.1409899176533254,-0.001298296265304,-0.0001662084832787,2.737963367395103,-0.0026529431343078
2025-04-30 00:59:04.453260800,8.2932607421875,-0.0111454466765276,-0.001967279240489,-0.005863682063802,-0.0046673063188791,0.0032198530392425,0.9899884598501864,0.0049173543863079,left,0.0072259902954101,-0.2829551942995248,-0.1049509874916169,-9.416099361318349,-0.1409899176533254,0.0048026940785348,-0.002810358069837,2.737963367395103,-0.002627670764923
2025-04-30 00:59:04.493261000,8.333260986328124,-0.0115264441997069,0.0057268892414867,-0.0060768780804029,-0.0053106937557458,0.0034192432665155,0.9899821767538488,0.005265560197979,left,0.0047180652618408,-0.2830197561255391,-0.108536453896109,-9.415881919175384,-0.1410202057547494,-0.003760069143027,-0.0032165125012397,2.738571270160377,-3.39746475219e-05
2025-04-30 00:59:04.533261000,8.373260986328125,-0.0115264441997069,0.0134210586547851,-0.0060768780804029,-0.0059540816582739,0.0034192432665155,0.9899821767538488,0.005265560197979,left,0.0022323727607727,-0.2830197561255391,-0.108536453896109,-9.415881919175384,-0.1410202057547494,-0.0123228318989276,-0.003988292068243,2.738571270160377,0.0026217103004455
2025-04-30 00:59:04.573261000,8.413260986328124,-0.0123851949396351,0.0122963599860668,-0.0065643597185028,-0.0159839168190956,0.0039151155492809,0.9899362580474756,0.0061416279959303,left,0.0040095448493957,-0.2836087333683217,-0.1166023079845123,-9.414171023604274,-0.1413073981560325,-0.0077635091729462,-0.0016055339947342,2.744116921588778,-0.0022066235542297
2025-04-30 00:59:04.613261000,8.453260986328125,-0.0123851949396351,0.0122598959133028,-0.0065643597185028,-0.0088814320042729,0.0039151155492809,0.9899362580474756,0.0061416279959303,left,0.0007173418998718,-0.2836087333683217,-0.1166023079845123,-9.414171023604274,-0.1413073981560325,-0.0050658397376537,-0.001547135412693,2.744116921588778,-0.0002705454826354
2025-04-30 00:59:04.653261000,8.493260986328124,-0.0126219647568964,0.0011666715145111,-0.0067122246479948,-0.0019677523523569,0.0041451308426711,0.9899137551376836,0.0065708148951063,left,-0.0009650588035583,-0.2839037896058564,-0.1188210708793718,-9.413332819214462,-0.1414515375430216,-0.0039163664914667,-0.001014289446175,2.7468948618695137,-0.0014835000038146
2025-04-30 00:59:04.693260800,8.5332607421875,-0.0126219647568964,-0.0099265538156032,-0.0067122246479948,0.0049459268338978,0.0041451308426711,0.9899137551376836,0.0065708148951063,left,-0.0025620460510253,-0.2839037896058564,-0.1188210708793718,-9.413332819214462,-0.1414515375430216,-0.0027668927796185,-0.0007076822221279,2.7468948618695137,-0.0024132132530212
2025-04-30 00:59:04.733260800,8.5732607421875,-0.0126219647568964,-0.0086758956313133,-0.0067122246479948,-0.0032007643021643,0.0041451308426711,0.9899137551376836,0.0065708148951063,left,0.0056360363960266,-0.2839037896058564,-0.1188210708793718,-9.413332819214462,-0.1414515375430216,0.0060634477995336,-0.0034705279394984,2.7468948618695137,-0.0036405324935913
2025-04-30 00:59:04.895622000,8.735621826171876,-0.0130846927139066,-0.0001946819247677,-0.0069547160801727,0.0018105951603502,0.0042695973282276,0.9898797618921256,0.0067534287441802,left,0.0001556311617605,-0.2843550964673236,-0.1231606435867957,-9.412036349663138,-0.1416733257941018,-0.0097911162301898,0.0009144739015027,2.751143166963756,-0.0003052713291253
2025-04-30 00:59:04.935622000,8.775621826171875,-0.0130846927139066,-0.0019841738976538,-0.0069547160801727,-0.0001530856825411,0.0042695973282276,0.9898797618921256,0.0067534287441802,left,0.0009532570838928,-0.2843550964673236,-0.1231606435867957,-9.412036349663138,-0.1416733257941018,-0.0038972878828644,0.0007895827293395,2.751143166963756,-0.0005121231079101
2025-04-30 00:59:05.096016100,8.93601611328125,-0.0145038061985803,0.0100230611860752,-0.0076977829245734,-0.0215967185795307,0.00465544125238,0.9898854568234234,0.0073310642704537,left,0.0002722115605138,-0.2841828210024112,-0.1365241291592829,-9.412325687998532,-0.1415827796412435,0.0035991524346172,-0.0070476946420967,2.7495214109808206,0.0008947810856625
2025-04-30 00:59:05.136016100,8.97601611328125,-0.0150461280635002,0.0060768784023821,-0.0079952284563426,-0.006220088340342,0.0048971359395379,0.9898863862331913,0.0077422182722153,left,-0.0050188899040222,-0.28412670064147,-0.1416309416458476,-9.41240459845364,-0.1415520855422126,0.0010773937683552,-0.006171622313559,2.748993295453489,-0.0022963285446166
2025-04-30 00:59:05.296413200,9.1364130859375,-0.0131825109641312,-0.00952426251024,-0.0069796285246475,0.0139352036640048,0.0041173039263369,0.9899529332753416,0.0064380401736246,left,0.0025111241266131,-0.2833257562621403,-0.1241185744992923,-9.41485082256198,-0.1411647294431905,0.0062727755866944,0.002210889942944,2.741452670815587,-0.0014688972150906
2025-04-30 00:59:05.336413200,9.1764130859375,-0.0131825109641312,-0.0032309810630977,-0.0069796285246475,0.012768255546689,0.0041173039263369,0.9899529332753416,0.0064380401736246,left,1.72853469848e-05,-0.2833257562621403,-0.1241185744992923,-9.41485082256198,-0.1411647294431905,-0.007677408400923,0.0013349307700991,2.741452670815587,0.0026625096797943
2025-04-30 00:59:05.376413400,9.216413330078124,-0.0127025035904841,7.26094003766e-05,-0.0067460466718581,0.0095440205186605,0.0041104426310942,0.9899394582889112,0.006491373331646,left,0.0014751553535461,-0.2835385836270609,-0.1195919456540141,-9.41432592190504,-0.1412708754489791,-0.0023899949155747,0.0012903604656457,2.7434564118534324,0.001642107963562
2025-04-30 00:59:05.416413200,9.2564130859375,-0.0122224463561223,0.0033762003295123,-0.0065124613404119,0.0063197850249707,0.0041035870244548,0.9899258992009546,0.0065448293963651,left,0.0029326677322387,-0.283751345251882,-0.1150653807408176,-9.413798098638653,-0.1413769948175031,0.0028974190354347,0.0012457938864827,2.7454595683693883,0.0006217658519744
2025-04-30 00:59:05.456413200,9.2964130859375,-0.0122224463561223,0.0066797910258173,-0.0065124613404119,0.0030955499969422,0.0041035870244548,0.9899258992009546,0.0065448293963651,left,0.0044440627098083,-0.283751345251882,-0.1150653807408176,-9.413798098638653,-0.1413769948175031,0.0081848334521055,0.0016628168523311,2.7454595683693883,-0.0001943409442901
2025-04-30 00:59:05.496413200,9.3364130859375,-0.0122224463561223,0.0055358889512717,-0.0065124613404119,-0.0078710876405239,0.0041035870244548,0.9899258992009546,0.0065448293963651,left,0.0009389519691467,-0.283751345251882,-0.1150653807408176,-9.413798098638653,-0.1413769948175031,0.0150996576994657,0.0018914388492703,2.7454595683693883,-0.0015030801296234
2025-04-30 00:59:05.536413200,9.3764130859375,-0.0122224463561223,0.0052136001177132,-0.0065124613404119,-0.0099639929831027,0.0041035870244548,0.9899258992009546,0.0065448293963651,left,-8.43405723571e-05,-0.283751345251882,-0.1150653807408176,-9.413798098638653,-0.1413769948175031,0.0124955829232931,0.0010487902909517,2.7454595683693883,-0.0011696517467498
2025-04-30 00:59:05.576413200,9.4164130859375,-0.0127958563324272,0.0052027897909283,-0.006831366644314,-0.0151574872434139,0.0043984188325856,0.9900212033209644,0.0070668245090864,left,0.0008796453475952,-0.2823566231467751,-0.1205122023040894,-9.417550144648551,-0.14068366879777,0.010740834288299,-0.0037604821845889,2.732326238290965,-0.0016300082206726
2025-04-30 00:59:05.616413200,9.4564130859375,-0.0127958563324272,0.0069924481213092,-0.006831366644314,0.0047653261572122,0.0043984188325856,0.9900212033209644,0.0070668245090864,left,-0.0001186728477478,-0.2823566231467751,-0.1205122023040894,-9.417550144648551,-0.14068366879777,0.0109266368672251,-0.0013558650389313,2.732326238290965,-0.0043332278728485
2025-04-30 00:59:05.656413400,9.496413330078123,-0.012925410038975,0.0023667709901928,-0.0069402270007397,-0.0106606120243668,0.0047278112029415,0.9900720819398796,0.007718287310091,left,0.0028839111328125,-0.2816047848616138,-0.1217587956985458,-9.41958603439033,-0.1403089533422517,0.0023700790479779,-0.0043070036917924,2.7252444633364674,-0.0022268593311309
2025-04-30 00:59:05.696413200,9.5364130859375,-0.012925410038975,0.0080443387851119,-0.0069402270007397,-0.0075220516882836,0.0047278112029415,0.9900720819398796,0.007718287310091,left,-3.59416007995e-05,-0.2816047848616138,-0.1217587956985458,-9.41958603439033,-0.1403089533422517,-0.0037431977689266,-0.0053062327206134,2.7252444633364674,0.0008080303668975
2025-04-30 00:59:05.736413200,9.5764130859375,-0.013413717763819,0.0026622610166668,-0.0072122060856801,0.0017230468802154,0.0049736635710981,0.9900527624028388,0.0081442750482809,left,-0.0029121041297912,-0.2818410464885806,-0.1263498041500803,-9.418881100991369,-0.1404232154806845,-0.0100571624934673,-0.0058160526677966,2.727470030431449,-0.0002108216285705
2025-04-30 00:59:05.776413200,9.6164130859375,-0.013413717763819,-0.0076483059674501,-0.0072122060856801,0.0224111024290323,0.0049736635710981,0.9900527624028388,0.0081442750482809,left,-0.002619445323944,-0.2818410464885806,-0.1263498041500803,-9.418881100991369,-0.1404232154806845,-0.0077366037294268,-0.0001299707219004,2.727470030431449,-0.0022710263729095
2025-04-30 00:59:05.816413200,9.6564130859375,-0.0122425375374802,-0.0171252004802227,-0.0065872229672289,0.0131781930103898,0.0045695804985756,0.9900288097910788,0.0074917561822791,left,0.0056820511817932,-0.2822617324286162,-0.1153044501936994,-9.417874554297327,-0.1406365075829496,0.0088871577754616,0.0009999927133321,2.7314325043216345,-0.0032367408275604
2025-04-30 00:59:05.856413200,9.6964130859375,-0.0125363573964378,-0.0129543216899037,-0.0066773161727118,-0.010842596180737,0.0042038160155922,0.990069124037609,0.0067143847184753,left,0.0031778216361999,-0.2816983267361068,-0.1180908843081444,-9.4193779445976,-0.1403595406684277,0.0128013826906681,-0.001193119212985,2.72612563008517,0.0038408041000366
2025-04-30 00:59:05.896413400,9.736413330078124,-0.0125363573964378,0.0077018914744257,-0.0066773161727118,-0.0042370907030999,0.0042038160155922,0.990069124037609,0.0067143847184753,left,-0.0017762184143066,-0.2816983267361068,-0.1180908843081444,-9.4193779445976,-0.1403595406684277,0.0078224167227745,-0.0023953169584274,2.72612563008517,0.0018337070941925
2025-04-30 00:59:05.936413200,9.7764130859375,-0.0126058431852041,0.0140518872067332,-0.006748820659768,0.0094666182994842,0.0044749272558161,0.9901147932429856,0.0072560838534856,left,-0.0023396611213684,-0.2810266562314598,-0.1187684456429909,-9.421198145762084,-0.1400250643824244,0.005152840167284,-0.002177988179028,2.719797888368368,-0.0013468265533447
2025-04-30 00:59:05.976413200,9.8164130859375,-0.0120916984007487,0.0031400304287672,-0.006518735871922,0.0105761429294943,0.0046133971257469,0.99013045353492,0.007609664856823,left,-0.0004441738128662,-0.2808150965137453,-0.1139315270058345,-9.421833521056175,-0.1399203315017087,0.0031507748644798,0.000734562985599,2.717804376463592,-0.0038290321826934
2025-04-30 00:59:06.016413200,9.8564130859375,-0.0118157170278432,-0.0037435921840369,-0.006363860897022,0.005127037409693,0.0044658469564417,0.9901403698074512,0.0073512676172595,left,0.0005932450294494,-0.2806958349108577,-0.1113350990381557,-9.422188325843214,-0.1398627335676773,0.0024274769239127,0.0009541278705,2.716680633130669,-0.0028605461120605
2025-04-30 00:59:06.056413200,9.8964130859375,-0.0118157170278432,-0.0106272147968411,-0.006363860897022,-0.0003220681101083,0.0044658469564417,0.9901403698074512,0.0073512676172595,left,0.0015944838523864,-0.2806958349108577,-0.1113350990381557,-9.422188325843214,-0.1398627335676773,0.0017041788669303,0.0014384547248482,2.716680633130669,-0.0020066797733306
2025-04-30 00:59:06.096413200,9.9364130859375,-0.0118157170278432,0.001877436414361,-0.006363860897022,-0.0018100827001035,0.0044658469564417,0.9901403698074512,0.0073512676172595,left,0.001866340637207,-0.2806958349108577,-0.1113350990381557,-9.422188325843214,-0.1398627335676773,-0.0029238583520054,-0.0003414703533053,2.716680633130669,0.0021519660949707
2025-04-30 00:59:06.136413400,9.976413330078126,-0.0118157170278432,0.0105130551382899,-0.006363860897022,-0.004572722595185,0.0044658469564417,0.9901403698074512,0.0073512676172595,left,-0.001471996307373,-0.2806958349108577,-0.1113350990381557,-9.422188325843214,-0.1398627335676773,-0.0034014706034213,-0.0016259970143437,2.716680633130669,0.000785082578659
2025-04-30 00:59:06.176413200,10.0164130859375,-0.0118157170278432,0.0169232822954654,-0.006363860897022,0.0067062960006296,0.0044658469564417,0.9901403698074512,0.0073512676172595,left,-0.000856876373291,-0.2806958349108577,-0.1113350990381557,-9.422188325843214,-0.1398627335676773,-0.0125991953536868,-0.0011921403929591,2.716680633130669,0.0017673075199127
2025-04-30 00:59:06.216413200,10.0564130859375,-0.0113544931105709,0.0066875778138637,-0.0061953737271003,-0.0044427602551877,0.004847898931625,0.9900666023450972,0.0081828040174614,left,0.0038556456565856,-0.2817404902299111,-0.1069570666170213,-9.419396064776182,-0.1403783679743292,-0.0071566798724234,-0.0014876201748847,2.726522812709212,-0.0022206902503967
2025-04-30 00:59:06.256413200,10.0964130859375,-0.0114064062823714,0.0029159688856452,-0.0062345077571415,-0.0025794422253966,0.0049443064509354,0.9900508611818712,0.0083690925124886,left,0.0013364553451538,-0.2819558854465839,-0.1074393611080944,-9.41880277505815,-0.1404842889321157,-0.0015778057277202,-0.0011415034532546,2.7285516881883143,0.0002471804618835
2025-04-30 00:59:06.296413200,10.1364130859375,-0.0114064062823714,0.0017390485154464,-0.0062345077571415,0.0005985349416732,0.0049443064509354,0.9900508611818712,0.0083690925124886,left,0.000409722328186,-0.2819558854465839,-0.1074393611080944,-9.41880277505815,-0.1404842889321157,0.0018731313757598,-0.0017599184066057,2.7285516881883143,0.0012077689170837
2025-04-30 00:59:06.336413200,10.1764130859375,-0.0115700339724584,0.001676354673691,-0.0063330346609328,-0.0017243644688278,0.0050806413272552,0.990059364700468,0.0086219947898975,left,-0.0007728338241577,-0.2818185976664879,-0.1089848643838893,-9.41915933341086,-0.1404151215275937,0.0012187147513031,-0.0010666185989975,2.727258725768328,-0.0003004670143127
2025-04-30 00:59:06.376413400,10.216413330078124,-0.0115700339724584,0.0006796238012611,-0.0063330346609328,-0.0012483543250709,0.0050806413272552,0.990059364700468,0.0086219947898975,left,0.0004228949546813,-0.2818185976664879,-0.1089848643838893,-9.41915933341086,-0.1404151215275937,0.0035257346462458,-0.0013053053990006,2.727258725768328,-0.0004284083843231
2025-04-30 00:59:06.416413200,10.2564130859375,-0.0119584630733137,0.0023886400740593,-0.0065294372753926,-0.0046805813908576,0.005141136357615,0.9900886757279524,0.0086914584901056,left,0.0011603832244873,-0.2813809777153007,-0.1126577990092802,-9.420309087967873,-0.1401972621836488,0.0140092130750417,-0.0019590873271226,2.723136092880368,-0.0021450221538543
2025-04-30 00:59:06.456413200,10.2964130859375,-0.0119574603382258,0.0028974087908864,-0.0065329382088996,0.0030885310843586,0.0051749083454672,0.9901289788910712,0.0087629192272383,left,-0.0012207627296447,-0.2808027077979625,-0.1126671604926697,-9.421882036373018,-0.1399107577579404,0.0112877264618873,-0.0007396219298243,2.7176877643465995,-0.0026566982269287
2025-04-30 00:59:06.496413200,10.3364130859375,-0.0119574603382258,-0.0036814040504395,-0.0065329382088996,-0.0061666639521718,0.0051749083454672,0.9901289788910712,0.0087629192272383,left,0.0017685890197753,-0.2808027077979625,-0.1126671604926697,-9.421882036373018,-0.1399107577579404,-0.0007901564240455,-0.0013965237885713,2.7176877643465995,-0.0034118890762329
2025-04-30 00:59:06.536413200,10.3764130859375,-0.0122896198720934,0.0010547102428972,-0.006693990234739,0.000913880765438,0.0051763404067614,0.9901440298305878,0.0087201413353377,left,0.0002532005310058,-0.2805739450015991,-0.1158043625398538,-9.422465389218926,-0.1397967805171001,0.0001650677877478,0.0003621391952037,2.7155320476174354,-0.0017259418964385
2025-04-30 00:59:06.576413200,10.4164130859375,-0.0122896198720934,0.002617587801069,-0.006693990234739,-0.0022690286859869,0.0051763404067614,0.9901440298305878,0.0087201413353377,left,0.0016039013862609,-0.2805739450015991,-0.1158043625398538,-9.422465389218926,-0.1397967805171001,-0.0012004282325506,-0.0026097521185874,2.7155320476174354,-0.0014001429080963
2025-04-30 00:59:06.616413400,10.456413330078124,-0.0122896198720934,-0.0012817226815968,-0.006693990234739,-0.0038344929926097,0.0051763404067614,0.9901440298305878,0.0087201413353377,left,0.0011098980903625,-0.2805739450015991,-0.1158043625398538,-9.422465389218926,-0.1397967805171001,-0.0010606113355606,-0.002087359316647,2.7155320476174354,-0.0007901787757873
2025-04-30 00:59:06.656413400,10.496413330078123,-0.0122896198720934,-0.005181033629924,-0.006693990234739,-0.0053999572992324,0.0051763404067614,0.9901440298305878,0.0087201413353377,left,0.0006159543991088,-0.2805739450015991,-0.1158043625398538,-9.422465389218926,-0.1397967805171001,-0.000920794554986,-0.0015649665147066,2.7155320476174354,-0.0001802146434783
2025-04-30 00:59:06.696413200,10.5364130859375,-0.0122896198720934,0.0024696690961718,-0.006693990234739,-0.0032532694749534,0.0051763404067614,0.9901440298305878,0.0087201413353377,left,0.0012333989143371,-0.2805739450015991,-0.1158043625398538,-9.422465389218926,-0.1397967805171001,0.0004360196180641,-0.0012141522020101,2.7155320476174354,0.0017591714859008
2025-04-30 00:59:06.736413200,10.5764130859375,-0.0126834407910675,0.0025899889878928,-0.0069074857622428,-0.0041441284120082,0.005334011202168,0.990134375682816,0.0089823931303738,left,0.0009675621986389,-0.2806838599022632,-0.11951132729901,-9.4221211058259,-0.139849261251184,-0.0008165849139913,-0.0007853610441088,2.71656782040596,0.0006137490272521
2025-04-30 00:59:06.776413200,10.6164130859375,-0.0126834407910675,0.0027103086467832,-0.0069074857622428,-0.0050349878147244,0.005334011202168,0.990134375682816,0.0089823931303738,left,0.0007368922233581,-0.2806838599022632,-0.11951132729901,-9.4221211058259,-0.139849261251184,-0.0020691894460469,-0.0007345676422119,2.71656782040596,-0.0004260838031768
2025-04-30 00:59:06.816413200,10.6564130859375,-0.0126834407910675,-0.0052483985200524,-0.0069074857622428,-0.0035966641735285,0.005334011202168,0.990134375682816,0.0089823931303738,left,4.71472740173e-05,-0.2806838599022632,-0.11951132729901,-9.4221211058259,-0.139849261251184,0.005491673015058,-0.0009917113929986,2.71656782040596,-0.0012887418270111
2025-04-30 00:59:06.856413200,10.6964130859375,-0.0126834407910675,-0.0114390244707465,-0.0069074857622428,0.0070728752762079,0.005334011202168,0.990134375682816,0.0089823931303738,left,-0.0007237792015075,-0.2806838599022632,-0.11951132729901,-9.4221211058259,-0.139849261251184,0.0066751660779118,-0.0007840543985366,2.71656782040596,-0.0010968744754791
2025-04-30 00:59:06.896413400,10.736413330078124,-0.0131197617754286,-0.0081363748759031,-0.0070712535089904,0.0068600703962147,0.0050007791147353,0.9901864796064792,0.0082520914242043,left,0.0011998414993286,-0.2799426495001693,-0.1236487650304567,-9.42407866963446,-0.1394837302040157,0.0057823276147246,-0.0006570415571331,2.7095827838242053,-0.0012308657169342
2025-04-30 00:59:06.936413200,10.7764130859375,-0.0130714120461549,-0.0018944051116704,-0.0070324613176015,-0.0009158966131508,0.0048954579416476,0.9902178392225144,0.0080488004444369,left,0.0019295215606689,-0.2795023738472414,-0.1232086931127589,-9.425276354986428,-0.1392665850302288,0.0081064971163868,-0.0009614014998078,2.7054329706683755,-0.0018311142921447
2025-04-30 00:59:06.976413200,10.8164130859375,-0.0130714120461549,0.0043475651182234,-0.0070324613176015,-0.0086918640881776,0.0048954579416476,0.9902178392225144,0.0080488004444369,left,0.0025369524955749,-0.2795023738472414,-0.1232086931127589,-9.425276354986428,-0.1392665850302288,0.0104306656867265,-0.0012209014967083,2.7054329706683755,-0.0028544664382934
2025-04-30 00:59:07.016413200,10.8564130859375,-0.0130714120461549,0.0104774013161659,-0.0070324613176015,0.0056856479495763,0.0048954579416476,0.9902178392225144,0.0080488004444369,left,-0.0071128606796264,-0.2795023738472414,-0.1232086931127589,-9.425276354986428,-0.1392665850302288,-0.0063712205737829,0.000337635166943,2.7054329706683755,0.0024147927761077
2025-04-30 00:59:07.056413200,10.8964130859375,-0.0130714120461549,0.0070436652749776,-0.0070324613176015,-0.0048471624031662,0.0048954579416476,0.9902178392225144,0.0080488004444369,left,0.0056293606758117,-0.2795023738472414,-0.1232086931127589,-9.425276354986428,-0.1392665850302288,-0.0205495171248912,-0.0019114790484309,2.7054329706683755,-0.003089815378189
2025-04-30 00:59:07.096413200,10.9364130859375,-0.0133465297826407,0.0081725819036364,-0.0072366381667275,-0.0109194722026586,0.0053914243111943,0.9901674068630224,0.0090077750685988,left,0.0015877485275268,-0.2801756369349741,-0.1257774110896047,-9.423418744421005,-0.1395957934194917,-0.0141893196851015,-0.0015910696238279,2.711778540302813,-0.001122623682022
2025-04-30 00:59:07.136413400,10.976413330078126,-0.0134211131732043,0.0100956372916698,-0.0073110151596252,-0.0017410954460501,0.0056578609246446,0.9901360463165818,0.0095328638536004,left,-0.0005715489387512,-0.280599905551386,-0.1264647905655671,-9.422257883948086,-0.1398037233922235,-0.0069093001075088,-0.0047085359692573,2.7157766700282693,9.84370708465e-05
2025-04-30 00:59:07.176413200,11.0164130859375,-0.0134211131732043,0.006543016526848,-0.0073110151596252,7.21092801541e-05,0.0056578609246446,0.9901360463165818,0.0095328638536004,left,-0.0010227560997009,-0.280599905551386,-0.1264647905655671,-9.422257883948086,-0.1398037233922235,-0.0053002769127488,-0.0029090568423271,2.7157766700282693,0.0004802644252777
2025-04-30 00:59:07.216413200,11.0564130859375,-0.0128855151673074,-0.0027477270923554,-0.007038474824458,0.0053640371188521,0.0055654425540188,0.99012029045547,0.009420323407002,left,0.0014812350273132,-0.2808574519444942,-0.1214092150758951,-9.421624846741556,-0.1399331293088543,0.0020336476154625,-0.0018051294609904,2.718203604914248,-0.0010423362255096
2025-04-30 00:59:07.256413200,11.0964130859375,-0.0128855151673074,-0.0120384711772203,-0.007038474824458,0.010655965656042,0.0055654425540188,0.99012029045547,0.009420323407002,left,0.0040498375892639,-0.2808574519444942,-0.1214092150758951,-9.421624846741556,-0.1399331293088543,0.0093675721436738,-0.000185671262443,2.718203604914248,-0.0023174583911895
2025-04-30 00:59:07.296413200,11.1364130859375,-0.0122486961679731,-0.004269964993,-0.0066871937041542,0.0080219013616442,0.0052679506213053,0.990137384401606,0.0089104682261851,left,0.0005252957344055,-0.2806641341885851,-0.1154157559479121,-9.422225735244156,-0.1398408978866754,0.0075371353887021,0.0008100308477878,2.7163819424450395,-0.0004962682723999
2025-04-30 00:59:07.336413200,11.1764130859375,-0.0122486961679731,0.0033734273165464,-0.0066871937041542,-0.0086085377261042,0.0052679506213053,0.990137384401606,0.0089104682261851,left,0.0017626285552978,-0.2806641341885851,-0.1154157559479121,-9.422225735244156,-0.1398408978866754,-0.0105856005102396,-0.0004843445494771,2.7163819424450395,0.0021020770072937
2025-04-30 00:59:07.376413400,11.216413330078124,-0.0125253451976321,0.0065820924937725,-0.0068398715707489,-0.0006389403715729,0.00539311758368,0.9900980314128304,0.0091211836636097,left,-0.000917375087738,-0.2812054120053029,-0.1180039732096716,-9.42072176042199,-0.140107408562686,-0.0095579447224736,0.0005716774612665,2.721481895932555,-0.0013113021850585
2025-04-30 00:59:07.416413200,11.2564130859375,-0.0125253451976321,-0.0005643283948302,-0.0068398715707489,0.0034123440273106,0.00539311758368,0.9900980314128304,0.0091211836636097,left,0.0011807680130004,-0.2812054120053029,-0.1180039732096716,-9.42072176042199,-0.140107408562686,0.0004130052402615,-0.0004262290894985,2.721481895932555,-0.0010822713375091
2025-04-30 00:59:07.456413200,11.2964130859375,-0.0125253451976321,-0.0061767045408487,-0.0068398715707489,0.0035723040346056,0.00539311758368,0.9900980314128304,0.0091211836636097,left,0.0001507997512817,-0.2812054120053029,-0.1180039732096716,-9.42072176042199,-0.140107408562686,0.0021601375192403,0.000186176970601,2.721481895932555,6.4671039581e-06
2025-04-30 00:59:07.496413200,11.3364130859375,-0.0125253451976321,-0.0064734215848147,-0.0068398715707489,-0.0016579821240156,0.00539311758368,0.9900980314128304,0.0091211836636097,left,1.09672546386e-05,-0.2812054120053029,-0.1180039732096716,-9.42072176042199,-0.140107408562686,0.0024098614230751,0.0001947004348039,2.721481895932555,-7.7188014984e-06
2025-04-30 00:59:07.536413200,11.3764130859375,-0.0125253451976321,-0.0004073162563145,-0.0068398715707489,-0.0054107885807752,0.00539311758368,0.9900980314128304,0.0091211836636097,left,0.0015070438385009,-0.2812054120053029,-0.1180039732096716,-9.42072176042199,-0.140107408562686,0.0003252909518778,-0.0012712450698018,2.721481895932555,0.002230018377304
2025-04-30 00:59:07.576413200,11.4164130859375,-0.0125253451976321,0.0044402005150914,-0.0068398715707489,-0.0055422899313271,0.00539311758368,0.9900980314128304,0.0091211836636097,left,0.0004383921623229,-0.2812054120053029,-0.1180039732096716,-9.42072176042199,-0.140107408562686,0.0032041636295616,-0.0021878713741898,2.721481895932555,4.12762165069e-05
2025-04-30 00:59:07.616413400,11.456413330078124,-0.0125253451976321,0.0091633480042219,-0.0068398715707489,-0.0029585603624582,0.00539311758368,0.9900980314128304,0.0091211836636097,left,0.000406265258789,-0.2812054120053029,-0.1180039732096716,-9.42072176042199,-0.140107408562686,0.0073814908973872,-0.001582340337336,2.721481895932555,-0.000667005777359
2025-04-30 00:59:07.656413400,11.496413330078123,-0.0125253451976321,0.0018445714376866,-0.0068398715707489,0.0027089840732514,0.00539311758368,0.9900980314128304,0.0091211836636097,left,-0.000760793685913,-0.2812054120053029,-0.1180039732096716,-9.42072176042199,-0.140107408562686,0.0072510805912315,-0.0012162076309323,2.721481895932555,-0.0037009418010711
2025-04-30 00:59:07.696413200,11.5364130859375,-0.0125728128916312,-0.0031470623798668,-0.0068664525323115,0.0030704408418387,0.0054278906914027,0.9901641283700944,0.0091900634035257,left,0.0005184412002563,-0.2802554591607637,-0.118483600819623,-9.42329657934606,-0.1396367538114037,0.0041565177962183,-0.0008110562339425,2.71253081997484,-0.0021285712718963
2025-04-30 00:59:07.736413200,11.5764130859375,-0.0125728128916312,-0.0070556499995291,-0.0068664525323115,0.0012265357654541,0.0054278906914027,0.9901641283700944,0.0091900634035257,left,-0.0018374323844909,-0.2802554591607637,-0.118483600819623,-9.42329657934606,-0.1396367538114037,0.005603396333754,-0.0005056569352746,2.71253081997484,-0.0023571550846099
2025-04-30 00:59:07.776413200,11.6164130859375,-0.0125728128916312,0.0012158169411122,-0.0068664525323115,-0.0072190864011645,0.0054278906914027,0.9901641283700944,0.0091900634035257,left,0.0066365599632263,-0.2802554591607637,-0.118483600819623,-9.42329657934606,-0.1396367538114037,0.0033805400598794,-0.0037092389538884,2.71253081997484,-0.0020963549613952
2025-04-30 00:59:07.816413200,11.6564130859375,-0.0125728128916312,0.004156928975135,-0.0068664525323115,0.0020237201824784,0.0054278906914027,0.9901641283700944,0.0091900634035257,left,0.005057156085968,-0.2802554591607637,-0.118483600819623,-9.42329657934606,-0.1396367538114037,-0.0075995028018951,-0.0024388199672102,2.71253081997484,-0.0011604726314544
2025-04-30 00:59:07.856413200,11.6964130859375,-0.0125728128916312,0.0070980410091578,-0.0068664525323115,0.0112665276974439,0.0054278906914027,0.9901641283700944,0.0091900634035257,left,0.0034778118133544,-0.2802554591607637,-0.118483600819623,-9.42329657934606,-0.1396367538114037,-0.0185795444995164,-0.0011684000492095,2.71253081997484,-0.0002245903015136
2025-04-30 00:59:07.896413400,11.736413330078124,-0.0125728128916312,-0.0021055215038359,-0.0068664525323115,-7.0817768573e-06,0.0054278906914027,0.9901641283700944,0.0091900634035257,left,0.0036982297897338,-0.2802554591607637,-0.118483600819623,-9.42329657934606,-0.1396367538114037,-0.0058399438858032,-2.4601817131e-05,2.71253081997484,-0.0024848282337188
2025-04-30 00:59:07.936413200,11.7764130859375,-0.0125728128916312,0.0021455502137541,-0.0068664525323115,0.0024219572078436,0.0054278906914027,0.9901641283700944,0.0091900634035257,left,0.0011953115463256,-0.2802554591607637,-0.118483600819623,-9.42329657934606,-0.1396367538114037,-0.00030597159639,0.0008283862844109,2.71253081997484,0.0008496940135955
2025-04-30 00:59:07.976413200,11.8164130859375,-0.0117434131819959,0.0026524816639721,-0.0064859510928603,-0.0018831572961062,0.0055764700042666,0.9901221346709552,0.0096039013578582,left,0.0001465082168579,-0.2808787419104317,-0.1106480026899836,-9.421699665543436,-0.139946232045816,-0.0011718593304976,0.0001015150919556,2.7184040959224105,0.0001040399074554
2025-04-30 00:59:08.016413200,11.8564130859375,-0.0117434131819959,0.0003229239955544,-0.0064859510928603,-0.0048237331211566,0.0055764700042666,0.9901221346709552,0.0096039013578582,left,0.0007943511009216,-0.2808787419104317,-0.1106480026899836,-9.421699665543436,-0.139946232045816,-0.0016766176559031,0.0006518000736832,2.7184040959224105,-0.000642716884613
2025-04-30 00:59:08.056413200,11.8964130859375,-0.0117434131819959,-0.0071212593466043,-0.0064859510928603,-0.0078355334699153,0.0055764700042666,0.9901221346709552,0.0096039013578582,left,0.0049787759780883,-0.2808787419104317,-0.1106480026899836,-9.421699665543436,-0.139946232045816,-0.0014051606412976,-0.0018185321241617,2.7184040959224105,-0.0028809607028961
2025-04-30 00:59:08.096413200,11.9364130859375,-0.0117434131819959,0.0020170239731669,-0.0064859510928603,-0.0019440874457359,0.0055764700042666,0.9901221346709552,0.0096039013578582,left,-0.0013712644577026,-0.2808787419104317,-0.1106480026899836,-9.421699665543436,-0.139946232045816,0.0026482369285076,0.0015712566673755,2.7184040959224105,-0.0006665289402008
2025-04-30 00:59:08.136413400,11.976413330078126,-0.0117434131819959,0.0040897242724895,-0.0064859510928603,-0.004028707742691,0.0055764700042666,0.9901221346709552,0.0096039013578582,left,0.0021211504936218,-0.2808787419104317,-0.1106480026899836,-9.421699665543436,-0.139946232045816,0.0002450956963002,-0.0014175483956933,2.7184040959224105,-0.000640720129013
2025-04-30 00:59:08.176413200,12.0164130859375,-0.0120985670788713,0.0039444952271878,-0.0066778428041887,-0.0023869010619819,0.0057120193137481,0.9901022821431714,0.0098261208698343,left,0.0010623931884765,-0.2811378199605467,-0.113985622680094,-9.420954984655976,-0.1400727452949595,-0.0012136317091062,-0.0013868026435375,2.7208450593337417,-0.0008099377155303
2025-04-30 00:59:08.216413200,12.0564130859375,-0.0120985670788713,0.0037992664147168,-0.0066778428041887,-0.0007450944976881,0.0057120193137481,0.9901022821431714,0.0098261208698343,left,7.95722007751e-05,-0.2811378199605467,-0.113985622680094,-9.420954984655976,-0.1400727452949595,-0.0026723593473434,-0.0016963956877589,2.7208450593337417,-0.0007302165031433
2025-04-30 00:59:08.256413200,12.0964130859375,-0.0120985670788713,0.0016869599930942,-0.0066778428041887,-0.0011757847387343,0.0057120193137481,0.9901022821431714,0.0098261208698343,left,0.0011232495307922,-0.2811378199605467,-0.113985622680094,-9.420954984655976,-0.1400727452949595,-0.0009167675161734,-0.0018736058846116,2.7208450593337417,-0.0006878077983856
2025-04-30 00:59:08.296413200,12.1364130859375,-0.0120985670788713,-0.0030457633547484,-0.0066778428041887,-0.0042629712261259,0.0057120193137481,0.9901022821431714,0.0098261208698343,left,0.0007768869400024,-0.2811378199605467,-0.113985622680094,-9.420954984655976,-0.1400727452949595,0.0008674361743032,-0.0008756630122661,2.7208450593337417,-0.0005188882350921
2025-04-30 00:59:08.336413200,12.1764130859375,-0.0120985670788713,-0.0031490607652813,-0.0066778428041887,-0.0079958532005548,0.0057120193137481,0.9901022821431714,0.0098261208698343,left,0.001310646533966,-0.2811378199605467,-0.113985622680094,-9.420954984655976,-0.1400727452949595,0.0035116507206112,-0.000541741028428,2.7208450593337417,0.0011816620826721
2025-04-30 00:59:08.376413400,12.216413330078124,-0.0130617967832741,0.0027112609241157,-0.0071638790394359,-0.0093408189713954,0.0058455780607533,0.9901056131934188,0.0099602294354763,left,0.001676321029663,-0.2810364322112675,-0.1230637134178075,-9.421116897219418,-0.1400193126099123,0.0025930798146873,-0.0017335545271635,2.7198899505659937,0.0013418793678283
2025-04-30 00:59:08.416413200,12.2564130859375,-0.0133696858205033,0.0037790476344525,-0.0073418575612684,-0.0063823154196143,0.0060492458044337,0.9901116587249698,0.010328794846954,left,0.0001255273818969,-0.2809190112093775,-0.1259686410790775,-9.421397467726468,-0.1399589251442581,0.0034380266442894,-0.0022867228835821,2.718783742889762,-0.0008434057235717
2025-04-30 00:59:08.456413200,12.2964130859375,-0.0133696858205033,0.00484683457762,-0.0073418575612684,-0.0034238116350024,0.0060492458044337,0.9901116587249698,0.010328794846954,left,-0.0014538168907165,-0.2809190112093775,-0.1259686410790775,-9.421397467726468,-0.1399589251442581,0.0042829737067222,-0.003136109560728,2.718783742889762,-0.0031414926052093
2025-04-30 00:59:08.496413200,12.3364130859375,-0.0133696858205033,-0.0013768719509243,-0.0073418575612684,0.0011182578746229,0.0060492458044337,0.9901116587249698,0.010328794846954,left,-0.0010080933570861,-0.2809190112093775,-0.1259686410790775,-9.421397467726468,-0.1399589251442581,0.003287301864475,-0.0023900000378489,2.718783742889762,-0.0033122301101684
2025-04-30 00:59:08.536413200,12.3764130859375,-0.0133696858205033,-0.0039610145613551,-0.0073418575612684,0.0038730285596102,0.0060492458044337,0.9901116587249698,0.010328794846954,left,-6.15715980529e-05,-0.2809190112093775,-0.1259686410790775,-9.421397467726468,-0.1399589251442581,0.0005680683534592,-0.0036379098892211,2.718783742889762,-0.0016995370388031
2025-04-30 00:59:08.576413200,12.4164130859375,-0.0133696858205033,-0.0101587381213903,-0.0073418575612684,0.0028596364427357,0.0060492458044337,0.9901116587249698,0.010328794846954,left,-0.0013817548751831,-0.2809190112093775,-0.1259686410790775,-9.421397467726468,-0.1399589251442581,0.0006977622397243,-0.0018625669181346,2.718783742889762,-0.0014354884624481
2025-04-30 00:59:08.616413400,12.456413330078124,-0.0133696858205033,-0.0073132729157805,-0.0073418575612684,-0.0032212308142334,0.0060492458044337,0.9901116587249698,0.010328794846954,left,0.0046184659004211,-0.2809190112093775,-0.1259686410790775,-9.421397467726468,-0.1399589251442581,-0.0001228351029567,-0.0084391478449106,2.718783742889762,-0.0027813017368316
2025-04-30 00:59:08.656413400,12.496413330078123,-0.0133696858205033,-0.0012281886301934,-0.0073418575612684,0.0189094264060258,0.0060492458044337,0.9901116587249698,0.010328794846954,left,-0.0057209134101867,-0.2809190112093775,-0.1259686410790775,-9.421397467726468,-0.1399589251442581,-0.0024009519256651,-0.0034820865839719,2.718783742889762,8.29696655273e-05
2025-04-30 00:59:08.696413200,12.5364130859375,-0.012372599337866,-0.0069987708702683,-0.0068112457196327,0.0203703846782445,0.0057150102171278,0.990099907614844,0.0097932747202703,left,-0.0024961233139038,-0.2811595420680363,-0.1165665334182325,-9.420864383763076,-0.1400828299893597,-0.0016225747531279,-0.0003532841801643,2.7210499342560768,-0.0008003711700439
2025-04-30 00:59:08.736413200,12.5764130859375,-0.0113755947293469,-0.0127693535760045,-0.0062806332436418,0.0218313429504632,0.0053807246599155,0.9900876462069572,0.0092578673471556,left,0.0007275938987731,-0.2814005308199717,-0.1071663711193017,-9.420319609361886,-0.1402066661464341,-0.0008441975805908,0.002775702625513,2.7233202172756195,-0.0016841888427734
2025-04-30 00:59:08.776413200,12.6164130859375,-0.0104560617785864,-0.0065550929866731,-0.0057999988515283,0.0164259374141693,0.0051376347081347,0.9900973521821178,0.0088974285793387,left,0.0044189691543579,-0.281315625648973,-0.0985064509947318,-9.420645772576332,-0.1401681365239578,0.0050218375399708,0.001908516511321,2.722520299069583,0.0010910630226135
2025-04-30 00:59:08.816413200,12.6564130859375,-0.0101279643496561,-0.0019009504467248,-0.0056272880345735,0.0030720997601747,0.0050451124759796,0.9901193546724308,0.0087582946473177,left,0.0015246272087097,-0.2810204587334106,-0.0954236916816793,-9.421480469834805,-0.1400232406371263,0.0028688088059425,0.0023069875314831,2.7197394361793994,0.0013425946235656
2025-04-30 00:59:08.856413200,12.6964130859375,-0.0101279643496561,-0.0022335965186357,-0.0056272880345735,0.0030734881293028,0.0050451124759796,0.9901193546724308,0.0087582946473177,left,4.57167625427e-05,-0.2810204587334106,-0.0954236916816793,-9.421480469834805,-0.1400232406371263,-0.0036322795785963,0.0029273033142089,2.7197394361793994,-8.3178281784e-05
2025-04-30 00:59:08.896413400,12.736413330078124,-0.0101279643496561,-0.0052032065577805,-0.0056272880345735,0.0029769686516374,0.0050451124759796,0.9901193546724308,0.0087582946473177,left,0.004318356513977,-0.2810204587334106,-0.0954236916816793,-9.421480469834805,-0.1400232406371263,-0.0006736000068485,0.0003342824056744,2.7197394361793994,-0.0040488541126251
2025-04-30 00:59:08.936413200,12.7764130859375,-0.0101279643496561,-0.0018114987760782,-0.0056272880345735,-2.3038592189e-06,0.0050451124759796,0.9901193546724308,0.0087582946473177,left,-9.5784664154e-05,-0.2810204587334106,-0.0954236916816793,-9.421480469834805,-0.1400232406371263,0.008663160726428,0.0023352024145424,2.7197394361793994,-0.0026739835739135
2025-04-30 00:59:08.976413200,12.8164130859375,-0.0096251952717488,0.0034016137942671,-0.0053513234038218,0.0007574874325655,0.0048224306323152,0.9901483521420418,0.0083811976461379,left,0.0017008185386657,-0.2806394897346765,-0.0906968092902563,-9.422563004374505,-0.1398369061217813,0.0027702548541128,0.0002962928265333,2.716149887254834,0.0002039968967437
2025-04-30 00:59:09.016413200,12.8564130859375,-0.0096251952717488,-0.0006018881686031,-0.0053513234038218,-0.0098068909719586,0.0048224306323152,0.9901483521420418,0.0083811976461379,left,0.0014251470565795,-0.2806394897346765,-0.0906968092902563,-9.422563004374505,-0.1398369061217813,-0.0026677348650991,-0.0005944641306996,2.716149887254834,-0.0009812712669372
2025-04-30 00:59:09.056413200,12.8964130859375,-0.0096251952717488,0.0030555306002497,-0.0053513234038218,-0.0042139305733144,0.0048224306323152,0.9901483521420418,0.0083811976461379,left,0.0007261037826538,-0.2806394897346765,-0.0906968092902563,-9.422563004374505,-0.1398369061217813,-0.0035874941386282,-0.0014959555119276,2.716149887254834,-0.0002530217170715
2025-04-30 00:59:09.096413200,12.9364130859375,-0.0096251952717488,0.0027752926107496,-0.0053513234038218,-0.0049569848924875,0.0048224306323152,0.9901483521420418,0.0083811976461379,left,0.0002090334892272,-0.2806394897346765,-0.0906968092902563,-9.422563004374505,-0.1398369061217813,-0.0024020436685532,-0.0009554475545883,2.716149887254834,-0.0008336007595062
2025-04-30 00:59:09.136413400,12.976413330078126,-0.0101377444432492,-0.0029480324592441,-0.0056178484105792,-0.0042716292664408,0.004945407601805,0.9901238895843728,0.0085557710192761,left,3.34382057189e-05,-0.2809623776339211,-0.0955174343797378,-9.42163770622313,-0.139995033207304,-0.0009701737435534,-0.0005236156284809,2.719192323690653,-0.0012305378913879
2025-04-30 00:59:09.176413200,13.0164130859375,-0.0101377444432492,-0.0025112205184996,-0.0056178484105792,-0.0056978855282068,0.004945407601805,0.9901238895843728,0.0085557710192761,left,0.0008744001388549,-0.2809623776339211,-0.0955174343797378,-9.42163770622313,-0.139995033207304,0.0002518873661756,-0.0021419925615191,2.719192323690653,0.0003228187561035
2025-04-30 00:59:09.216413200,13.0564130859375,-0.0108205639542588,0.0062575624324381,-0.0059496280546096,-0.0081505207344889,0.0049503394719261,0.9901321648869778,0.0084698765450383,left,0.0008927583694458,-0.280819536851604,-0.101954892681865,-9.421958608740567,-0.1399228711515818,0.0034325767774134,-0.0028149504214525,2.7178461697787046,0.0008714497089385
2025-04-30 00:59:09.256413200,13.0964130859375,-0.0108205639542588,0.0091403918340802,-0.0059496280546096,-0.0035886438563466,0.0049503394719261,0.9901321648869778,0.0084698765450383,left,0.0001023411750793,-0.280819536851604,-0.101954892681865,-9.421958608740567,-0.1399228711515818,0.0071248104795813,-0.0014111530035734,2.7178461697787046,-0.0021949112415313
2025-04-30 00:59:09.296413200,13.1364130859375,-0.0110224125328276,0.0034373388625681,-0.0060554116472313,-0.0032026164699345,0.0050098663318196,0.9901595517290604,0.0085635716734786,left,5.62071800231e-05,-0.280416143578002,-0.1038687726123258,-9.423032959973812,-0.1397223748350792,0.0056432178243994,-0.000772968865931,2.7140450239300726,-0.0012022852897644
2025-04-30 00:59:09.336413200,13.1764130859375,-0.0110224125328276,-0.0022657145746052,-0.0060554116472313,-0.0028165890835225,0.0050098663318196,0.9901595517290604,0.0085635716734786,left,-9.95397567749e-05,-0.280416143578002,-0.1038687726123258,-9.423032959973812,-0.1397223748350792,0.0041616247035562,-0.000329946167767,2.7140450239300726,-0.0005972385406494
2025-04-30 00:59:09.376413400,13.216413330078124,-0.0110224125328276,-0.0023921835236251,-0.0060554116472313,-0.0032700265292078,0.0050098663318196,0.9901595517290604,0.0085635716734786,left,0.0009664893150329,-0.280416143578002,-0.1038687726123258,-9.423032959973812,-0.1397223748350792,0.0018634507432579,-0.0008994461968541,2.7140450239300726,-0.0016219019889831
2025-04-30 00:59:09.416413200,13.2564130859375,-0.0110224125328276,-0.0046611102297902,-0.0060554116472313,-0.0056174811907112,0.0050098663318196,0.9901595517290604,0.0085635716734786,left,0.0017255544662475,-0.280416143578002,-0.1038687726123258,-9.423032959973812,-0.1397223748350792,0.0010856282897293,-0.0015062671154737,2.7140450239300726,-0.002281367778778
2025-04-30 00:59:09.456413200,13.2964130859375,-0.0117444275975492,-0.0005765436217188,-0.0063883606713394,-0.0015045199543237,0.0048908189299599,0.9901908700130716,0.0082237097851233,left,0.0036666393280029,-0.279946795650163,-0.1106872661212924,-9.42422830723822,-0.1394892821062835,0.0016962297959253,-0.0011438531801104,2.709621946790814,-0.0013160705566406
2025-04-30 00:59:09.496413200,13.3364130859375,-0.0117444275975492,0.0037623266689479,-0.0063883606713394,-3.05494759231e-05,0.0048908189299599,0.9901908700130716,0.0082237097851233,left,-0.0034483671188354,-0.279946795650163,-0.1106872661212924,-9.42422830723822,-0.1394892821062835,0.0031482349149882,-0.0019591841846704,2.709621946790814,-0.0041732490062713
2025-04-30 00:59:09.536413200,13.3764130859375,-0.0117444275975492,0.007324022706598,-0.0063883606713394,0.0092278737574815,0.0048908189299599,0.9901908700130716,0.0082237097851233,left,-0.0009936094284057,-0.279946795650163,-0.1106872661212924,-9.42422830723822,-0.1394892821062835,-0.0128440652042627,-0.0025717495009303,2.709621946790814,4.26769256591e-05
2025-04-30 00:59:09.576413200,13.4164130859375,-0.011533438443545,-0.0001933882012963,-0.0063170923196036,0.0003977986052632,0.0051055087934923,0.9901463778928968,0.0086838144346455,left,0.0031567215919494,-0.2805776574161126,-0.1086791137698106,-9.422540208020806,-0.139800672641229,-0.012744165956974,-0.0020547155290842,2.7155671189308164,-0.0030375719070434
2025-04-30 00:59:09.616413400,13.456413330078124,-0.011533438443545,-3.56159289367e-05,-0.0063170923196036,7.32617918401e-05,0.0051055087934923,0.9901463778928968,0.0086838144346455,left,0.0010929703712463,-0.2805776574161126,-0.1086791137698106,-9.422540208020806,-0.139800672641229,-0.0023470679298043,-0.0013491734862327,2.7155671189308164,-0.0005273222923278
2025-04-30 00:59:09.656413400,13.496413330078123,-0.011533438443545,0.0008488599560223,-0.0063170923196036,-0.0005007908330298,0.0051055087934923,0.9901463778928968,0.0086838144346455,left,0.000180959701538,-0.2805776574161126,-0.1086791137698106,-9.422540208020806,-0.139800672641229,-0.002451526466757,-0.0009343642741441,2.7155671189308164,0.0005167424678802
2025-04-30 00:59:09.696413200,13.5364130859375,-0.011533438443545,0.0018637930043041,-0.0063170923196036,-0.0032509744632989,0.0051055087934923,0.9901463778928968,0.0086838144346455,left,-7.92741775512e-05,-0.2805776574161126,-0.1086791137698106,-9.422540208020806,-0.139800672641229,-0.0051941024139523,-0.0020029600709676,2.7155671189308164,1.84178352355e-05
2025-04-30 00:59:09.736413200,13.5764130859375,-0.011533438443545,-0.0010068470146507,-0.0063170923196036,0.0008915208745747,0.0051055087934923,0.9901463778928968,0.0086838144346455,left,0.000708520412445,-0.2805776574161126,-0.1086791137698106,-9.422540208020806,-0.139800672641229,-0.0019380408339202,-0.000645799562335,2.7155671189308164,9.09566879272e-05
2025-04-30 00:59:09.776413200,13.6164130859375,-0.011533438443545,-0.0030023127328604,-0.0063170923196036,-0.002047091955319,0.0051055087934923,0.9901463778928968,0.0086838144346455,left,0.0013818740844726,-0.2805776574161126,-0.1086791137698106,-9.422540208020806,-0.139800672641229,0.0027510407380759,-0.0011975849047303,2.7155671189308164,-0.0015541911125183
2025-04-30 00:59:09.816413200,13.6564130859375,-0.011533438443545,-0.0016693485667929,-0.0063170923196036,0.004852675832808,0.0051055087934923,0.9901463778928968,0.0086838144346455,left,0.0014556646347045,-0.2805776574161126,-0.1086791137698106,-9.422540208020806,-0.139800672641229,0.0024626376107335,-0.0007550176233053,2.7155671189308164,-0.0009892284870147
2025-04-30 00:59:09.856413200,13.6964130859375,-0.011533438443545,-0.0035402844659984,-0.0063170923196036,-0.0056673670187592,0.0051055087934923,0.9901463778928968,0.0086838144346455,left,0.0004070401191711,-0.2805776574161126,-0.1086791137698106,-9.422540208020806,-0.139800672641229,-0.0079191569238901,-0.0002608047798275,2.7155671189308164,0.0002446770668029
2025-04-30 00:59:09.896413400,13.736413330078124,-0.011533438443545,-0.0018220999045297,-0.0063170923196036,-0.0034115051385015,0.0051055087934923,0.9901463778928968,0.0086838144346455,left,0.0010685920715332,-0.2805776574161126,-0.1086791137698106,-9.422540208020806,-0.139800672641229,-0.0035705030895769,0.0005950527265667,2.7155671189308164,0.0002268552780151
2025-04-30 00:59:09.936413200,13.7764130859375,-0.011533438443545,-0.000103915343061,-0.0063170923196036,-0.0011556432582437,0.0051055087934923,0.9901463778928968,0.0086838144346455,left,0.0017300844192504,-0.2805776574161126,-0.1086791137698106,-9.422540208020806,-0.139800672641229,0.0007781502790749,0.0014509102329611,2.7155671189308164,0.0002090334892272
2025-04-30 00:59:09.976413200,13.8164130859375,-0.011533438443545,0.0010658542159944,-0.0063170923196036,-0.007545543834567,0.0051055087934923,0.9901463778928968,0.0086838144346455,left,0.0006410479545593,-0.2805776574161126,-0.1086791137698106,-9.422540208020806,-0.139800672641229,-0.002475666347891,0.0008563548326492,2.7155671189308164,0.0004019439220428
2025-04-30 00:59:10.016413200,13.8564130859375,-0.0120724833926952,0.001541665289551,-0.0065911477838325,-0.0113888680934906,0.0051872323023335,0.990094792908198,0.0087689422962649,left,0.0012195706367492,-0.2812861047435348,-0.1137350180530454,-9.42055458716154,-0.1401497412089707,-0.0023456530179828,-0.0003498904407024,2.7222423589110374,-0.0009178221225738
2025-04-30 00:59:10.056413200,13.8964130859375,-0.0120724833926952,0.0049118818715214,-0.0065911477838325,-0.0130323134362697,0.0051872323023335,0.990094792908198,0.0087689422962649,left,0.0011461973190307,-0.2812861047435348,-0.1137350180530454,-9.42055458716154,-0.1401497412089707,-0.0031735911034047,-0.0025435108691453,2.7222423589110374,-0.0004940629005432
2025-04-30 00:59:10.096413200,13.9364130859375,-0.0130008389267592,0.0077646095305681,-0.0070722614290709,-0.0111530432477593,0.0054017223308474,0.9900713666033784,0.009069184302996,left,0.0002745389938354,-0.2815627502752558,-0.1224707981591112,-9.419691248330473,-0.1402832183276523,-0.0029734065756201,-0.0040433136746287,2.724848449756205,-0.0006668865680694
2025-04-30 00:59:10.136413400,13.976413330078126,-0.0133706589338998,0.0061644837260246,-0.0072783254924811,-0.0046078097075223,0.0055893263534839,0.990065088911376,0.0093954015657328,left,-0.0004434585571289,-0.2816218560963108,-0.1259522288003936,-9.419484327581523,-0.140310278220986,-0.0005044999998062,-0.0040845395997166,2.725405206856131,-0.0002053678035736
2025-04-30 00:59:10.176413200,14.0164130859375,-0.0133706589338998,-0.000922966748476,-0.0072783254924811,0.0010476782917976,0.0055893263534839,0.990065088911376,0.0093954015657328,left,0.0003151893615722,-0.2816218560963108,-0.1259522288003936,-9.419484327581523,-0.140310278220986,0.0009287041611969,-0.0024504326283931,2.725405206856131,-0.0024178326129913
