time,seconds_elapsed,roll,rotationRateZ,quaternionY,rotationRateY,quaternionZ,quaternionW,yaw,devicelocation,accelerationZ,pitch,gravityX,gravityZ,quaternionX,rotationRateX,accelerationX,gravityY,accelerationY
2025-04-30 00:59:59.069592000,0.560592041015625,0.2066287368258951,0.0007677786052227,0.0997873404854499,0.003640164155513,3.451015350067616e-18,0.9841107389916854,0.0306216602877142,left,-0.0219781398773193,-0.2932412213173204,1.92606143970713,-9.188322871345282,-0.1468618249217013,0.0035291123203933,-0.1804986745119094,2.8346771902188657,4.49120998382e-05
2025-04-30 00:59:59.109592000,0.600592041015625,0.067124127391756,-0.0024874100927263,0.0362921084759044,0.0002875057980418,-0.0257990808249569,0.9881643486684412,-0.0421827194435606,left,-0.0014961957931518,-0.2963020934529077,0.6291049816481769,-9.358181425356864,-0.1467938220099698,-0.0034273848868906,-0.0489156767725944,2.863399426834285,-0.0030390620231628
2025-04-30 00:59:59.149591800,0.640591796875,0.0241438314296652,-0.0025890658143907,0.0166602246377597,0.0031826661434024,-0.0337793237764168,0.9886421963519508,-0.0647457094871402,left,0.0028172731399536,-0.2929775814056337,0.2266589937178418,-9.38603447792232,-0.1454917973497156,-0.0061906445771455,-0.007112605497241,2.832202032276988,0.0012938976287841
2025-04-30 00:59:59.189591800,0.680591796875,0.0157977392753137,0.0007005569059401,0.0128572694015574,0.0026065320707857,-0.0352704284856453,0.9885688080655992,-0.0689885424300806,left,0.001383900642395,-0.2938217493867002,0.1482774669882375,-9.385205041360855,-0.1460218705580988,-0.0034651032183319,0.0001348638907074,2.8401266877964138,0.0013767778873443
2025-04-30 00:59:59.229591800,0.720591796875,0.0157977392753137,-0.0008380939252674,0.0128572694015574,0.0021178151946514,-0.0352704284856453,0.9885688080655992,-0.0689885424300806,left,0.0006285309791564,-0.2938217493867002,0.1482774669882375,-9.385205041360855,-0.1460218705580988,-0.0019853913690894,0.0009288974106311,2.8401266877964138,0.0012666583061218
2025-04-30 00:59:59.269592000,0.760592041015625,0.015738441340427,-0.0044916262850165,0.0128503232162083,-0.003912579268217,-0.0353392288290928,0.9885146415876194,-0.0691345490138316,left,0.0024127960205078,-0.2945303749792836,0.1476892370378132,-9.38319954675734,-0.1463722572501084,-0.0011360656935721,0.0012773815542459,2.846777377857268,0.002202570438385
2025-04-30 00:59:59.309592000,0.800592041015625,0.015738441340427,-0.0008368766866624,0.0128503232162083,-0.0056399395689368,-0.0353392288290928,0.9885146415876194,-0.0691345490138316,left,0.002211570739746,-0.2945303749792836,0.1476892370378132,-9.38319954675734,-0.1463722572501084,0.0038381072226911,0.000469671562314,2.846777377857268,0.0024990737438201
2025-04-30 00:59:59.349592000,0.840592041015625,0.0159813695476332,0.0047954674810171,0.012972948666699,-0.0021112083923071,-0.0352920800011837,0.9884603067786843,-0.0690010347475558,left,0.0004490613937377,-0.2952786221477934,0.149934586545499,-9.381030970546602,-0.1467386896718087,-0.0015208913246169,-0.0017172116786241,2.853798362535238,0.0009790062904357
2025-04-30 00:59:59.389591800,0.880591796875,0.0159813695476332,0.0001026499085128,0.012972948666699,-0.0004116727504879,-0.0352920800011837,0.9884603067786843,-0.0690010347475558,left,0.0010062456130981,-0.2952786221477934,0.149934586545499,-9.381030970546602,-0.1467386896718087,-0.0001548948930576,-0.0017323335632681,2.853798362535238,-0.0013192594051361
2025-04-30 00:59:59.429591800,0.920591796875,0.0157740126533701,-0.0009822559077292,0.0128882066139511,-0.0027043027803301,-0.0353997944646928,0.9884595769465608,-0.0692498495750088,left,0.0017336010932922,-0.2952474942030617,0.1479907681345008,-9.3811502130121,-0.1467253549033622,0.000528804550413,-0.0015646014362573,2.85350639385134,-0.0014636218547821
2025-04-30 00:59:59.469591800,0.960591796875,0.0155666388531346,-0.0020671617239713,0.0128034634388937,-0.004996933043003,-0.0355075927423638,0.9884588381359573,-0.0694988311971361,left,0.0024609565734863,-0.2952163061890863,0.1460467396609485,-9.381270039999484,-0.1467120096581449,0.0012125039938837,-0.0013968357816338,2.853213840645552,-0.0016078948974609
2025-04-30 00:59:59.509592000,1.000592041015625,0.0155666388531346,-0.0031520675402134,0.0128034634388937,-0.0072895633056759,-0.0355075927423638,0.9884588381359573,-0.0694988311971361,left,0.0031760931015014,-0.2952163061890863,0.1460467396609485,-9.381270039999484,-0.1467120096581449,0.001896203495562,-0.0014273133128881,2.853213840645552,-0.0017820000648498
2025-04-30 00:59:59.549592000,1.040592041015625,0.0155666388531346,0.004593045450747,0.0128034634388937,0.0001080785878002,-0.0355075927423638,0.9884588381359573,-0.0694988311971361,left,0.00477135181427,-0.2952163061890863,0.1460467396609485,-9.381270039999484,-0.1467120096581449,-0.0054165706969797,-0.0012469245120882,2.853213840645552,-0.0015327632427215
2025-04-30 00:59:59.714083000,1.2050830078125,0.0164655175090596,-0.0022954167798161,0.0131763476615789,0.003073746105656,-0.0350290258910471,0.9884291005339578,-0.0683952675550736,left,-0.0003695525228977,-0.2958038080312812,0.1544516895106062,-9.379457437619566,-0.1469937155628289,-0.0048404661938548,0.0021521362941712,2.858725589804352,1.05164363048e-05
2025-04-30 00:59:59.754083000,1.2450830078125,0.0164655175090596,0.0032462677918374,0.0131763476615789,0.0027235399466007,-0.0350290258910471,0.9884291005339578,-0.0683952675550736,left,-0.0009894371032714,-0.2958038080312812,0.1544516895106062,-9.379457437619566,-0.1469937155628289,0.0009989612735807,0.001767398789525,2.858725589804352,-0.000585913658142
2025-04-30 00:59:59.794083300,1.285083251953125,0.0164655175090596,0.008787952363491,0.0131763476615789,0.0023733337875455,-0.0350290258910471,0.9884291005339578,-0.0683952675550736,left,-0.0016093850135803,-0.2958038080312812,0.1544516895106062,-9.379457437619566,-0.1469937155628289,0.0068383887410163,0.0013826638460159,2.858725589804352,-0.0011823177337646
2025-04-30 00:59:59.834083300,1.325083251953125,0.0165781023798853,0.0079894578084349,0.0132030517918228,-0.0020267574582248,-0.0348708759060221,0.9884536295881584,-0.0680593725487931,left,0.0001390576362609,-0.2955418393927285,0.1555200676607899,-9.380188089981674,-0.1468644698439874,0.0028944313526153,0.0004660841077566,2.856267967519164,-0.0008812844753265
2025-04-30 00:59:59.874083300,1.365083251953125,0.0165781023798853,0.0071909627877175,0.0132030517918228,-0.0064268484711647,-0.0348708759060221,0.9884536295881584,-0.0680593725487931,left,0.0018129348754882,-0.2955418393927285,0.1555200676607899,-9.380188089981674,-0.1468644698439874,-0.0010495265014469,-0.0003415513783693,2.856267967519164,-0.0008308291435241
2025-04-30 00:59:59.914083300,1.405083251953125,0.0164422668393783,0.0080511178821325,0.0130867663961909,-0.0048386151902377,-0.0345460498575667,0.9884765151193232,-0.067422791040815,left,0.0002097487449645,-0.2953919963118713,0.1542529520681128,-9.380637002792954,-0.1467969618294306,-0.0029854271560907,0.000864079222083,2.854862192374468,-0.0002885162830352
2025-04-30 00:59:59.954083300,1.445083251953125,0.0163417299696268,0.0056022768840193,0.0130188566425813,-0.0037564733065664,-0.0344100631319684,0.9884776455240324,-0.0671624087635156,left,0.0001133680343627,-0.2954478450648053,0.1533072321832179,-9.38049321040809,-0.146827984440035,-0.0022074249573051,0.0004669278860092,2.855386216248572,-0.0001559555530548
2025-04-30 00:59:59.994083000,1.4850830078125,0.0163417299696268,0.0031534363515675,0.0130188566425813,-0.0026743314228951,-0.0344100631319684,0.9884776455240324,-0.0671624087635156,left,3.16500663757e-05,-0.2954478450648053,0.1533072321832179,-9.38049321040809,-0.146827984440035,-0.001429422525689,-2.66544520854e-05,2.855386216248572,3.00407409667e-05
2025-04-30 01:00:00.034083000,1.5250830078125,0.0160819547570087,-0.0050945458933711,0.012876814254736,-0.0031042494811117,-0.0342968183938399,0.9884809600136794,-0.0669717969892403,left,-3.02195549011e-05,-0.2954692188640023,0.1508694288433529,-9.380471583098172,-0.1468442549424069,0.0002826315758284,-0.0010218890383839,2.8555867072567342,0.0004985630512237
2025-04-30 01:00:00.074083300,1.565083251953125,0.0160819547570087,-0.0015217559412121,0.012876814254736,-0.0051941745914518,-0.0342968183938399,0.9884809600136794,-0.0669717969892403,left,0.0011726021766662,-0.2954692188640023,0.1508694288433529,-9.380471583098172,-0.1468442549424069,0.0034282524138689,-0.0023335134610533,2.8555867072567342,0.0023099184036254
2025-04-30 01:00:00.114083300,1.605083251953125,0.0155910706456889,0.0077905897051095,0.0126330891008068,-0.0046824980527162,-0.0342904719500252,0.9885087681761828,-0.0670328619646359,left,-0.0001815557479858,-0.2951195575272535,0.1462802470227237,-9.381542427200078,-0.1466794534881997,0.008959911763668,-0.0018730610609054,2.8523060781508685,0.0007591247558593
2025-04-30 01:00:00.154083300,1.645083251953125,0.0155835097204982,0.0056841759942471,0.0125945174683709,0.0025396670680493,-0.0340959854053616,0.9885438870366748,-0.0666415864079337,left,-0.000486135482788,-0.2947335874016457,0.146226461875718,-9.382643666440249,-0.1464912658378312,0.009469449520111,0.0003343187272548,2.84868438052237,-0.0021188557147979
2025-04-30 01:00:00.194083300,1.685083251953125,0.0154527228736168,-0.0012974459677934,0.0125449322961804,0.0029592157807201,-0.0342069444677886,0.9885536609550816,-0.0668859536079157,left,-0.0002632141113281,-0.2945558532726153,0.1450071492138318,-9.383168567097186,-0.1464040975966282,0.0063998540863394,0.0001810109242796,2.8470164473101494,-0.0011471211910247
2025-04-30 01:00:00.234083000,1.7250830078125,0.0154527228736168,-0.0082790683954954,0.0125449322961804,0.0033787647262215,-0.0342069444677886,0.9885536609550816,-0.0668859536079157,left,-9.38177108764e-05,-0.2945558532726153,0.1450071492138318,-9.383168567097186,-0.1464040975966282,0.0033302593510597,-9.66386869549e-05,2.8470164473101494,-0.0003454685211181
2025-04-30 01:00:00.274083000,1.7650830078125,0.0151126308316858,0.0040442859753966,0.0124052175490992,-0.0025831717066466,-0.0344192717742073,0.9885786445455336,-0.0673669798084011,left,-0.0006325244903564,-0.2941317920255241,0.1418342365324497,-9.384423535594344,-0.1461973116083109,0.0075818402692675,-0.0016133980825543,2.8430367300242185,0.0007885992527008
2025-04-30 01:00:00.314083300,1.805083251953125,0.0151126308316858,0.0156822092831134,0.0124052175490992,0.015102494508028,-0.0344192717742073,0.9885786445455336,-0.0673669798084011,left,-0.0039519667625427,-0.2941317920255241,0.1418342365324497,-9.384423535594344,-0.1461973116083109,-0.0018880926072597,0.0006137639284133,2.8430367300242185,0.0026285350322723
2025-04-30 01:00:00.354083300,1.845083251953125,0.0160979656509055,0.0023017786443233,0.0128297193996697,0.0009655449539422,-0.0340352827150094,0.9885652255260652,-0.0664434424054126,left,0.0051799416542053,-0.2944453295997611,0.1510666045164223,-9.38338776280582,-0.1463412640230237,-0.0143725387752056,-0.0016446411609649,2.845979213216901,-0.0022053122520446
2025-04-30 01:00:00.394083300,1.885083251953125,0.0159262659017128,0.0004763175093103,0.0127542981103253,-0.0024004825390875,-0.0340584367049314,0.988545535664465,-0.0665148959909882,left,0.0020754337310791,-0.2947112474111635,0.1494434237613808,-9.38265652592182,-0.1464751827576423,-0.0002853525220416,0.0007203547284007,2.8484748294249176,0.0005635023117065
2025-04-30 01:00:00.434083300,1.925083251953125,0.0159262659017128,0.0029105828143656,0.0127542981103253,-0.0012860151473432,-0.0340584367049314,0.988545535664465,-0.0665148959909882,left,0.0014349222183227,-0.2947112474111635,0.1494434237613808,-9.38265652592182,-0.1464751827576423,0.0027009341865777,0.0002200929448008,2.8484748294249176,0.00113046169281
2025-04-30 01:00:00.474083000,1.9650830078125,0.0158079638872167,0.0027277448680251,0.0126726961187587,-0.0024555451236665,-0.0339249085330419,0.9885723865335192,-0.0662631628802784,left,3.43322753906e-05,-0.2944143756794412,0.1483467967642471,-9.383519280231,-0.1463320428141955,-0.0011971262283623,5.2936375141e-06,2.8456887058377265,2.70307064056e-05
2025-04-30 01:00:00.514083000,2.0050830078125,0.0158079638872167,-0.0042431401088833,0.0126726961187587,-0.0009383365977555,-0.0339249085330419,0.9885723865335192,-0.0662631628802784,left,-0.0012798905372619,-0.2944143756794412,0.1483467967642471,-9.383519280231,-0.1463320428141955,-0.0016280515119433,-0.0004269182682037,2.8456887058377265,-0.0011584758758544
2025-04-30 01:00:00.554083300,2.045083251953125,0.0154159313418992,-0.0013249851763248,0.0125080495290603,0.0002897414378821,-0.0340834503834559,0.9885618035351488,-0.0666416945541621,left,-0.0004797577857971,-0.2945044508364977,0.1446641901282128,-9.383320542788503,-0.1463808514234772,0.0065794154070317,-0.0011792816221714,2.846534216751158,-0.0011860132217407
2025-04-30 01:00:00.594083300,2.085083251953125,0.0154159313418992,0.0005217916332185,0.0125080495290603,0.0091962255537509,-0.0340834503834559,0.9885618035351488,-0.0666416945541621,left,-0.0018381476402282,-0.2945044508364977,0.1446641901282128,-9.383320542788503,-0.1463808514234772,0.0092382971197366,-0.000404730439186,2.846534216751158,-0.0021907985210418
2025-04-30 01:00:00.634083300,2.125083251953125,0.0157670605980143,0.0023609192576259,0.0126721344026229,-0.0018216017633676,-0.034108280985815,0.9886032694813088,-0.0666416898890697,left,0.0020157694816589,-0.2939087175504957,0.1479856444348115,-9.384963049298523,-0.1460803819384642,-0.0031307272147387,-7.80709087848e-05,2.840942972615361,0.0007443726062774
2025-04-30 01:00:00.674083300,2.165083251953125,0.0157670605980143,0.0010838784510269,0.0126721344026229,-0.0005192023236304,-0.034108280985815,0.9886032694813088,-0.0666416898890697,left,0.0012601017951965,-0.2939087175504957,0.1479856444348115,-9.384963049298523,-0.1460803819384642,-0.0033563775941729,0.0003576390445232,2.840942972615361,0.0004283487796783
2025-04-30 01:00:00.714083000,2.2050830078125,0.0157670605980143,-0.0001931622391566,0.0126721344026229,0.0007831969996914,-0.034108280985815,0.9886032694813088,-0.0666416898890697,left,0.0005044341087341,-0.2939087175504957,0.1479856444348115,-9.384963049298523,-0.1460803819384642,-0.0035820282064378,0.0007933489978313,2.840942972615361,0.0001123249530792
2025-04-30 01:00:00.754083000,2.2450830078125,0.0158219994266234,-0.0011883849510923,0.0127035156784624,-0.000123159319628,-0.0340820853830627,0.9885633061752532,-0.0665789262430358,left,0.0011126399040222,-0.2944633962616301,0.1484762866291217,-9.383377825933694,-0.1463540363393597,-0.0079268822446465,0.002739486284554,2.8461490168258545,-0.0002073943614959
2025-04-30 01:00:00.794083300,2.285083251953125,0.0155693826118384,-0.0074621466919779,0.0126030951867207,-0.0104411356151103,-0.0341941377147069,0.9885365940888994,-0.0668421103580856,left,0.0024395585060119,-0.2947883982290038,0.1460914829849731,-9.38248935266137,-0.1465173269131496,-0.003584588645026,-0.0007303431630134,2.8491987597852946,0.0003081262111663
2025-04-30 01:00:00.834083300,2.325083251953125,0.0155693826118384,-0.0011212667450308,0.0126030951867207,-0.0114316660910844,-0.0341941377147069,0.9885365940888994,-0.0668421103580856,left,0.0006943345069885,-0.2947883982290038,0.1460914829849731,-9.38248935266137,-0.1465173269131496,-0.0006411976646631,-0.0026234183460474,2.8491987597852946,0.0013539493083953
2025-04-30 01:00:00.874083300,2.365083251953125,0.0147434915943614,0.0059513798914849,0.0121999010468076,-0.0073902294971048,-0.0341894303177069,0.9885547741497976,-0.0669554882282208,left,-0.000622272491455,-0.2945829233094477,0.1383511436570435,-9.383191947972774,-0.146429189971893,0.0090330746024847,-0.003657728433609,2.847270714332163,0.0012211203575134
2025-04-30 01:00:00.914083300,2.405083251953125,0.0147434915943614,0.0037160371430218,0.0121999010468076,0.000736033078283,-0.0341894303177069,0.9885547741497976,-0.0669554882282208,left,-0.0010508894920349,-0.2945829233094477,0.1383511436570435,-9.383191947972774,-0.146429189971893,0.0060122879222035,-0.0024803429841995,2.847270714332163,-0.0015362799167633
2025-04-30 01:00:00.954083300,2.445083251953125,0.0146255716534023,-0.0067142634652554,0.0121229069712871,0.002950465073809,-0.0341138936201765,0.988598683762692,-0.0668214508062477,left,0.0018391013145446,-0.2940265690851297,0.1372678236660547,-9.384790615341068,-0.1461569883548115,0.008081660605967,-0.0031439680606126,2.842049180291593,-0.0026866197586059
2025-04-30 01:00:00.994083000,2.4850830078125,0.0144925059053818,-0.0109734386205673,0.0120827400382148,0.0090193878859281,-0.0343093909581045,0.98861415264986,-0.0672373030508524,left,-0.0010693073272705,-0.2937294075717419,0.1360312584752682,-9.385652785128354,-0.14600984951005,0.0092886267229914,-0.0010317768901586,2.8392598418340085,-0.0001543760299682
2025-04-30 01:00:01.034083000,2.5250830078125,0.0147362470587889,0.0025303945876657,0.0122180714905512,0.0039406670257449,-0.0344664909263502,0.9886340315203782,-0.0675199755384391,left,0.0032416582107543,-0.2933712061695685,0.1383339002612978,-9.386635950946808,-0.1458268653673289,-0.0007244044682011,-0.0043865134939551,2.8358973796635865,-0.0007845759391784
2025-04-30 01:00:01.074083300,2.565083251953125,0.0147362470587889,0.0092161744832992,0.0122180714905512,0.0186446420848369,-0.0344664909263502,0.9886340315203782,-0.0675199755384391,left,-0.0058582425117492,-0.2933712061695685,0.1383339002612978,-9.386635950946808,-0.1458268653673289,-0.0061874496750533,0.0012528449296951,2.8358973796635865,0.0011813938617706
2025-04-30 01:00:01.114083300,2.605083251953125,0.0159883853261082,0.0014792177826166,0.0127989598750101,0.0123957907781004,-0.0342574458600448,0.9886076366266,-0.0669111875441664,left,0.0033457279205322,-0.2937671712868979,0.1500691909769084,-9.385331882610917,-0.1460049094708896,-0.014703718945384,-0.0002296864986419,2.839614354360104,-0.0020252764225006
2025-04-30 01:00:01.154083300,2.645083251953125,0.0162143770372392,-0.009563592262566,0.012948514101967,0.0114919617772102,-0.0344662409690336,0.9885557253068614,-0.067298351221126,left,0.0007501244544982,-0.2943643798624935,0.15216267439113,-9.383600528773664,-0.1462937536575143,-0.0095902401953935,0.0025658030062913,2.845219627021253,-0.0004617273807525
2025-04-30 01:00:01.194083300,2.685083251953125,0.0162143770372392,-0.00455456180498,0.012948514101967,0.0076306704431772,-0.0344662409690336,0.9885557253068614,-0.067298351221126,left,0.0020444393157958,-0.2943643798624935,0.15216267439113,-9.383600528773664,-0.1462937536575143,-0.004276012070477,0.0017542503774166,2.845219627021253,0.0016130805015563
2025-04-30 01:00:01.234083000,2.7250830078125,0.0168459761761851,0.002486084587872,0.0132991560625453,0.0026188467163592,-0.034749439997443,0.9885276769431912,-0.0677771240418453,left,0.0001677870750427,-0.2945775304982978,0.1580791044938378,-9.382895595374702,-0.1463850404823249,0.0005859135417267,0.001802759245038,2.8472198609277606,0.0021211504936218
2025-04-30 01:00:01.274083000,2.7650830078125,0.0168459761761851,-0.0001013642176985,0.0132991560625453,0.001164857763797,-0.034749439997443,0.9885276769431912,-0.0677771240418453,left,0.0002586841583251,-0.2945775304982978,0.1580791044938378,-9.382895595374702,-0.1463850404823249,0.0019683032296597,0.0019533243030309,2.8472198609277606,6.89029693603e-05
2025-04-30 01:00:01.314083300,2.805083251953125,0.0168459761761851,-0.0018978836014866,0.0132991560625453,-0.0034390692599117,-0.034749439997443,0.9885276769431912,-0.0677771240418453,left,0.0022554397583007,-0.2945775304982978,0.1580791044938378,-9.382895595374702,-0.1463850404823249,0.0030733451712876,0.0018806997686624,2.8472198609277606,-0.002546340227127
2025-04-30 01:00:01.354083300,2.845083251953125,0.0168786942382157,-0.0038424902595579,0.0133281737910342,0.0047562890686094,-0.0348975356662437,0.9885624236452478,-0.0680737629634254,left,-0.0021979212760925,-0.2940306982296515,0.1584123367698863,-9.384445747426152,-0.146112190756264,0.0093406420201063,0.001156123355031,2.842088050997257,-0.003014862537384
2025-04-30 01:00:01.394083300,2.885083251953125,0.0168786942382157,-0.0016011791303753,0.0133281737910342,0.0022955511230975,-0.0348975356662437,0.9885624236452478,-0.0680737629634254,left,-0.0008031129837036,-0.2940306982296515,0.1584123367698863,-9.384445747426152,-0.146112190756264,0.0002927910536527,-0.0002151429653167,2.842088050997257,-0.0007961988449096
2025-04-30 01:00:01.434083300,2.925083251953125,0.0168786942382157,-0.00141286640428,0.0133281737910342,0.0014674348058179,-0.0348975356662437,0.9885624236452478,-0.0680737629634254,left,-3.16500663757e-05,-0.2940306982296515,0.1584123367698863,-9.384445747426152,-0.146112190756264,0.0005707493983209,0.0006992295384407,2.842088050997257,-0.0003529787063598
2025-04-30 01:00:01.474083000,2.9650830078125,0.0168786942382157,0.0006194105371832,0.0133281737910342,-0.0012169721303507,-0.0348975356662437,0.9885624236452478,-0.0680737629634254,left,0.0020240545272827,-0.2940306982296515,0.1584123367698863,-9.384445747426152,-0.146112190756264,0.0036531724035739,-1.87568366527e-05,2.842088050997257,0.0006890594959259
2025-04-30 01:00:01.514083000,3.0050830078125,0.0168786942382157,-0.0016081165522336,0.0133281737910342,-0.000780907110311,-0.0348975356662437,0.9885624236452478,-0.0680737629634254,left,0.0006964802742004,-0.2940306982296515,0.1584123367698863,-9.384445747426152,-0.146112190756264,-0.0018866583704948,6.25494867563e-05,2.842088050997257,0.0006057024002075
2025-04-30 01:00:01.554083300,3.045083251953125,0.0166418257027348,-0.0047791129909455,0.0132536861222516,-0.0064607420936226,-0.0351766348263531,0.9885590180111036,-0.0686736758171895,left,0.0012668967247009,-0.2939551961033436,0.1561930350189097,-9.384697676360606,-0.146075032241522,0.0007423370843753,-0.0005878871306777,2.841379318206012,-0.0009847581386566
2025-04-30 01:00:01.594083300,3.085083251953125,0.0166418257027348,-0.0028799306601285,0.0132536861222516,-0.0081932321190834,-0.0351766348263531,0.9885590180111036,-0.0686736758171895,left,0.0007812976837158,-0.2939551961033436,0.1561930350189097,-9.384697676360606,-0.146075032241522,-0.0001592209446243,-0.0002880115061998,2.841379318206012,0.0003347098827362
2025-04-30 01:00:01.634083300,3.125083251953125,0.0160286723537,0.0054558552801609,0.0129550147393133,-0.008074720390141,-0.0351722029793429,0.988568690957891,-0.0687555992603613,left,-7.60555267333e-05,-0.2938586206769981,0.1504431388558354,-9.385065925151109,-0.1460375372111635,0.0017353685107082,-0.0014973040670156,2.840472724755108,0.0005511343479156
2025-04-30 01:00:01.674083300,3.165083251953125,0.0160286723537,0.0036619864404201,0.0129550147393133,-0.0017005363479256,-0.0351722029793429,0.988568690957891,-0.0687555992603613,left,-0.0014228820800781,-0.2938586206769981,0.1504431388558354,-9.385065925151109,-0.1460375372111635,0.0050656176172196,-0.0005453461781144,2.840472724755108,-0.0015539526939392
2025-04-30 01:00:01.714083000,3.2050830078125,0.0160286723537,-0.0039080576971173,0.0129550147393133,0.0036024800501763,-0.0351722029793429,0.988568690957891,-0.0687555992603613,left,-0.0001145005226135,-0.2938586206769981,0.1504431388558354,-9.385065925151109,-0.1460375372111635,0.0020104970317333,-0.000710155814886,2.840472724755108,-0.0015667974948883
2025-04-30 01:00:01.754083000,3.2450830078125,0.015627268288166,-0.0091436943039298,0.0127484146934452,0.0024490181822329,-0.0351344052145431,0.9886028354599544,-0.0687395933630247,left,-0.0033303499221801,-0.2934309747449578,0.1466948922382202,-9.386339598348735,-0.145833301230244,0.0020667610224336,0.0005260128527879,2.836458520677686,-0.0023601651191711
2025-04-30 01:00:01.794083300,3.285083251953125,0.015627268288166,-0.0031775780953466,0.0127484146934452,0.0037121544592082,-0.0351344052145431,0.9886028354599544,-0.0687395933630247,left,-0.0058915019035339,-0.2934309747449578,0.1466948922382202,-9.386339598348735,-0.145833301230244,0.0004327355418354,0.000752855092287,2.836458520677686,1.68979167938e-05
2025-04-30 01:00:01.834083300,3.325083251953125,0.0159248314220798,0.0073944595642387,0.0129031448674342,0.0060344864614307,-0.035180435957638,0.9885818394333428,-0.0687881088381074,left,-0.0005505084991455,-0.293681108404634,0.1494766136449296,-9.38558556511104,-0.1459513978935323,-0.0107672810554504,-0.0003989310935139,2.8388065451085565,0.0006670951843261
2025-04-30 01:00:01.874083300,3.365083251953125,0.0159248314220798,0.0046704895794391,0.0129031448674342,0.0010668667964637,-0.035180435957638,0.9885818394333428,-0.0687881088381074,left,0.0032369494438171,-0.293681108404634,0.1494766136449296,-9.38558556511104,-0.1459513978935323,-0.0052422923035919,8.85259360074e-05,2.8388065451085565,-0.0011046230792999
2025-04-30 01:00:01.914083300,3.405083251953125,0.0159248314220798,0.0027457708492875,0.0129031448674342,0.0012480850564315,-0.035180435957638,0.9885818394333428,-0.0687881088381074,left,0.0014525055885314,-0.293681108404634,0.1494766136449296,-9.38558556511104,-0.1459513978935323,-0.0020570387132465,0.0002065645530819,2.8388065451085565,-0.0001384317874908
2025-04-30 01:00:01.954083300,3.445083251953125,0.0159248314220798,-0.000617493642494,0.0129031448674342,0.0007983053801581,-0.035180435957638,0.9885818394333428,-0.0687881088381074,left,0.0007060170173645,-0.293681108404634,0.1494766136449296,-9.38558556511104,-0.1459513978935323,-0.0016809435328468,0.000264604575932,2.8388065451085565,0.0002568066120147
2025-04-30 01:00:01.994083000,3.4850830078125,0.0159248314220798,-0.0002589341311249,0.0129031448674342,0.0003347540623508,-0.035180435957638,0.9885818394333428,-0.0687881088381074,left,0.0005102753639221,-0.293681108404634,0.1494766136449296,-9.38558556511104,-0.1459513978935323,-0.00070487143239,0.0008293455466628,2.8388065451085565,0.0003293454647064
2025-04-30 01:00:02.034083300,3.525083251953125,0.0159248314220798,0.0007936207111924,0.0129031448674342,-0.001629440113902,-0.035180435957638,0.9885818394333428,-0.0687881088381074,left,0.0026609897613525,-0.293681108404634,0.1494766136449296,-9.38558556511104,-0.1459513978935323,0.0050063417293131,-0.0003424491733312,2.8388065451085565,-0.0010179281234741
2025-04-30 01:00:02.074083300,3.565083251953125,0.0159248314220798,0.0069509288296103,0.0129031448674342,0.0042956336401402,-0.035180435957638,0.9885818394333428,-0.0687881088381074,left,-0.0015789866447448,-0.293681108404634,0.1494766136449296,-9.38558556511104,-0.1459513978935323,0.0098905535414814,0.0006483225151896,2.8388065451085565,-0.0019742250442504
2025-04-30 01:00:02.114083300,3.605083251953125,0.0163662665472053,0.0037191433366388,0.0130858469885606,0.0010936530306935,-0.0349989931994407,0.9886045825089752,-0.0683566341139609,left,0.0005149841308593,-0.2934352598108664,0.1536311486416496,-9.386216264230011,-0.1458249183777812,0.0037980005145072,-0.000287196598947,2.836498852688074,-0.0019101202487945
2025-04-30 01:00:02.154083300,3.645083251953125,0.0163662665472053,0.0016390339005738,0.0130858469885606,0.001155087724328,-0.0349989931994407,0.9886045825089752,-0.0683566341139609,left,0.0005019307136535,-0.2934352598108664,0.1536311486416496,-9.386216264230011,-0.1458249183777812,-0.002992286812514,0.001576330512762,2.836498852688074,-0.0012935101985931
2025-04-30 01:00:02.194083300,3.685083251953125,0.0163662665472053,0.0020847141277045,0.0130858469885606,-0.0005912672495469,-0.0349989931994407,0.9886045825089752,-0.0683566341139609,left,0.0010454058647155,-0.2934352598108664,0.1536311486416496,-9.386216264230011,-0.1458249183777812,-0.0030669057741761,0.0006434693932533,2.836498852688074,-0.0003590583801269
2025-04-30 01:00:02.234083000,3.7250830078125,0.0163662665472053,0.0040203700773417,0.0130858469885606,-0.0031115692108869,-0.0349989931994407,0.9886045825089752,-0.0683566341139609,left,0.0002328157424926,-0.2934352598108664,0.1536311486416496,-9.386216264230011,-0.1458249183777812,-0.0027897274121642,0.0007485300302505,2.836498852688074,-0.0004189908504486
2025-04-30 01:00:02.274083000,3.7650830078125,0.0163662665472053,0.0009197019971907,0.0130858469885606,-0.0051279296167194,-0.0349989931994407,0.9886045825089752,-0.0683566341139609,left,0.0007819533348083,-0.2934352598108664,0.1536311486416496,-9.386216264230011,-0.1458249183777812,-0.0023217562120407,0.0011493451893329,2.836498852688074,-0.0005120933055877
2025-04-30 01:00:02.314083300,3.805083251953125,0.0161419575871594,0.0019470447441563,0.0129591514785325,-0.0096277305856347,-0.0348183312399489,0.9885732820387592,-0.0680226307683573,left,0.0018998384475708,-0.2939610642829281,0.151501625799667,-9.384757882115244,-0.1460909427063228,-0.0037383870221674,0.000500027090311,2.8414342632636425,0.0006122291088104
2025-04-30 01:00:02.354083300,3.845083251953125,0.0157614297854112,0.0050870878621935,0.0127545437344883,-0.0113732479512691,-0.034645972537649,0.9885585559419888,-0.0677292972139981,left,0.000542938709259,-0.2942647563210669,0.147916853514919,-9.383951826429367,-0.1462495569905347,-0.0023529790341854,-0.001359618268907,2.844284684258699,0.0007863044738769
2025-04-30 01:00:02.394083300,3.885083251953125,0.0155030884538671,0.010337321087718,0.0125983905534425,-0.0051712188869714,-0.0344229225394526,0.98855930603453,-0.0673159563456052,left,-0.0009049773216247,-0.2943746986550365,0.1454877358050085,-9.383677101141211,-0.1463109775236326,-0.0001099705696105,-0.0025556627660989,2.845316365393996,0.0009963512420654
2025-04-30 01:00:02.434083300,3.925083251953125,0.0155030884538671,0.0093569066375494,0.0125983905534425,0.0043484168127179,-0.0344229225394526,0.98855930603453,-0.0673159563456052,left,-0.0012270808219909,-0.2943746986550365,0.1454877358050085,-9.383677101141211,-0.1463109775236326,-0.0022730084601789,-0.0019025448709726,2.845316365393996,-0.0008383691310882
2025-04-30 01:00:02.474083000,3.9650830078125,0.0155030884538671,-0.0027385437861084,0.0125983905534425,0.0085851652547717,-0.0344229225394526,0.98855930603453,-0.0673159563456052,left,-0.0010799169540405,-0.2943746986550365,0.1454877358050085,-9.383677101141211,-0.1463109775236326,-0.0011554998345673,0.000430941581726,2.845316365393996,-0.0013531446456909
2025-04-30 01:00:02.514083000,4.0050830078125,0.0155030884538671,-0.0093745365738868,0.0125983905534425,0.0018204324878752,-0.0344229225394526,0.98855930603453,-0.0673159563456052,left,0.0017797946929931,-0.2943746986550365,0.1454877358050085,-9.383677101141211,-0.1463109775236326,0.0026528511662036,0.0011576050892472,2.845316365393996,-0.0027703344821929
2025-04-30 01:00:02.554083300,4.045083251953125,0.0155030884538671,-0.0042037758976221,0.0125983905534425,0.0085911452770233,-0.0344229225394526,0.98855930603453,-0.0673159563456052,left,-0.0035342574119567,-0.2943746986550365,0.1454877358050085,-9.383677101141211,-0.1463109775236326,0.002589386422187,0.0026704827323555,2.845316365393996,0.001813381910324
2025-04-30 01:00:02.594083300,4.085083251953125,0.0162282508038933,0.0009335479699075,0.012952473115542,0.0045550777576863,-0.0344510750723315,0.9885585791847404,-0.0672657180290324,left,0.0015775561332702,-0.2943325496508694,0.1522943288136273,-9.383688791579008,-0.1462779851030347,-0.0014390042051672,0.00092438980937,2.844920936335623,0.0016818046569824
2025-04-30 01:00:02.634083300,4.125083251953125,0.0162282508038933,0.003851625137031,0.012952473115542,-5.81643544137e-05,-0.0344510750723315,0.9885585791847404,-0.0672657180290324,left,0.0024284720420837,-0.2943325496508694,0.1522943288136273,-9.383688791579008,-0.1462779851030347,0.0004833346465602,0.0014422126114368,2.844920936335623,0.0005153119564056
2025-04-30 01:00:02.674083300,4.165083251953125,0.0162282508038933,0.0057066120207309,0.012952473115542,-0.0024072818923741,-0.0344510750723315,0.9885585791847404,-0.0672657180290324,left,0.001452088356018,-0.2943325496508694,0.1522943288136273,-9.383688791579008,-0.1462779851030347,-9.0624729637e-05,0.0006795153021812,2.844920936335623,-9.37283039093e-05
2025-04-30 01:00:02.714083000,4.2050830078125,0.0163843618371199,0.0022928791586309,0.01299531275135,-0.0051495181396603,-0.0342224544165263,0.9885603499071592,-0.0667798426392998,left,0.0002433061599731,-0.2944088793293493,0.1537556700704619,-9.383447968560455,-0.1463161813375831,-0.0025598036590963,0.0002302918583154,2.845637267911434,-0.0004308819770812
2025-04-30 01:00:02.754083000,4.2450830078125,0.0163843618371199,-0.0014947650488466,0.01299531275135,-0.0027477762196213,-0.0342224544165263,0.9885603499071592,-0.0667798426392998,left,-0.0010012984275817,-0.2944088793293493,0.1537556700704619,-9.383447968560455,-0.1463161813375831,-0.0020383647643029,6.3482671976e-05,2.845637267911434,-0.000444620847702
2025-04-30 01:00:02.794083300,4.285083251953125,0.0163843618371199,0.0004045251989737,0.01299531275135,-0.0032649047207087,-0.0342224544165263,0.9885603499071592,-0.0667798426392998,left,-0.0005110502243041,-0.2944088793293493,0.1537556700704619,-9.383447968560455,-0.1463161813375831,0.0053117754869163,-0.0009261425584554,2.845637267911434,-0.0007062554359436
2025-04-30 01:00:02.834083300,4.325083251953125,0.0163843618371199,0.0030194716528058,0.01299531275135,0.004309894517064,-0.0342224544165263,0.9885603499071592,-0.0667798426392998,left,-0.0022190809249877,-0.2944088793293493,0.1537556700704619,-9.383447968560455,-0.1463161813375831,0.0072750467807054,-0.0004528993740677,2.845637267911434,-0.0010024607181549
2025-04-30 01:00:02.874083300,4.365083251953125,0.0163843618371199,0.0026752613484859,0.01299531275135,-0.0006493804976344,-0.0342224544165263,0.9885603499071592,-0.0667798426392998,left,9.17911529541e-05,-0.2944088793293493,0.1537556700704619,-9.383447968560455,-0.1463161813375831,0.0009260578081011,-0.0008795615285634,2.845637267911434,-0.0017761588096618
2025-04-30 01:00:02.914083300,4.405083251953125,0.0163843618371199,0.0010607823496684,0.01299531275135,0.0007344724144786,-0.0342224544165263,0.9885603499071592,-0.0667798426392998,left,-1.311302185e-06,-0.2944088793293493,0.1537556700704619,-9.383447968560455,-0.1463161813375831,-0.0051028602756559,-0.0006215199828147,2.845637267911434,-0.0009011924266815
2025-04-30 01:00:02.954083300,4.445083251953125,0.0163843618371199,0.0003554818104021,0.01299531275135,0.0013390216045081,-0.0342224544165263,0.9885603499071592,-0.0667798426392998,left,0.0007820725440979,-0.2944088793293493,0.1537556700704619,-9.383447968560455,-0.1463161813375831,-0.0077366502955555,-0.0008418755605816,2.845637267911434,-0.0010233521461486
2025-04-30 01:00:02.994083000,4.4850830078125,0.0163843618371199,-0.0011317366734147,0.01299531275135,0.0023122441489249,-0.0342224544165263,0.9885603499071592,-0.0667798426392998,left,0.0001164674758911,-0.2944088793293493,0.1537556700704619,-9.383447968560455,-0.1463161813375831,-0.0061118206940591,-0.0001036655157804,2.845637267911434,-0.0007705390453338
2025-04-30 01:00:03.034083300,4.525083251953125,0.0163843618371199,-0.0039019433315843,0.01299531275135,0.0015485672047361,-0.0342224544165263,0.9885603499071592,-0.0667798426392998,left,0.00099378824234,-0.2944088793293493,0.1537556700704619,-9.383447968560455,-0.1463161813375831,-0.0042678192257881,0.0001842398196458,2.845637267911434,-0.0001614689826965
2025-04-30 01:00:03.074083300,4.565083251953125,0.0163843618371199,-0.0047741434536874,0.01299531275135,-0.0024020429700613,-0.0342224544165263,0.9885603499071592,-0.0667798426392998,left,0.0015864968299865,-0.2944088793293493,0.1537556700704619,-9.383447968560455,-0.1463161813375831,-0.0023895145859569,-0.0004952708259224,2.845637267911434,0.0015663802623748
2025-04-30 01:00:03.114083300,4.605083251953125,0.0163843618371199,0.0012845401652157,0.01299531275135,-0.0045183356851339,-0.0342224544165263,0.9885603499071592,-0.0667798426392998,left,0.0014590620994567,-0.2944088793293493,0.1537556700704619,-9.383447968560455,-0.1463161813375831,-0.0004551602760329,-0.0010055107995867,2.845637267911434,0.0019270479679107
2025-04-30 01:00:03.154083300,4.645083251953125,0.0163843618371199,0.0041319774463772,0.01299531275135,-0.0028674229979515,-0.0342224544165263,0.9885603499071592,-0.0667798426392998,left,0.0010799765586853,-0.2944088793293493,0.1537556700704619,-9.383447968560455,-0.1463161813375831,0.0023932373151183,-0.0010156771168112,2.845637267911434,0.0007077455520629
2025-04-30 01:00:03.194083300,4.685083251953125,0.0163843618371199,-0.0021100183948874,0.01299531275135,-0.0032403550576418,-0.0342224544165263,0.9885603499071592,-0.0667798426392998,left,0.0012909770011901,-0.2944088793293493,0.1537556700704619,-9.383447968560455,-0.1463161813375831,0.0026274491101503,-0.0006690789014101,2.845637267911434,-0.0006622970104217
2025-04-30 01:00:03.234083000,4.7250830078125,0.0163843618371199,-0.0083520151674747,0.01299531275135,-0.0036132873501628,-0.0342224544165263,0.9885603499071592,-0.0667798426392998,left,0.001501977443695,-0.2944088793293493,0.1537556700704619,-9.383447968560455,-0.1463161813375831,0.002861661138013,-0.0003224816173315,2.845637267911434,-0.0020323395729064
2025-04-30 01:00:03.274083000,4.7650830078125,0.0163843618371199,-0.0048778187483549,0.01299531275135,-0.0009031696245074,-0.0342224544165263,0.9885603499071592,-0.0667798426392998,left,0.001307189464569,-0.2944088793293493,0.1537556700704619,-9.383447968560455,-0.1463161813375831,0.0040226327255368,-0.0012493403628468,2.845637267911434,-0.0007733404636383
2025-04-30 01:00:03.314083300,4.805083251953125,0.0157990049896252,0.0023716995492577,0.0127258990487151,0.0012787049636244,-0.0343330811862855,0.988571770164424,-0.0670908145851113,left,-0.0010179877281188,-0.2942318124978078,0.1482709367827512,-9.38404008923471,-0.1462366876332539,0.0015780082903802,-0.0008311150595545,2.843975472179055,-0.0002502501010894
2025-04-30 01:00:03.354083300,4.845083251953125,0.0157990049896252,0.0074144089594483,0.0127258990487151,0.0091247446835041,-0.0343330811862855,0.988571770164424,-0.0670908145851113,left,-0.0005142092704772,-0.2942318124978078,0.1482709367827512,-9.38404008923471,-0.1462366876332539,-0.0056152115575969,-0.0007391972467303,2.843975472179055,0.0001354813575744
2025-04-30 01:00:03.394083300,4.885083251953125,0.0160629433718062,0.0022081350907683,0.0128414650652098,0.0025367620401084,-0.0342150221180464,0.98854953177415,-0.0668118633616659,left,0.0018270015716552,-0.2945771755873437,0.1507319566014222,-9.383017760449649,-0.1464046633559073,-0.0051416410133242,-0.0002120938152074,2.847216646057367,-0.0019963979721069
2025-04-30 01:00:03.434083300,4.925083251953125,0.0160629433718062,-0.0005198372527956,0.0128414650652098,0.0010593277402222,-0.0342150221180464,0.98854953177415,-0.0668118633616659,left,0.0016302466392517,-0.2945771755873437,0.1507319566014222,-9.383017760449649,-0.1464046633559073,-0.0020679791923612,-0.0001207264140248,2.847216646057367,-0.0006639659404754
2025-04-30 01:00:03.474083000,4.9650830078125,0.0160629433718062,0.0012724802363663,0.0128414650652098,0.0005495797377079,-0.0342150221180464,0.98854953177415,-0.0668118633616659,left,0.0014495849609375,-0.2945771755873437,0.1507319566014222,-9.383017760449649,-0.1464046633559073,-0.0011574903037399,-0.0003506215289235,2.847216646057367,0.000797301530838
2025-04-30 01:00:03.514083000,5.0050830078125,0.0160629433718062,0.0011480568209663,0.0128414650652098,-0.0015461521688848,-0.0342150221180464,0.98854953177415,-0.0668118633616659,left,0.0007211565971374,-0.2945771755873437,0.1507319566014222,-9.383017760449649,-0.1464046633559073,-0.0023659155704081,-0.0001219939440488,2.847216646057367,0.0005888640880584
2025-04-30 01:00:03.554083300,5.045083251953125,0.0160629433718062,-0.0004051045980304,0.0128414650652098,0.0003251704620197,-0.0342150221180464,0.98854953177415,-0.0668118633616659,left,0.00079345703125,-0.2945771755873437,0.1507319566014222,-9.383017760449649,-0.1464046633559073,-0.0017143880249932,2.0015053451e-05,2.847216646057367,0.0009514391422271
2025-04-30 01:00:03.594083300,5.085083251953125,0.0160629433718062,9.58361197263e-05,0.0128414650652098,-0.0011848887661471,-0.0342150221180464,0.98854953177415,-0.0668118633616659,left,0.0012549757957458,-0.2945771755873437,0.1507319566014222,-9.383017760449649,-0.1464046633559073,0.0056175682693719,-0.0004020296037197,2.847216646057367,-0.0016433894634246
2025-04-30 01:00:03.634083300,5.125083251953125,0.0160629433718062,-0.0007665453013032,0.0128414650652098,0.0009276614291593,-0.0342150221180464,0.98854953177415,-0.0668118633616659,left,0.0012991428375244,-0.2945771755873437,0.1507319566014222,-9.383017760449649,-0.1464046633559073,0.0077399490401148,-0.000490628182888,2.847216646057367,-0.0014729499816894
2025-04-30 01:00:03.674083300,5.165083251953125,0.0160629433718062,0.0008038985542953,0.0128414650652098,-0.0017106687882915,-0.0342150221180464,0.98854953177415,-0.0668118633616659,left,0.0005780458450317,-0.2945771755873437,0.1507319566014222,-9.383017760449649,-0.1464046633559073,0.0003011492080986,-0.000160570256412,2.847216646057367,-0.0006968975067138
2025-04-30 01:00:03.714083000,5.2050830078125,0.0160629433718062,0.0011731990380212,0.0128414650652098,-0.0007968241698108,-0.0342150221180464,0.98854953177415,-0.0668118633616659,left,0.0006916522979736,-0.2945771755873437,0.1507319566014222,-9.383017760449649,-0.1464046633559073,-0.0045784278772771,-0.0004443479701876,2.847216646057367,-0.0011832118034362
2025-04-30 01:00:03.754083000,5.2450830078125,0.0160629433718062,-0.0031323255971074,0.0128414650652098,0.0008260199683718,-0.0342150221180464,0.98854953177415,-0.0668118633616659,left,0.0008067488670349,-0.2945771755873437,0.1507319566014222,-9.383017760449649,-0.1464046633559073,-0.0056176232174038,-0.0003332896158099,2.847216646057367,-0.0004798769950866
2025-04-30 01:00:03.794083300,5.285083251953125,0.0161151323444607,-0.0068055009469389,0.012896040351034,-0.0002671994152478,-0.0343534672473295,0.9885032915300056,-0.0670825058949325,left,0.0003661513328552,-0.2951378634198605,0.1511958934518974,-9.38141207881868,-0.1466791817795915,-0.0029864248353987,-0.0001513110473752,2.852477927586436,-0.000217854976654
2025-04-30 01:00:03.834083300,5.325083251953125,0.0161151323444607,-0.0034925292711704,0.012896040351034,-0.0001097904023481,-0.0343534672473295,0.9885032915300056,-0.0670825058949325,left,0.0009670257568359,-0.2951378634198605,0.1511958934518974,-9.38141207881868,-0.1466791817795915,0.0009951607789844,-1.75964087247e-05,2.852477927586436,0.0008394122123718
2025-04-30 01:00:03.874083300,5.365083251953125,0.0161151323444607,-0.0019927797839045,0.012896040351034,-0.0014674722915515,-0.0343534672473295,0.9885032915300056,-0.0670825058949325,left,0.0007494688034057,-0.2951378634198605,0.1511958934518974,-9.38141207881868,-0.1466791817795915,0.0023232167586684,-0.0005781566724181,2.852477927586436,0.0010047256946563
2025-04-30 01:00:03.914083300,5.405083251953125,0.0161151323444607,-0.0009092609398066,0.012896040351034,-0.0020953551866114,-0.0343534672473295,0.9885032915300056,-0.0670825058949325,left,0.0003620982170104,-0.2951378634198605,0.1511958934518974,-9.38141207881868,-0.1466791817795915,0.0005816594930365,-0.0004283916205167,2.852477927586436,0.0005346834659576
2025-04-30 01:00:03.954083300,5.445083251953125,0.0161151323444607,-0.0005839502555318,0.012896040351034,-0.0006233492167666,-0.0343534672473295,0.9885032915300056,-0.0670825058949325,left,-0.0013840794563293,-0.2951378634198605,0.1511958934518974,-9.38141207881868,-0.1466791817795915,-0.0007297086995095,-0.0011054910719394,2.852477927586436,-0.0010123252868652
2025-04-30 01:00:03.994083000,5.4850830078125,0.0161151323444607,-0.0032258264254778,0.012896040351034,0.0024147368967533,-0.0343534672473295,0.9885032915300056,-0.0670825058949325,left,0.0001919865608215,-0.2951378634198605,0.1511958934518974,-9.38141207881868,-0.1466791817795915,0.0010714780073612,-0.000469327904284,2.852477927586436,-0.0012980997562408
2025-04-30 01:00:04.034083300,5.525083251953125,0.0159325723777644,-0.0057434933260083,0.0128448121230693,0.001973615726456,-0.0346144400795246,0.9885028025781504,-0.0676379299023521,left,-0.0013918280601501,-0.2950305150013835,0.1494881031533237,-9.38174584081769,-0.1466256919513995,0.0026383460499346,1.25365331768e-05,2.851470504109561,-0.0006675720214843
2025-04-30 01:00:04.074083300,5.565083251953125,0.0159325723777644,-0.0034378040581941,0.0128448121230693,-0.0033330537844449,-0.0346144400795246,0.9885028025781504,-0.0676379299023521,left,0.0041148662567138,-0.2950305150013835,0.1494881031533237,-9.38174584081769,-0.1466256919513995,0.0044527351856231,-0.0013793278485536,2.851470504109561,-0.0019960403442382
2025-04-30 01:00:04.114083300,5.605083251953125,0.0159325723777644,0.0010435422882437,0.0128448121230693,0.0035335409920662,-0.0346144400795246,0.9885028025781504,-0.0676379299023521,left,-0.0018975138664245,-0.2950305150013835,0.1494881031533237,-9.38174584081769,-0.1466256919513995,0.0010289109777659,0.0001369463279843,2.851470504109561,-0.0007064938545227
2025-04-30 01:00:04.154083300,5.645083251953125,0.0159325723777644,0.0017468543956056,0.0128448121230693,0.0064871702343225,-0.0346144400795246,0.9885028025781504,-0.0676379299023521,left,0.0009719729423522,-0.2950305150013835,0.1494881031533237,-9.38174584081769,-0.1466256919513995,-0.0093940775841474,-8.2924962043e-06,2.851470504109561,-0.0005987882614135
2025-04-30 01:00:04.194083300,5.685083251953125,0.0159325723777644,0.0002976944670081,0.0128448121230693,0.0025591314770281,-0.0346144400795246,0.9885028025781504,-0.0676379299023521,left,0.002173364162445,-0.2950305150013835,0.1494881031533237,-9.38174584081769,-0.1466256919513995,-0.0077565242536365,0.0008722208440303,2.851470504109561,-0.000972181558609
2025-04-30 01:00:04.234083000,5.7250830078125,0.0163234326139452,0.0008732971036806,0.013045168252932,0.001922300318256,-0.0346567980836944,0.9884760113434112,-0.0676646442954078,left,0.0010015964508056,-0.2953538429199453,0.1531399858575314,-9.380764428564904,-0.1467785655520489,-0.0034514172002673,0.000401884317398,2.854504172717035,-0.0004480183124542
2025-04-30 01:00:04.274083000,5.7650830078125,0.0163234326139452,-0.0008350547868758,0.013045168252932,0.0011313476134091,-0.0346567980836944,0.9884760113434112,-0.0676646442954078,left,0.0006223320960998,-0.2953538429199453,0.1531399858575314,-9.380764428564904,-0.1467785655520489,-0.0046701594255864,0.0008335579186677,2.854504172717035,-0.0001289546489715
2025-04-30 01:00:04.314083300,5.805083251953125,0.0163234326139452,-0.0018544631311669,0.013045168252932,-0.0009595262818038,-0.0346567980836944,0.9884760113434112,-0.0676646442954078,left,0.0001992583274841,-0.2953538429199453,0.1531399858575314,-9.380764428564904,-0.1467785655520489,-0.002403253223747,0.001418886706233,2.854504172717035,-0.0003990232944488
2025-04-30 01:00:04.354083300,5.845083251953125,0.0163234326139452,0.0005400188965722,0.013045168252932,-0.0038306845817714,-0.0346567980836944,0.9884760113434112,-0.0676646442954078,left,0.0016623139381408,-0.2953538429199453,0.1531399858575314,-9.380764428564904,-0.1467785655520489,0.0020008054561913,0.0001975409686565,2.854504172717035,-0.0004667043685913
2025-04-30 01:00:04.394083300,5.885083251953125,0.0163234326139452,0.0049143992364406,0.013045168252932,-4.41938173025e-05,-0.0346567980836944,0.9884760113434112,-0.0676646442954078,left,-0.0012017488479614,-0.2953538429199453,0.1531399858575314,-9.380764428564904,-0.1467785655520489,0.007425527088344,0.0011665821075439,2.854504172717035,-0.0011712908744812
2025-04-30 01:00:04.434083300,5.925083251953125,0.0163234326139452,0.0044699250720441,0.013045168252932,-0.0020171962678432,-0.0346567980836944,0.9884760113434112,-0.0676646442954078,left,-0.0004603266716003,-0.2953538429199453,0.1531399858575314,-9.380764428564904,-0.1467785655520489,0.0024076867848634,0.0011034589260816,2.854504172717035,-0.0006647706031799
2025-04-30 01:00:04.474083000,5.9650830078125,0.0163234326139452,0.0026380117051303,0.013045168252932,-0.002677883952856,-0.0346567980836944,0.9884760113434112,-0.0676646442954078,left,1.3709068298e-06,-0.2953538429199453,0.1531399858575314,-9.380764428564904,-0.1467785655520489,-0.0006732568144798,0.0014367811381816,2.854504172717035,-0.0004725158214569
2025-04-30 01:00:04.514083000,6.0050830078125,0.0163234326139452,0.0034132506698369,0.013045168252932,-0.0018378294771537,-0.0346567980836944,0.9884760113434112,-0.0676646442954078,left,0.0012362599372863,-0.2953538429199453,0.1531399858575314,-9.380764428564904,-0.1467785655520489,-0.0008826704579405,0.0007654130458831,2.854504172717035,-0.0004766583442687
2025-04-30 01:00:04.554083300,6.045083251953125,0.0161247427183969,0.0023123431019484,0.0129266417958851,-0.0057159187272191,-0.0344788776577696,0.9884647634220326,-0.0673334050230433,left,0.0009397268295288,-0.2956020481260747,0.1512646843717899,-9.38008579865098,-0.1469068280831458,-0.0021563055925071,0.0001843431964516,2.856832907925546,-0.0005537271499633
2025-04-30 01:00:04.594083300,6.085083251953125,0.0157532468130012,0.0010661830892786,0.0127330015130608,-0.0124471569433808,-0.0343599278570776,0.9884535989366388,-0.0671472900302181,left,0.0009997487068176,-0.2958290382813191,0.1477697914607357,-9.379492508932948,-0.1470266110664758,-0.0042687384411692,-0.0010006241500377,2.858962028908729,0.0001032352447509
2025-04-30 01:00:04.634083300,6.125083251953125,0.0157532468130012,0.0031689330935478,0.0127330015130608,-0.0101739764213562,-0.0343599278570776,0.9884535989366388,-0.0671472900302181,left,-4.05311584472e-05,-0.2958290382813191,0.1477697914607357,-9.379492508932948,-0.1470266110664758,-0.0005720076151192,-0.0019350061193108,2.858962028908729,9.78708267211e-05
2025-04-30 01:00:04.674083300,6.165083251953125,0.0157532468130012,0.0027062746230512,0.0127330015130608,-0.0050044083036482,-0.0343599278570776,0.9884535989366388,-0.0671472900302181,left,0.0003274083137512,-0.2958290382813191,0.1477697914607357,-9.379492508932948,-0.1470266110664758,0.0027713363524526,-0.0015406189486384,2.858962028908729,-0.0003127455711364
2025-04-30 01:00:04.714083000,6.2050830078125,0.0153232748548195,0.0016013559652492,0.0125004281698164,-0.0016030836850404,-0.0342101983017664,0.9884720546285718,-0.0669087132266704,left,0.0008768439292907,-0.2956706543128446,0.1437437964808195,-9.380008057239651,-0.1469572066105731,0.0037065208889544,-0.0010656546801328,2.8574764665260908,-0.0008063912391662
2025-04-30 01:00:04.754083000,6.2450830078125,0.0153232748548195,0.0010820785537362,0.0125004281698164,-0.0014004306867718,-0.0342101983017664,0.9884720546285718,-0.0669087132266704,left,0.0010751485824584,-0.2956706543128446,0.1437437964808195,-9.380008057239651,-0.1469572066105731,0.003680724883452,-0.0008032536134123,2.8574764665260908,-0.000529408454895
2025-04-30 01:00:04.794083300,6.285083251953125,0.0150235756680286,-0.0013257977552711,0.0123469443490824,0.0006690074224025,-0.0341849114509826,0.9884967628111854,-0.0669028886721351,left,-0.0008577704429626,-0.2953620712022736,0.1409458545916713,-9.380932186347245,-0.1468098399921838,0.0046960790641605,9.71322879195e-05,2.8545813296064733,-0.0011768639087677
2025-04-30 01:00:04.834083300,6.325083251953125,0.0150235756680286,-0.0037983527872711,0.0123469443490824,-0.000775947002694,-0.0341849114509826,0.9884967628111854,-0.0669028886721351,left,0.0023771524429321,-0.2953620712022736,0.1409458545916713,-9.380932186347245,-0.1468098399921838,0.0101132867857813,-0.0013516303151845,2.8545813296064733,-0.0035151243209838
2025-04-30 01:00:04.874083300,6.365083251953125,0.0151529252487295,-0.0012224842794239,0.0124094698113315,0.0089941304177045,-0.0342569726351588,0.9885434695240904,-0.0670312296222145,left,-0.0024800896644592,-0.2946860682760853,0.1421884750639088,-9.382841234838962,-0.1464726906040157,0.006693682167679,0.0003779493272304,2.84823839032054,-0.0004521906375885
2025-04-30 01:00:04.914083300,6.405083251953125,0.0156245657584739,0.0013179096858948,0.0126304458036282,0.0077066654339432,-0.0342295442575347,0.9885564960931738,-0.0669063937321157,left,0.001707375049591,-0.2944982529917713,0.1466221466624178,-9.383307683306931,-0.1463725509219613,-0.0026137768290936,-0.0004943562671542,2.846476056823134,-0.0007616281509399
2025-04-30 01:00:04.954083300,6.445083251953125,0.0156245657584739,0.0033306600525975,0.0126304458036282,0.0013454356230795,-0.0342295442575347,0.9885564960931738,-0.0669063937321157,left,0.0019977688789367,-0.2944982529917713,0.1466221466624178,-9.383307683306931,-0.1463725509219613,-0.0035632108338177,-5.22285699844e-05,2.846476056823134,-0.0014100670814514
2025-04-30 01:00:04.994083000,6.4850830078125,0.0156245657584739,0.0058846333995461,0.0126304458036282,0.0008516961243003,-0.0342295442575347,0.9885564960931738,-0.0669063937321157,left,0.0009894967079162,-0.2944982529917713,0.1466221466624178,-9.383307683306931,-0.1463725509219613,-0.002348240930587,0.0002190796658396,2.846476056823134,-0.0005360543727874
2025-04-30 01:00:05.034083300,6.525083251953125,0.0156245657584739,0.0024583383928984,0.0126304458036282,-0.0017102719284594,-0.0342295442575347,0.9885564960931738,-0.0669063937321157,left,0.0008953809738159,-0.2944982529917713,0.1466221466624178,-9.383307683306931,-0.1463725509219613,-0.0039565311744809,0.0001899404451251,2.846476056823134,-0.0003693401813507
2025-04-30 01:00:05.074083300,6.565083251953125,0.0157655064521583,-0.0024151697289198,0.0126783859117116,-0.0016785959014669,-0.0340636018264424,0.9885411250509684,-0.066548972619488,left,-0.0006497502326965,-0.2947774842786088,0.1479320967498235,-9.38249169074893,-0.1465104430606282,-0.0015578044112771,0.0001403614878654,2.849096176193654,-0.0005730092525482
2025-04-30 01:00:05.114083300,6.605083251953125,0.0157655064521583,-0.0019254415528848,0.0126783859117116,-0.0021505581680685,-0.0340636018264424,0.9885411250509684,-0.066548972619488,left,-0.0005340576171875,-0.2947774842786088,0.1479320967498235,-9.38249169074893,-0.1465104430606282,0.00331765669398,-0.0014309482648968,2.849096176193654,0.0002760887145996
2025-04-30 01:00:05.154083300,6.645083251953125,0.0157655064521583,-0.0015242177760228,0.0126783859117116,0.0014246676582843,-0.0340636018264424,0.9885411250509684,-0.066548972619488,left,-0.0019227266311645,-0.2947774842786088,0.1479320967498235,-9.38249169074893,-0.1465104430606282,0.0079648094251751,-0.0021346556022763,2.849096176193654,-0.0019207000732421
2025-04-30 01:00:05.194083300,6.685083251953125,0.0158967349126989,-0.0046156491152942,0.012745675814361,0.0045687276870012,-0.0341289268816836,0.9885657062397492,-0.0666628073823519,left,-0.0009171962738037,-0.2944057387400896,0.1491801697153132,-9.383530386146903,-0.1463237163052282,0.0035730651579797,-0.0012461002916097,2.845607749556005,-0.0016011595726013
2025-04-30 01:00:05.234083000,6.7250830078125,0.0161892874004692,-0.0050425250083208,0.0129028823592138,0.0102566257119178,-0.0342566352850917,0.9885747456078886,-0.0668785006917013,left,0.0005986094474792,-0.2942064238922249,0.1519345190579071,-9.384053533238172,-0.1462188094268695,0.0048845228739082,0.0007511815056204,2.843737279509008,-0.0027366578578948
2025-04-30 01:00:05.274083000,6.7650830078125,0.01655728490777,-0.004540653899312,0.0130964094282655,0.0082150744274258,-0.0343838871996413,0.9885838762649184,-0.0670821970211083,left,0.0015169382095336,-0.2940024561596162,0.155397409395501,-9.384576680329442,-0.1461103349693387,0.0038030333817005,0.0012640766799449,2.841822970320284,-0.00123131275177
2025-04-30 01:00:05.314083300,6.805083251953125,0.01655728490777,-0.000750730279833,0.0130964094282655,0.0040018898434937,-0.0343838871996413,0.9885838762649184,-0.0670821970211083,left,0.0005815029144287,-0.2940024561596162,0.155397409395501,-9.384576680329442,-0.1461103349693387,0.0016014473512768,0.0023657847195863,2.841822970320284,-0.0008602440357208
2025-04-30 01:00:05.354083300,6.845083251953125,0.01655728490777,0.0003495080163702,0.0130964094282655,0.0012705093249678,-0.0343838871996413,0.9885838762649184,-0.0670821970211083,left,0.0007641911506652,-0.2940024561596162,0.155397409395501,-9.384576680329442,-0.1461103349693387,0.0004306513583287,0.0023492462933063,2.841822970320284,-0.0004886388778686
2025-04-30 01:00:05.394083300,6.885083251953125,0.01655728490777,0.0006516065914183,0.0130964094282655,-0.0017063929699361,-0.0343838871996413,0.9885838762649184,-0.0670821970211083,left,0.0011247992515563,-0.2940024561596162,0.155397409395501,-9.384576680329442,-0.1461103349693387,0.0026063011027872,0.001802060753107,2.841822970320284,0.0002101957798004
2025-04-30 01:00:05.434083300,6.925083251953125,0.01655728490777,0.0044974433258175,0.0130964094282655,-0.005315697286278,-0.0343838871996413,0.9885838762649184,-0.0670821970211083,left,0.0011045336723327,-0.2940024561596162,0.155397409395501,-9.384576680329442,-0.1461103349693387,0.0033740582875907,0.0004513803869485,2.841822970320284,0.00076624751091
2025-04-30 01:00:05.474083000,6.9650830078125,0.01655728490777,0.0070549347437918,0.0130964094282655,-0.0036127888597548,-0.0343838871996413,0.9885838762649184,-0.0670821970211083,left,0.000409722328186,-0.2940024561596162,0.155397409395501,-9.384576680329442,-0.1461103349693387,0.0047678174450993,-0.0003906562924385,2.841822970320284,-0.0013788640499114
2025-04-30 01:00:05.514083000,7.0050830078125,0.0163989750834346,0.003882136195898,0.0129807828116547,-0.002689552726224,-0.0341778625147421,0.988631972604224,-0.0666905855807467,left,0.0001947879791259,-0.2934507336253784,0.1539374381118454,-9.386167164391278,-0.145842870542396,0.0051405127160251,-0.0008678678423166,2.836644106377661,-0.0027013421058654
2025-04-30 01:00:05.554083300,7.045083251953125,0.0161142026434842,-0.0022071981802582,0.012828929299961,-0.0058938637375831,-0.0341195588546555,0.988661065427932,-0.0666157635520017,left,-0.0002602934837341,-0.2930963909553172,0.1512806947916746,-9.387215212139486,-0.1456730331994493,0.0027188220992684,-0.0007037743926048,2.833317592303455,-0.0023378431797027
2025-04-30 01:00:05.594083300,7.085083251953125,0.0161142026434842,-0.0002008636947721,0.012828929299961,-0.0038042201194912,-0.0341195588546555,0.988661065427932,-0.0666157635520017,left,0.0005479454994201,-0.2930963909553172,0.1512806947916746,-9.387215212139486,-0.1456730331994493,0.0019244502764195,-0.0027582002803683,2.833317592303455,-0.0009740889072418
2025-04-30 01:00:05.634083300,7.125083251953125,0.0161142026434842,0.0060804188251495,0.012828929299961,-0.0005315851885825,-0.0341195588546555,0.988661065427932,-0.0666157635520017,left,-0.0027796030044555,-0.2930963909553172,0.1512806947916746,-9.387215212139486,-0.1456730331994493,-0.0007613874040544,-0.0023757321760058,2.833317592303455,-0.0011765360832214
2025-04-30 01:00:05.674083300,7.165083251953125,0.0161142026434842,0.0078368801623582,0.012828929299961,0.008974908851087,-0.0341195588546555,0.988661065427932,-0.0666157635520017,left,-0.0014263987541198,-0.2930963909553172,0.1512806947916746,-9.387215212139486,-0.1456730331994493,-0.0078025860711932,-0.0017554452642798,2.833317592303455,-0.0010910034179687
2025-04-30 01:00:05.714083000,7.2050830078125,0.0161142026434842,0.0001856097951531,0.012828929299961,0.0044335923157632,-0.0341195588546555,0.988661065427932,-0.0666157635520017,left,0.0007951259613037,-0.2930963909553172,0.1512806947916746,-9.387215212139486,-0.1456730331994493,-0.0085129989311099,-0.0013322997838258,2.833317592303455,-0.0015424489974975
2025-04-30 01:00:05.754083000,7.2450830078125,0.0161142026434842,0.0014951715711504,0.012828929299961,0.0035703682806342,-0.0341195588546555,0.988661065427932,-0.0666157635520017,left,0.0007566809654235,-0.2930963909553172,0.1512806947916746,-9.387215212139486,-0.1456730331994493,-0.0038978336378932,-0.0008304752409458,2.833317592303455,8.00490379333e-05
2025-04-30 01:00:05.794083300,7.285083251953125,0.0164419534787253,0.0035316243302077,0.0129648822004729,0.0032217423431575,-0.0339350696107951,0.9886442901498906,-0.0661932671207548,left,0.000989556312561,-0.2933949800215983,0.1543434250968508,-9.386319140082596,-0.1458177952657419,-0.0018755341880023,-0.0007565831765532,2.836120667025446,0.0009040236473083
2025-04-30 01:00:05.834083300,7.325083251953125,0.0164419534787253,0.0015587906818836,0.0129648822004729,0.00188122340478,-0.0339350696107951,0.9886442901498906,-0.0661932671207548,left,0.0001952648162841,-0.2933949800215983,0.1543434250968508,-9.386319140082596,-0.1458177952657419,-0.0018516180571168,-0.0004298631101846,2.836120667025446,-0.0003833472728729
2025-04-30 01:00:05.874083300,7.365083251953125,0.0164419534787253,-0.0013367428909987,0.0129648822004729,0.0014838259667158,-0.0339350696107951,0.9886442901498906,-0.0661932671207548,left,0.0005161166191101,-0.2933949800215983,0.1543434250968508,-9.386319140082596,-0.1458177952657419,-0.0003561386838555,-0.0001096539199352,2.836120667025446,-0.0002821683883666
2025-04-30 01:00:05.914083300,7.405083251953125,0.0164419534787253,-0.0026444257237017,0.0129648822004729,0.001705028116703,-0.0339350696107951,0.9886442901498906,-0.0661932671207548,left,0.0007076859474182,-0.2933949800215983,0.1543434250968508,-9.386319140082596,-0.1458177952657419,0.0058335540816187,-2.25137919187e-05,2.836120667025446,-0.0018665194511413
2025-04-30 01:00:05.954083300,7.445083251953125,0.0164419534787253,-0.0025218348018825,0.0129648822004729,0.0044728559441864,-0.0339350696107951,0.9886442901498906,-0.0661932671207548,left,0.000651478767395,-0.2933949800215983,0.1543434250968508,-9.386319140082596,-0.1458177952657419,0.0053404169157147,0.0001854188740253,2.836120667025446,-0.0013899207115173
2025-04-30 01:00:05.994083000,7.4850830078125,0.0164419534787253,-1.4272518455982208e-07,0.0129648822004729,0.00122912065126,-0.0339350696107951,0.9886442901498906,-0.0661932671207548,left,0.0006281733512878,-0.2933949800215983,0.1543434250968508,-9.386319140082596,-0.1458177952657419,0.0010154098272323,0.000350497663021,2.836120667025446,-0.0011475384235382
2025-04-30 01:00:06.034083300,7.525083251953125,0.0169211054941419,0.0016122200759127,0.0131998906640892,0.0023096117656677,-0.0339643475972343,0.9886461555678292,-0.0661820615620672,left,0.0010026693344116,-0.2933296296847595,0.1588440244517289,-9.386429030197858,-0.1457774242058179,-0.0024015039671212,-0.0001584012061357,2.835507211302221,-0.001195877790451
2025-04-30 01:00:06.074083300,7.565083251953125,0.0169211054941419,-0.0013938405318185,0.0131998906640892,0.0026191989891231,-0.0339643475972343,0.9886461555678292,-0.0661820615620672,left,0.0005249977111816,-0.2933296296847595,0.1588440244517289,-9.386429030197858,-0.1457774242058179,-0.0056264074519276,0.000160964205861,2.835507211302221,-0.0004883408546447
2025-04-30 01:00:06.114083300,7.605083251953125,0.0170270825364249,-0.0013841842301189,0.0132722925443052,0.0012713940814137,-0.0340846794376111,0.988625508180154,-0.0664090707647767,left,0.0007558465003967,-0.2935491820498255,0.1598281583845615,-9.38578956325054,-0.1458826587228454,-0.0038060604128986,-0.000124929472804,2.8375682354852554,0.0002439022064208
2025-04-30 01:00:06.154083300,7.645083251953125,0.0170270825364249,-0.0013745279284194,0.0132722925443052,-7.64107098802e-05,-0.0340846794376111,0.988625508180154,-0.0664090707647767,left,0.0010519623756408,-0.2935491820498255,0.1598281583845615,-9.38578956325054,-0.1458826587228454,-0.0019857133738696,-0.0003104731440544,2.8375682354852554,0.0011863112449645
2025-04-30 01:00:06.194083300,7.685083251953125,0.0170270825364249,0.0018775752978399,0.0132722925443052,-0.0001989654992939,-0.0340846794376111,0.988625508180154,-0.0664090707647767,left,0.0007480978965759,-0.2935491820498255,0.1598281583845615,-9.38578956325054,-0.1458826587228454,0.0017141455318778,-0.0009737070649862,2.8375682354852554,0.0013798475265502
2025-04-30 01:00:06.234083000,7.7250830078125,0.0170270825364249,0.0040066428482532,0.0132722925443052,-0.0019095136085525,-0.0340846794376111,0.988625508180154,-0.0664090707647767,left,0.0007227063179016,-0.2935491820498255,0.1598281583845615,-9.38578956325054,-0.1458826587228454,0.0018320472445338,-0.0006302986294031,2.8375682354852554,0.0003925859928131
2025-04-30 01:00:06.274083000,7.7650830078125,0.0170270825364249,0.0028235996142029,0.0132722925443052,-0.0018806933658197,-0.0340846794376111,0.988625508180154,-0.0664090707647767,left,-0.0006850957870483,-0.2935491820498255,0.1598281583845615,-9.38578956325054,-0.1458826587228454,0.0015028094640001,-0.0005291141569614,2.8375682354852554,-0.0008629262447357
2025-04-30 01:00:06.314083300,7.805083251953125,0.0170270825364249,-0.0036212294362485,0.0132722925443052,-0.0024030483327805,-0.0340846794376111,0.988625508180154,-0.0664090707647767,left,-0.00064218044281,-0.2935491820498255,0.1598281583845615,-9.38578956325054,-0.1458826587228454,0.0015482337912544,-0.0004076566547155,2.8375682354852554,-0.001814991235733
2025-04-30 01:00:06.354083300,7.845083251953125,0.0170270825364249,-0.0100660584867,0.0132722925443052,-0.0029254031833261,-0.0340846794376111,0.988625508180154,-0.0664090707647767,left,-0.000599205493927,-0.2935491820498255,0.1598281583845615,-9.38578956325054,-0.1458826587228454,0.0015936581185087,-0.0002861991524696,2.8375682354852554,-0.0027670860290527
2025-04-30 01:00:06.394083300,7.885083251953125,0.0170270825364249,-0.0051990859210491,0.0132722925443052,-0.0030690156854689,-0.0340846794376111,0.988625508180154,-0.0664090707647767,left,0.0026159286499023,-0.2935491820498255,0.1598281583845615,-9.38578956325054,-0.1458826587228454,0.003445295151323,-0.0017943540588021,2.8375682354852554,-0.0013257563114166
2025-04-30 01:00:06.434083300,7.925083251953125,0.0170270825364249,-0.0010901684872806,0.0132722925443052,0.0019506411626935,-0.0340846794376111,0.988625508180154,-0.0664090707647767,left,0.0021571516990661,-0.2935491820498255,0.1598281583845615,-9.38578956325054,-0.1458826587228454,-0.0023710415698587,-0.0010834299027919,2.8375682354852554,-0.0009982883930206
2025-04-30 01:00:06.474083000,7.9650830078125,0.0170270825364249,0.0030187489464879,0.0132722925443052,0.0069702975451946,-0.0340846794376111,0.988625508180154,-0.0664090707647767,left,0.0016983747482299,-0.2935491820498255,0.1598281583845615,-9.38578956325054,-0.1458826587228454,-0.0081873778253793,-0.0003725066781044,2.8375682354852554,-0.0006708204746246
2025-04-30 01:00:06.514083000,8.0050830078125,0.0170270825364249,2.48374417424e-05,0.0132722925443052,0.0016664844006299,-0.0340846794376111,0.988625508180154,-0.0664090707647767,left,0.0024089813232421,-0.2935491820498255,0.1598281583845615,-9.38578956325054,-0.1458826587228454,-0.009663937613368,0.0004103016108274,2.8375682354852554,-0.0017839968204498
2025-04-30 01:00:06.554083300,8.045083251953125,0.0170270825364249,1.2348803466e-05,0.0132722925443052,0.0008285510120913,-0.0340846794376111,0.988625508180154,-0.0664090707647767,left,0.0016258358955383,-0.2935491820498255,0.1598281583845615,-9.38578956325054,-0.1458826587228454,-0.0048047648742794,0.0005582813173532,2.8375682354852554,-0.000276893377304
2025-04-30 01:00:06.594083300,8.085083251953124,0.0170270825364249,0.0009179761982522,0.0132722925443052,-0.0002781440271064,-0.0340846794376111,0.988625508180154,-0.0664090707647767,left,0.0008713006973266,-0.2935491820498255,0.1598281583845615,-9.38578956325054,-0.1458826587228454,-0.0036315158940851,0.0001132097095251,2.8375682354852554,-9.06884670257e-05
2025-04-30 01:00:06.634083300,8.125083251953125,0.0170270825364249,0.0018236035248264,0.0132722925443052,-0.0013848388334736,-0.0340846794376111,0.988625508180154,-0.0664090707647767,left,0.0001167654991149,-0.2935491820498255,0.1598281583845615,-9.38578956325054,-0.1458826587228454,-0.0024582669138908,-0.000331861898303,2.8375682354852554,9.55462455749e-05
2025-04-30 01:00:06.674083300,8.165083251953124,0.0170270825364249,0.0001655652886256,0.0132722925443052,-0.0032956758514046,-0.0340846794376111,0.988625508180154,-0.0664090707647767,left,0.0024606585502624,-0.2935491820498255,0.1598281583845615,-9.38578956325054,-0.1458826587228454,0.0022110939025878,-0.0016582766547799,2.8375682354852554,-0.0016780197620391
2025-04-30 01:00:06.714083000,8.2050830078125,0.0170270825364249,-0.0009010201320052,0.0132722925443052,-0.001165744382888,-0.0340846794376111,0.988625508180154,-0.0664090707647767,left,0.0013396143913269,-0.2935491820498255,0.1598281583845615,-9.38578956325054,-0.1458826587228454,0.0012954261619597,-0.0013503087684512,2.8375682354852554,-0.0013234615325927
2025-04-30 01:00:06.754083000,8.2450830078125,0.0170270825364249,-0.0019676056690514,0.0132722925443052,0.0009641868527978,-0.0340846794376111,0.988625508180154,-0.0664090707647767,left,0.0002185702323913,-0.2935491820498255,0.1598281583845615,-9.38578956325054,-0.1458826587228454,0.0003797583631239,-0.0010423399507999,2.8375682354852554,-0.0009689033031463
2025-04-30 01:00:06.794083300,8.285083251953125,0.0170270825364249,-0.0030341907404363,0.0132722925443052,0.0030941183213144,-0.0340846794376111,0.988625508180154,-0.0664090707647767,left,-0.0009024739265441,-0.2935491820498255,0.1598281583845615,-9.38578956325054,-0.1458826587228454,-0.0005359093775041,-0.0007343720644712,2.8375682354852554,-0.0006143450736999
2025-04-30 01:00:06.834083300,8.325083251953124,0.0170270825364249,0.0015732711181044,0.0132722925443052,0.005596597213298,-0.0340846794376111,0.988625508180154,-0.0664090707647767,left,-7.99894332885e-05,-0.2935491820498255,0.1598281583845615,-9.38578956325054,-0.1458826587228454,-0.0015252330340445,-0.0006011296063661,2.8375682354852554,-0.0011679530143737
2025-04-30 01:00:06.874083300,8.365083251953125,0.0170270825364249,0.0061807334423065,0.0132722925443052,0.0080990754067897,-0.0340846794376111,0.988625508180154,-0.0664090707647767,left,0.0007425546646118,-0.2935491820498255,0.1598281583845615,-9.38578956325054,-0.1458826587228454,-0.0025145565159618,-0.000467887148261,2.8375682354852554,-0.0017215311527252
2025-04-30 01:00:06.914083300,8.405083251953124,0.0170270825364249,-0.0004570540040731,0.0132722925443052,0.0024626525118947,-0.0340846794376111,0.988625508180154,-0.0664090707647767,left,0.0015261769294738,-0.2935491820498255,0.1598281583845615,-9.38578956325054,-0.1458826587228454,-0.0115534886717796,-0.0002053435891866,2.8375682354852554,-0.0007119476795196
2025-04-30 01:00:06.954083300,8.445083251953125,0.0171648381973664,-0.0065828915685415,0.0133560437042667,0.0001844957005232,-0.0341145153992576,0.988563731850384,-0.0664460909816755,left,0.0017840266227722,-0.2943690107893693,0.1610811358540319,-9.383438031688332,-0.1462853538020891,-0.0113017885014414,-0.0003680028021335,2.845263173902034,-0.0006330609321594
2025-04-30 01:00:06.994083000,8.4850830078125,0.0173026113831826,-0.0127087291330099,0.0134397984191488,-0.0020936611108481,-0.0341443423824241,0.988501871706452,-0.0664830006284756,left,0.0020411014556884,-0.2951888904588864,0.1623334922689944,-9.381080654907226,-0.146688032605023,-0.0110500892624259,-0.0005305875092744,2.8529566510140896,-0.0005539953708648
2025-04-30 01:00:07.034083300,8.525083251953125,0.017103147799621,-0.0071350634098052,0.0133515111452624,-0.0008968097390606,-0.034179909711512,0.9884880580396264,-0.0665839076379996,left,0.0004581809043884,-0.2953719356863925,0.1604533776108175,-9.380590241041778,-0.1467812330235152,-0.0074475770816206,-0.0005056504160165,2.8546739763259885,-0.0012845993041992
2025-04-30 01:00:07.074083300,8.565083251953125,0.0169036499874233,-0.0015613981522619,0.0132632274262965,0.0003000417491421,-0.0342155144584408,0.9884741979764794,-0.0666849338291187,left,-0.0011247396469116,-0.2955549260056437,0.1585731350884772,-9.380099827176332,-0.1468744171656971,-0.0038450646679848,-0.0004807077348232,2.856390717115998,-0.0020151436328887
2025-04-30 01:00:07.114083300,8.605083251953126,0.0169036499874233,0.0040122675709426,0.0132632274262965,0.0014968930045142,-0.0342155144584408,0.9884741979764794,-0.0666849338291187,left,-0.0026577115058898,-0.2955549260056437,0.1585731350884772,-9.380099827176332,-0.1468744171656971,-0.0002425524871796,-0.000647491775453,2.856390717115998,-0.002570629119873
2025-04-30 01:00:07.154083300,8.645083251953125,0.0169036499874233,-0.0052934507839381,0.0132632274262965,0.0049122935160994,-0.0342155144584408,0.9884741979764794,-0.0666849338291187,left,0.0007912516593933,-0.2955549260056437,0.1585731350884772,-9.380099827176332,-0.1468744171656971,0.0025397432036697,0.0001287199556827,2.856390717115998,-0.0021978914737701
2025-04-30 01:00:07.194083300,8.685083251953126,0.0169036499874233,-0.0134819652885198,0.0132632274262965,-0.0005777194164693,-0.0342155144584408,0.9884741979764794,-0.0666849338291187,left,-0.00037682056427,-0.2955549260056437,0.1585731350884772,-9.380099827176332,-0.1468744171656971,0.0021015764214098,0.0010893419384956,2.856390717115998,-0.0026748478412628
2025-04-30 01:00:07.234083000,8.7250830078125,0.0166081077834637,-0.0096362065523862,0.0132000159777464,-0.0094621572643518,-0.0347638557033474,0.9884647972679814,-0.067838704488846,left,0.0078471302986145,-0.2954389662343686,0.1558064103215001,-9.38047742831707,-0.146814565289939,-0.001518721692264,-0.0038168709725141,2.855302921879292,-0.0044896006584167
2025-04-30 01:00:07.274083000,8.7650830078125,0.0166081077834637,0.0032972507178783,0.0132000159777464,0.0087585505098104,-0.0347638557033474,0.9884647972679814,-0.067838704488846,left,-0.0099554061889648,-0.2954389662343686,0.1558064103215001,-9.38047742831707,-0.146814565289939,-0.0098717622458934,0.0019785389304161,2.855302921879292,0.0042255222797393
2025-04-30 01:00:07.314083300,8.805083251953125,0.0171472902208841,0.0096206311136484,0.0134477194808146,0.0042976536788046,-0.0345934958152942,0.9884105633923704,-0.0674111334522739,left,0.004408061504364,-0.2962252356173023,0.1608256267230026,-9.37814401693344,-0.1471966929462548,-0.0167798455804586,-0.0017324248328804,2.8626784190833567,-0.0028600096702575
2025-04-30 01:00:07.354083300,8.845083251953126,0.0171472902208841,0.0038112518377602,0.0134477194808146,-0.0066390209831297,-0.0345934958152942,0.9884105633923704,-0.0674111334522739,left,0.0035189986228942,-0.2962252356173023,0.1608256267230026,-9.37814401693344,-0.1471966929462548,0.002788558602333,-0.0014136331155896,2.8626784190833567,-0.0015274286270141
2025-04-30 01:00:07.394083300,8.885083251953125,0.0171472902208841,0.0069224014878273,0.0134477194808146,-0.0003450149670243,-0.0345934958152942,0.9884105633923704,-0.0674111334522739,left,-0.000856876373291,-0.2962252356173023,0.1608256267230026,-9.37814401693344,-0.1471966929462548,0.0089994743466377,-0.0022302577272057,2.8626784190833567,-7.51316547393e-05
2025-04-30 01:00:07.434083300,8.925083251953126,0.0171511631767404,0.0008249119855463,0.0134009721947315,0.0064266184344887,-0.0343030811572856,0.9884460396352972,-0.0668241556049054,left,-0.0006896257400512,-0.2958815865438085,0.1608788182149641,-9.379126598230004,-0.1470307128556414,0.0063629755750298,-0.0006020925939083,2.85945507312268,-0.00194051861763
2025-04-30 01:00:07.474083000,8.9650830078125,0.0171511631767404,-0.007881075143814,0.0134009721947315,0.0048842993564903,-0.0343030811572856,0.9884460396352972,-0.0668241556049054,left,0.0007097125053405,-0.2958815865438085,0.1608788182149641,-9.379126598230004,-0.1470307128556414,0.0031132926233112,0.0006759259849786,2.85945507312268,-0.0012193024158477
2025-04-30 01:00:07.514083000,9.0050830078125,0.0171511631767404,0.0012274887412786,0.0134009721947315,-0.0053089200519025,-0.0343030811572856,0.9884460396352972,-0.0668241556049054,left,0.0005561709403991,-0.2958815865438085,0.1608788182149641,-9.379126598230004,-0.1470307128556414,0.0080928597599267,-0.0008383262902498,2.85945507312268,-0.0023061037063598
2025-04-30 01:00:07.554083300,9.045083251953123,0.0169697257460639,0.0107453726232051,0.0133034798137251,0.0011104540899395,-0.0343231370007189,0.9885062439027968,-0.066894588866358,left,-0.0019528269767761,-0.2950646897289273,0.1592166754227131,-9.381488066664335,-0.1466295798605624,0.0089577073231339,-0.0003596674650907,2.8517911143660544,-0.0020758211612701
2025-04-30 01:00:07.594083300,9.085083251953124,0.0169697257460639,0.0043340870179235,0.0133034798137251,-0.008579303510487,-0.0343231370007189,0.9885062439027968,-0.066894588866358,left,0.0019084811210632,-0.2950646897289273,0.1592166754227131,-9.381488066664335,-0.1466295798605624,-0.0032011196017265,-0.0055607222020626,2.8517911143660544,-0.0039254128932952
2025-04-30 01:00:07.634083300,9.125083251953123,0.0167192444632189,-0.0026280884630978,0.0131479923950067,0.0012599620968103,-0.0340684548339222,0.9885001670450454,-0.0664157212802147,left,-0.0016841888427734,-0.2952813216673272,0.1568564490973949,-9.380909974515438,-0.1467441048018916,-0.0091228540986776,-0.0039145741611719,2.85382378923744,-0.0031165480613708
2025-04-30 01:00:07.674083300,9.165083251953124,0.0167192444632189,-0.003190029412508,0.0131479923950067,0.0147871151566505,-0.0340684548339222,0.9885001670450454,-0.0664157212802147,left,-0.0020418167114257,-0.2952813216673272,0.1568564490973949,-9.380909974515438,-0.1467441048018916,-0.006928221322596,-0.0052380291745066,2.85382378923744,-0.0022383630275726
2025-04-30 01:00:07.714083000,9.2050830078125,0.0177089539140367,-0.0025006637442857,0.0136527330946548,0.0203473661094903,-0.0341729001660739,0.9884408257320724,-0.0664773922450553,left,-0.0028485655784606,-0.2959816765936016,0.1661053024252876,-9.378749581611157,-0.1470729787814146,-0.0092780953273177,-0.0015414487570524,2.8603941075384616,-0.00244140625
2025-04-30 01:00:07.754083000,9.2450830078125,0.0183526324496182,-0.0151794869452714,0.0140006114183422,0.0168641172349452,-0.034389594363819,0.9884088383455883,-0.0668188498013205,left,0.0018159747123718,-0.2962753737014691,0.172126754671894,-9.377800318062304,-0.1472047454670597,-0.0064749740995466,-0.0009960439056158,2.863148666943609,-0.001889944076538
2025-04-30 01:00:07.794083300,9.285083251953123,0.0187776133860435,-0.0151729406788945,0.0142589791392606,0.0155409695580601,-0.0347246997003642,0.9883806128617234,-0.0674327730830093,left,0.0007373094558715,-0.2964729799434779,0.1761015035217627,-9.377160266593098,-0.1472907315505336,-0.0028640194796025,6.02900981903e-05,2.865002185855806,0.0005646049976348
2025-04-30 01:00:07.834083300,9.325083251953124,0.0192725075416982,-0.0084070740267634,0.0145435421524516,0.0114871188998222,-0.0350091125079797,0.9883540028286656,-0.067933658851819,left,0.0017789006233215,-0.2966660922912993,0.1807315196762792,-9.376518461558222,-0.1473739432895858,-0.0031924846116453,0.0032401364296674,2.866813326931,0.0017117261886596
2025-04-30 01:00:07.874083300,9.365083251953124,0.0195076595700176,-0.0071831177920103,0.0146852145868865,0.0095479171723127,-0.0351961959739104,0.9883455336831932,-0.0682771277079249,left,0.0016834139823913,-0.2966758407478481,0.1829358613201417,-9.37644773440957,-0.1473721243325016,0.0019920209888368,0.0025325547903776,2.866904804606736,0.0020585358142852
2025-04-30 01:00:07.914083300,9.405083251953124,0.0195076595700176,-0.0026668929494917,0.0146852145868865,0.0047674719244241,-0.0351961959739104,0.9883455336831932,-0.0682771277079249,left,0.0006294250488281,-0.2966758407478481,0.1829358613201417,-9.37644773440957,-0.1473721243325016,0.0038873008452355,0.0046998728066682,2.866904804606736,0.0012408196926116
2025-04-30 01:00:07.954083300,9.445083251953124,0.0197291143931716,-0.0089696897193789,0.0148133924194448,0.0018189051188528,-0.0353840915182257,0.9883695739039136,-0.0686263706712917,left,-0.0005189180374145,-0.296245140643526,0.1850366695242933,-9.37764074358642,-0.1471527799353658,0.0120811704546213,0.0043645687401294,2.862865173827112,-0.0026720762252807
2025-04-30 01:00:07.994083000,9.4850830078125,0.0197575862257041,-0.0004530707374215,0.0148354442143825,-0.0076673361472785,-0.0354961067618832,0.9884042435906806,-0.0688512968353738,left,0.0086074471473693,-0.295719337164127,0.1853333691822364,-9.379139457711576,-0.1468907276766816,0.0157777015119791,-0.0003351774066686,2.8579329781219363,-0.0033991634845733
2025-04-30 01:00:08.034083300,9.525083251953124,0.0197575862257041,0.0049938629381358,0.0148354442143825,0.0011318190954625,-0.0354961067618832,0.9884042435906806,-0.0688512968353738,left,-0.0067446231842041,-0.295719337164127,0.1853333691822364,-9.379139457711576,-0.1468907276766816,0.008464477956295,0.0011158715933561,2.8579329781219363,-0.0006217956542968
2025-04-30 01:00:08.074083300,9.565083251953125,0.0199799296044535,0.0134954117238521,0.0148891783805793,-0.0036560427397489,-0.0351924447282296,0.9884541520522084,-0.0682064848771337,left,0.0026331543922424,-0.2951742423086737,0.1874498498795554,-9.380653953927755,-0.1466221712698164,-0.0088363103568553,-0.001895235851407,2.852818996109068,-0.0014363527297973
2025-04-30 01:00:08.114083300,9.605083251953126,0.0197456832312336,0.0097833117470145,0.014752039318911,-0.010821845382452,-0.0349977750505261,0.9884388912182116,-0.0678458191133406,left,0.0027174949645996,-0.2954903749510193,0.1852346580481156,-9.379795291271805,-0.1467852147576309,-0.0056200590915977,-0.0013315696269273,2.855785152438283,-0.0024167895317077
2025-04-30 01:00:08.154083300,9.645083251953125,0.0194664633756067,0.011691365391016,0.0145762163524494,-0.0117058176547288,-0.0347211348065248,0.9884490274604688,-0.0673274765400597,left,0.0013061165809631,-0.2955041268250628,0.1826148492048494,-9.379807566231488,-0.1468006691170943,-7.76494853198e-05,-0.0015456434339284,2.8559140395149587,-0.0010348856449127
2025-04-30 01:00:08.194083300,9.685083251953126,0.0191435318833043,0.0080078672617673,0.0143770765906365,-0.0107335448265075,-0.0344398487344317,0.9884664434580346,-0.066806673805528,left,0.0005767345428466,-0.2954212298482248,0.1795903502845205,-9.38010274978578,-0.146769053807304,0.001281450735405,-0.0016659013926982,2.855136333140731,-0.0015855729579925
2025-04-30 01:00:08.234083000,9.7250830078125,0.0191435318833043,0.0005510509945452,0.0143770765906365,-0.0080618411302566,-0.0344398487344317,0.9884664434580346,-0.066806673805528,left,-0.0020233988761901,-0.2954212298482248,0.1795903502845205,-9.38010274978578,-0.146769053807304,-0.002348719863221,-0.0016946028918027,2.855136333140731,-0.0017724335193634
2025-04-30 01:00:08.274083000,9.7650830078125,0.0183663971001779,-0.0016376923304051,0.0139777377723837,-0.0121328039094805,-0.0342838347572488,0.9884780696865528,-0.0666065565622575,left,0.0032122135162353,-0.295385527153106,0.1723025496302172,-9.380341234716772,-0.1467661699879116,0.0020670082885771,-0.0044676437973976,2.8548014020979404,-0.0027358829975128
2025-04-30 01:00:08.314083300,9.805083251953125,0.0183663971001779,0.0035612157080322,0.0139777377723837,-0.0006045764312148,-0.0342838347572488,0.9884780696865528,-0.0666065565622575,left,-0.0036510229110717,-0.295385527153106,0.1723025496302172,-9.380341234716772,-0.1467661699879116,0.0073502175509929,-0.0004879441112279,2.8548014020979404,-0.0019063651561737
2025-04-30 01:00:08.354083300,9.845083251953126,0.0183663971001779,0.0030809852760285,0.0139777377723837,0.0019374701660126,-0.0342838347572488,0.9884780696865528,-0.0666065565622575,left,0.0005151629447937,-0.295385527153106,0.1723025496302172,-9.380341234716772,-0.1467661699879116,0.0026677045971155,-0.002732858993113,2.8548014020979404,-0.0025234222412109
2025-04-30 01:00:08.394083300,9.885083251953125,0.0182242177051414,0.0021734368056058,0.0138743521641238,-0.003432058962062,-0.0341142675935126,0.9885297632358664,-0.0662871518669142,left,-0.0004478096961975,-0.2947698717490729,0.1710008559145033,-9.382121103870867,-0.1464665199107024,-0.0051663108170032,0.0001235213130712,2.8490248645231127,-0.0023213922977447
2025-04-30 01:00:08.434083300,9.925083251953126,0.0181992052679572,0.0008529511978849,0.0138570734024904,-0.0002917738165706,-0.034061045916538,0.9885188484471826,-0.0661824477878023,left,0.0005879402160644,-0.294945252944855,0.1707570920201949,-9.381626013830305,-0.1465543602009177,-0.0043726945295929,-0.001092430204153,2.8506705859035253,-0.0031682550907135
2025-04-30 01:00:08.474083000,9.9650830078125,0.0182520128925601,-0.0013606589054688,0.0138913753492128,0.0027811124455183,-0.0340904006950355,0.9884965020996638,-0.0662328047563751,left,4.60743904113e-05,-0.295232560296778,0.1712375690135173,-9.380797746312618,-0.1466951227090046,-0.0087572084739804,-0.0004902575165033,2.85336640085876,-0.0014609694480895
2025-04-30 01:00:08.514083000,10.0050830078125,0.0182520128925601,-0.0050101671367883,0.0138913753492128,-0.0013206002768129,-0.0340904006950355,0.9884965020996638,-0.0662328047563751,left,0.0012109279632568,-0.295232560296778,0.1712375690135173,-9.380797746312618,-0.1466951227090046,-0.0080618346109986,-0.0015678275376558,2.85336640085876,-0.0006418228149414
2025-04-30 01:00:08.554083300,10.045083251953123,0.0179450261220514,-0.0032152510248124,0.0137769258834539,-0.0068712709471583,-0.0342450266057705,0.9884402628535892,-0.0665883665714707,left,-0.0001820921897888,-0.2959411635472127,0.1683214441047981,-9.378825569456817,-0.1470481611583802,-0.004374393261969,-0.0018068002536892,2.86001387604922,0.0005042850971221
2025-04-30 01:00:08.594083300,10.085083251953124,0.0179450261220514,0.0046957642771303,0.0137769258834539,-0.0051333964802324,-0.0342450266057705,0.9884402628535892,-0.0665883665714707,left,-0.0004007816314697,-0.2959411635472127,0.1683214441047981,-9.378825569456817,-0.1470481611583802,-0.0027405591681599,-0.0028789900243282,2.86001387604922,0.001028835773468
2025-04-30 01:00:08.634083300,10.125083251953123,0.017715977914845,0.003471745410934,0.0136444070550022,0.0009450186043977,-0.0340920765137374,0.9884421083483532,-0.0663127307860607,left,-0.0017070770263671,-0.2960014148282125,0.1661701843550428,-9.378691713944075,-0.1470837417996013,0.0035068383440375,-0.0033613042905926,2.860579108716548,-0.0015244781970977
2025-04-30 01:00:08.674083300,10.165083251953124,0.017715977914845,-0.004628362134099,0.0136444070550022,0.0141397593542933,-0.0340920765137374,0.9884421083483532,-0.0663127307860607,left,-0.0025109052658081,-0.2960014148282125,0.1661701843550428,-9.378691713944075,-0.1470837417996013,0.0058493097312748,0.0004726331681013,2.860579108716548,-0.0029910206794738
2025-04-30 01:00:08.714083000,10.2050830078125,0.0186207603802636,-0.0103160897269845,0.0141065458757134,0.0103240050375461,-0.0342916269170279,0.9884542606755344,-0.0665832323838872,left,0.0031419396400451,-0.2956900587606183,0.1746723657677881,-9.379427627003192,-0.146912492204909,0.0052334847860038,0.0002369247376918,2.8576585450947283,-0.0036490857601165
2025-04-30 01:00:08.754083000,10.2450830078125,0.0186207603802636,-0.0083842249587178,0.0141065458757134,-0.0017745355144143,-0.0342916269170279,0.9884542606755344,-0.0665832323838872,left,0.0008528232574462,-0.2956900587606183,0.1746723657677881,-9.379427627003192,-0.146912492204909,0.0008374559693038,0.0001509990543127,2.8576585450947283,8.1181526184e-05
2025-04-30 01:00:08.794083300,10.285083251953123,0.0186207603802636,-0.0005237804725766,0.0141065458757134,-0.0030914307571947,-0.0342916269170279,0.9884542606755344,-0.0665832323838872,left,0.0012662410736083,-0.2956900587606183,0.1746723657677881,-9.379427627003192,-0.146912492204909,0.0009436471736989,-0.0006931889802217,2.8576585450947283,-0.001261293888092
2025-04-30 01:00:08.834083300,10.325083251953124,0.0186207603802636,0.008685952052474,0.0141065458757134,0.0142183322459459,-0.0342916269170279,0.9884542606755344,-0.0665832323838872,left,-0.0048344135284423,-0.2956900587606183,0.1746723657677881,-9.379427627003192,-0.146912492204909,-0.0040781013667583,0.00169981084764,2.8576585450947283,0.0018557608127593
2025-04-30 01:00:08.874083300,10.365083251953124,0.0189338881169051,0.0055133402347564,0.0142749006987099,0.0063213417306542,-0.0343862592562945,0.9884354761651928,-0.0667273110877521,left,-0.0015771985054016,-0.2958809339503311,0.1775989938042126,-9.378826738500594,-0.1470004379784464,-0.0007218960672616,0.0008498914539813,2.8594489356428383,0.0013356506824493
2025-04-30 01:00:08.914083300,10.405083251953124,0.0189338881169051,0.0023407288827002,0.0142749006987099,-0.00157564971596,-0.0343862592562945,0.9884354761651928,-0.0667273110877521,left,0.0017412900924682,-0.2958809339503311,0.1775989938042126,-9.378826738500594,-0.1470004379784464,0.0026343094650655,0.0002984032034873,2.8594489356428383,0.0009980797767639
2025-04-30 01:00:08.954083300,10.445083251953124,0.0189338881169051,0.0071931737475097,0.0142749006987099,-0.002675806172192,-0.0343862592562945,0.9884354761651928,-0.0667273110877521,left,0.0006579160690307,-0.2958809339503311,0.1775989938042126,-9.378826738500594,-0.1470004379784464,0.0038624005392193,-0.0003297124058008,2.8594489356428383,0.0009923577308654
2025-04-30 01:00:08.994083000,10.4850830078125,0.0189338881169051,0.004964055493474,0.0142749006987099,-0.0070562772452831,-0.0343862592562945,0.9884354761651928,-0.0667273110877521,left,-0.0007261037826538,-0.2958809339503311,0.1775989938042126,-9.378826738500594,-0.1470004379784464,0.0011601422447711,-0.0007759723812341,2.8594489356428383,-0.0003964006900787
2025-04-30 01:00:09.034083300,10.525083251953124,0.0189338881169051,-0.0031262785196304,0.0142749006987099,0.0002385880798101,-0.0343862592562945,0.9884354761651928,-0.0667273110877521,left,-0.0033147931098937,-0.2958809339503311,0.1775989938042126,-9.378826738500594,-0.1470004379784464,0.0010751694208011,-0.0013541746884584,2.8594489356428383,-0.0030100643634796
2025-04-30 01:00:09.074083300,10.565083251953125,0.0189338881169051,-0.0094956085085868,0.0142749006987099,0.0101373055949807,-0.0343862592562945,0.9884354761651928,-0.0667273110877521,left,-0.001640498638153,-0.2958809339503311,0.1775989938042126,-9.378826738500594,-0.1470004379784464,0.0087710078805685,-0.0010208338499069,2.8594489356428383,-0.0040999054908752
2025-04-30 01:00:09.114083300,10.605083251953126,0.0194881334179745,-0.0027198744937777,0.0145519464301272,0.0146209746599197,-0.0345317009939496,0.98848699609253,-0.066942999997511,left,-4.46438789367e-05,-0.2950772918777693,0.1828418628937564,-9.381021618196367,-0.1465921132543757,0.0187553837895393,-7.60629773139e-05,2.851909480048716,-0.0030543804168701
2025-04-30 01:00:09.154083300,10.645083251953125,0.0197834562843989,0.0230492241680622,0.0146522696153702,-0.0085888132452964,-0.0343287202371862,0.9885516367733032,-0.0664924958957586,left,0.0035476684570312,-0.2942742489680481,0.1856575231026858,-9.38325390729308,-0.1461933678489961,0.013237633742392,-0.0037514623254537,2.8443738238468765,0.0041373372077941
2025-04-30 01:00:09.194083300,10.685083251953126,0.0195893646922996,0.0276064556092023,0.0144594918149017,-0.0130122285336256,-0.0336845700217087,0.988592579655803,-0.0652192040644938,left,-0.0023519396781921,-0.2940298370338791,0.1838499256914481,-9.38398455965519,-0.1460851223523682,-0.0012353956699371,0.001083705574274,2.842079867690801,-0.0019711256027221
2025-04-30 01:00:09.234083000,10.7250830078125,0.0195325646309483,0.0026012640446424,0.0143821022191544,-0.0004043793305754,-0.0333248838388596,0.988589188840199,-0.0644988508542299,left,-0.001397967338562,-0.2942468541061602,0.1833048590293154,-9.383377825933694,-0.1461985401117755,-0.0033812427427619,0.0027100760489702,2.8441166342154145,-0.006889671087265
2025-04-30 01:00:09.274083000,10.7650830078125,0.0195325646309483,-0.0231536608189344,0.0143821022191544,-0.0012674335157498,-0.0333248838388596,0.988589188840199,-0.0644988508542299,left,2.5629997253e-06,-0.2942468541061602,0.1833048590293154,-9.383377825933694,-0.1461985401117755,-0.0004956114571541,0.0001324452459812,2.8441166342154145,-0.003271609544754
2025-04-30 01:00:09.314083300,10.805083251953125,0.0189790252316333,-0.0186388473957777,0.0142196879788542,-0.0015461158473044,-0.0340181474258262,0.9885552348793288,-0.0659824478854188,left,0.0004653930664062,-0.2944225630895049,0.1781012807705439,-9.382978012961148,-0.1462841142920156,0.0003436829429119,-0.0006909612566232,2.84576557046622,0.0004927515983581
2025-04-30 01:00:09.354083300,10.845083251953126,0.018577888446221,-0.0042468532919883,0.0140706706753323,0.0002151783555746,-0.034305947077002,0.9885361038103326,-0.0666234217630786,left,-0.0006780624389648,-0.2945728274543454,0.1743294523479417,-9.38262145460844,-0.1463607082838221,-0.0049923378974199,0.000166704878211,2.847175729525089,0.0031824111938476
2025-04-30 01:00:09.394083300,10.885083251953125,0.018577888446221,0.0066687883809208,0.0140706706753323,-0.0065257735550403,-0.034305947077002,0.9885361038103326,-0.0666234217630786,left,0.0004198551177978,-0.2945728274543454,0.1743294523479417,-9.38262145460844,-0.1463607082838221,-0.0040129381231963,-0.0012865401804447,2.847175729525089,0.0002526640892028
2025-04-30 01:00:09.434083300,10.925083251953126,0.018577888446221,0.0078835589811205,0.0140706706753323,-0.0083921290934085,-0.034305947077002,0.9885361038103326,-0.0666234217630786,left,7.73072242736e-05,-0.2945728274543454,0.1743294523479417,-9.38262145460844,-0.1463607082838221,0.0030917525291442,-0.0009712111204862,2.847175729525089,-0.0010020434856414
2025-04-30 01:00:09.474083000,10.9650830078125,0.018577888446221,0.0021777870133519,0.0140706706753323,0.0024596089497208,-0.034305947077002,0.9885361038103326,-0.0666234217630786,left,-0.0010303854942321,-0.2945728274543454,0.1743294523479417,-9.38262145460844,-0.1463607082838221,0.0013488777913153,9.79136675596e-05,2.847175729525089,-0.001511663198471
2025-04-30 01:00:09.514083000,11.0050830078125,0.018577888446221,-0.0104544050991535,0.0140706706753323,-0.0013706020545214,-0.034305947077002,0.9885361038103326,-0.0666234217630786,left,-0.0025245547294616,-0.2945728274543454,0.1743294523479417,-9.38262145460844,-0.1463607082838221,0.0014347026590257,-0.0009324308484792,2.847175729525089,-0.0025929808616638
2025-04-30 01:00:09.554083300,11.045083251953123,0.018577888446221,-0.0055540641769766,0.0140706706753323,-0.0060498751699924,-0.034305947077002,0.9885361038103326,-0.0666234217630786,left,0.0046935081481933,-0.2945728274543454,0.1743294523479417,-9.38262145460844,-0.1463607082838221,0.0025798622518777,-0.004449195228517,2.847175729525089,-0.003698319196701
2025-04-30 01:00:09.594083300,11.085083251953124,0.018577888446221,0.0040390426293015,0.0140706706753323,0.004019871354103,-0.034305947077002,0.9885361038103326,-0.0666234217630786,left,-0.0064442157745361,-0.2945728274543454,0.1743294523479417,-9.38262145460844,-0.1463607082838221,0.0011262049665674,-0.0024436693638563,2.847175729525089,0.0002318024635314
2025-04-30 01:00:09.634083300,11.125083251953123,0.018577888446221,0.0087612085044384,0.0140706706753323,0.0069727972149848,-0.034305947077002,0.9885361038103326,-0.0666234217630786,left,0.0021238923072814,-0.2945728274543454,0.1743294523479417,-9.38262145460844,-0.1463607082838221,-0.0154199311509728,-0.0015175361186265,2.847175729525089,-0.0015020072460174
2025-04-30 01:00:09.674083300,11.165083251953124,0.0183569870164437,0.0056150085292756,0.0139233868568641,-0.0028587542474269,-0.0339846390731383,0.9885142746451748,-0.0660040903325913,left,0.0023233294486999,-0.2950347044880515,0.1722326627317816,-9.381343689757584,-0.1465971206268561,-0.0058705983683466,0.0005449149757623,2.851509959337115,-0.0023451745510101
2025-04-30 01:00:09.714083000,11.2050830078125,0.0183569870164437,0.0057417526841163,0.0139233868568641,-0.0029454238247126,-0.0339846390731383,0.9885142746451748,-0.0660040903325913,left,0.0003477334976196,-0.2950347044880515,0.1722326627317816,-9.381343689757584,-0.1465971206268561,-0.0006845286116003,-0.0004320964217185,2.851509959337115,-0.0013156533241271
2025-04-30 01:00:09.754083000,11.2450830078125,0.0183569870164437,0.0019522232469171,0.0139233868568641,-0.0037380321882665,-0.0339846390731383,0.9885142746451748,-0.0660040903325913,left,0.0005365014076232,-0.2950347044880515,0.1722326627317816,-9.381343689757584,-0.1465971206268561,-0.0014071449404582,-0.0013053603470325,2.851509959337115,-0.0003241896629333
2025-04-30 01:00:09.794083300,11.285083251953123,0.0183569870164437,-0.0058846119791269,0.0139233868568641,-0.0014095057267695,-0.0339846390731383,0.9885142746451748,-0.0660040903325913,left,0.0006139874458312,-0.2950347044880515,0.1722326627317816,-9.381343689757584,-0.1465971206268561,-0.0012450305512174,-0.0023183207958936,2.851509959337115,-0.0022616982460021
2025-04-30 01:00:09.834083300,11.325083251953124,0.0183569870164437,-0.0093058925122022,0.0139233868568641,-0.0012078612344339,-0.0339846390731383,0.9885142746451748,-0.0660040903325913,left,0.0006710290908813,-0.2950347044880515,0.1722326627317816,-9.381343689757584,-0.1465971206268561,-0.0008622360182926,-0.0024882918223738,2.851509959337115,-0.002372533082962
2025-04-30 01:00:09.874083300,11.365083251953124,0.0183569870164437,-0.004528360441327,0.0139233868568641,0.0182770006358623,-0.0339846390731383,0.9885142746451748,-0.0660040903325913,left,-0.0042629241943359,-0.2950347044880515,0.1722326627317816,-9.381343689757584,-0.1465971206268561,0.0083783902227878,0.0010301619768142,2.851509959337115,-0.0031143426895141
2025-04-30 01:00:09.914083300,11.405083251953124,0.0186391946858792,-0.0032526389695703,0.014115337671802,0.0007525105029344,-0.0343584063504856,0.9884995409534724,-0.0667184323127632,left,0.0005634427070617,-0.2950416084957466,0.1748797797070816,-9.381275300696492,-0.146590710439421,-0.0007712161168456,-0.0004084799438714,2.851574549005925,-0.001507818698883
2025-04-30 01:00:09.954083300,11.445083251953124,0.0186391946858792,-0.0010121318046003,0.014115337671802,-0.0078231254592537,-0.0343584063504856,0.9884995409534724,-0.0667184323127632,left,0.0002710223197937,-0.2950416084957466,0.1748797797070816,-9.381275300696492,-0.146590710439421,-0.0062383441254496,0.0004084166139364,2.851574549005925,-0.0002715289592742
2025-04-30 01:00:09.994083000,11.4850830078125,0.0186391946858792,0.0039835898205637,0.014115337671802,0.0001417137682437,-0.0343584063504856,0.9884995409534724,-0.0667184323127632,left,-0.0009987950325012,-0.2950416084957466,0.1748797797070816,-9.381275300696492,-0.146590710439421,-0.0047480966895818,-0.0004536509513854,2.851574549005925,-0.0007740259170532
2025-04-30 01:00:10.034083300,11.525083251953124,0.0185420036742427,0.0021172852721065,0.0140738108557585,0.0039358595386147,-0.0343333647306546,0.9884572922410976,-0.0666796290483022,left,0.0001176595687866,-0.2956335325368247,0.1739366719043813,-9.379602983570098,-0.1468852305214377,-0.0049899131990969,0.0011213142424821,2.857128091479838,-0.0017525553703308
2025-04-30 01:00:10.074083300,11.565083251953125,0.0185420036742427,-0.007820501923561,0.0140738108557585,-0.0031699854880571,-0.0343333647306546,0.9884572922410976,-0.0666796290483022,left,0.0013517141342163,-0.2956335325368247,0.1739366719043813,-9.379602983570098,-0.1468852305214377,-0.000607977155596,0.00035928376019,2.857128091479838,-0.0014382600784301
2025-04-30 01:00:10.114083300,11.605083251953126,0.0185420036742427,-0.0061809476464986,0.0140738108557585,-0.0078906714916229,-0.0343333647306546,0.9884572922410976,-0.0666796290483022,left,0.0008227229118347,-0.2956335325368247,0.1739366719043813,-9.379602983570098,-0.1468852305214377,0.0036062668077647,-0.0004759132862091,2.857128091479838,-0.0005919635295867
2025-04-30 01:00:10.154083300,11.645083251953125,0.0185420036742427,0.0025349538773298,0.0140738108557585,-0.0021324940025806,-0.0343333647306546,0.9884572922410976,-0.0666796290483022,left,-1.54972076416e-05,-0.2956335325368247,0.1739366719043813,-9.379602983570098,-0.1468852305214377,-0.000358406919986,-0.0012779217213392,2.857128091479838,0.000169426202774
2025-04-30 01:00:10.194083300,11.685083251953126,0.0185420036742427,0.0084713343530893,0.0140738108557585,-0.0010326503543183,-0.0343333647306546,0.9884572922410976,-0.0666796290483022,left,0.0011187195777893,-0.2956335325368247,0.1739366719043813,-9.379602983570098,-0.1468852305214377,-0.0016664877766743,-0.0011059623211622,2.857128091479838,-0.0011111199855804
2025-04-30 01:00:10.234083000,11.7250830078125,0.0185420036742427,-0.0001101866364479,0.0140738108557585,-0.0008084480650722,-0.0343333647306546,0.9884572922410976,-0.0666796290483022,left,-0.0024763345718383,-0.2956335325368247,0.1739366719043813,-9.379602983570098,-0.1468852305214377,-0.001996420091018,0.0005066692829132,2.857128091479838,-0.0036633908748626
2025-04-30 01:00:10.274083000,11.7650830078125,0.0185420036742427,-0.0038404422812163,0.0140738108557585,-0.0063279955647885,-0.0343333647306546,0.9884572922410976,-0.0666796290483022,left,0.0047486424446105,-0.2956335325368247,0.1739366719043813,-9.379602983570098,-0.1468852305214377,0.0035544109996408,-0.0027634901925921,2.857128091479838,-0.005402535200119
2025-04-30 01:00:10.314083300,11.805083251953125,0.0185420036742427,0.0032165786251425,0.0140738108557585,0.0074066990055143,-0.0343333647306546,0.9884572922410976,-0.0666796290483022,left,-0.007390558719635,-0.2956335325368247,0.1739366719043813,-9.379602983570098,-0.1468852305214377,-0.0025629599113017,0.0009920094162225,2.857128091479838,0.0006861686706542
2025-04-30 01:00:10.354083300,11.845083251953126,0.0185420036742427,0.0069710849784314,0.0140738108557585,0.0057593965902924,-0.0343333647306546,0.9884572922410976,-0.0666796290483022,left,0.0034266710281372,-0.2956335325368247,0.1739366719043813,-9.379602983570098,-0.1468852305214377,-0.010506204329431,-0.0009891297668218,2.857128091479838,-0.0007276237010955
2025-04-30 01:00:10.394083300,11.885083251953125,0.0182054192178317,0.0099062379449605,0.0138816210504046,-0.0079211900010705,-0.034105354973661,0.9884457724700886,-0.0662671228760333,left,0.0039826035499572,-0.2959172076717877,0.1707648734678514,-9.378850119376182,-0.1470340846403423,-0.000872409902513,-0.0010528955608606,2.859789127382636,-0.0010456144809722
2025-04-30 01:00:10.434083300,11.925083251953126,0.0180689438441201,0.0155678167939186,0.0137656578279488,-0.0098954392597079,-0.0337663735810501,0.9884560167871386,-0.0656014296639661,left,0.0005125403404235,-0.2959447486044398,0.169483473621495,-9.378794589796662,-0.1470546084504946,-0.0036454822402447,-0.0009368304163217,2.8600474860578773,8.71121883392e-05
2025-04-30 01:00:10.474083000,11.9650830078125,0.0178208924198086,0.0079689994454383,0.0136029742309226,-0.0106864403933286,-0.0334552217240614,0.9884506482833182,-0.0650078285544319,left,-0.0010592341423034,-0.2961756003485699,0.1671452581985853,-9.378176165637374,-0.1471769406785321,-0.0062934840098023,-0.0003432389348745,2.8622128473982213,-0.0011392831802368
2025-04-30 01:00:10.514083000,12.0050830078125,0.0178208924198086,-0.0043962579220533,0.0136029742309226,-0.009703891351819,-0.0334552217240614,0.9884506482833182,-0.0650078285544319,left,-0.0002354383468627,-0.2961756003485699,0.1671452581985853,-9.378176165637374,-0.1471769406785321,-0.002716438146308,-0.0019610552117228,2.8622128473982213,-0.0018630921840667
2025-04-30 01:00:10.554083300,12.045083251953123,0.0170107176769065,-0.002328131115064,0.0132155964937039,-0.0086230020970106,-0.033461888163108,0.98843848939293,-0.0651411972033783,left,0.0001379251480102,-0.296383467978511,0.1595371212824247,-9.377713224300742,-0.1472923414518756,0.0096581876277923,-0.0032477295026183,2.864162520161271,-0.0011560022830963
2025-04-30 01:00:10.594083300,12.085083251953124,0.0170107176769065,0.0045902850106358,0.0132155964937039,0.0098569951951503,-0.033461888163108,0.98843848939293,-0.0651411972033783,left,-0.0043463110923767,-0.296383467978511,0.1595371212824247,-9.377713224300742,-0.1472923414518756,0.0149610936641693,-0.0021069459617137,2.864162520161271,-0.0019552707672119
2025-04-30 01:00:10.634083300,12.125083251953123,0.0170107176769065,0.0007840157486498,0.0132155964937039,0.0081976782530546,-0.033461888163108,0.98843848939293,-0.0651411972033783,left,-0.0006383061408996,-0.296383467978511,0.1595371212824247,-9.377713224300742,-0.1472923414518756,0.0047057280316948,-0.0024697156623005,2.864162520161271,-0.0032232701778411
2025-04-30 01:00:10.674083300,12.165083251953124,0.0173447081692242,0.0007636702503077,0.013378095490658,0.0044744238257408,-0.0335081185830505,0.988463674877882,-0.0651864233056044,left,0.0002686381340026,-0.2960025069001084,0.1626880961266346,-9.378749581611157,-0.1470981495747431,0.0006240024231374,-0.0014456817880272,2.8605893378496168,-0.0017323195934295
2025-04-30 01:00:10.714083000,12.2050830078125,0.0173447081692242,0.000743324693758,0.013378095490658,0.0007511691655963,-0.0335081185830505,0.988463674877882,-0.0651864233056044,left,0.0010699033737182,-0.2960025069001084,0.1626880961266346,-9.378749581611157,-0.1470981495747431,-0.0034577236510813,-0.0001003425568342,2.8605893378496168,-0.0006057024002075
2025-04-30 01:00:10.754083000,12.2450830078125,0.0173447081692242,-0.0009006151813082,0.013378095490658,0.0021492484956979,-0.0335081185830505,0.988463674877882,-0.0651864233056044,left,-0.0015580058097839,-0.2960025069001084,0.1626880961266346,-9.378749581611157,-0.1470981495747431,-0.0066474815830588,2.04518437385e-05,2.8605893378496168,-0.0019971132278442
2025-04-30 01:00:10.794083300,12.285083251953123,0.0173447081692242,-0.0071628768928349,0.013378095490658,0.0027052145451307,-0.0335081185830505,0.988463674877882,-0.0651864233056044,left,0.000947892665863,-0.2960025069001084,0.1626880961266346,-9.378749581611157,-0.1470981495747431,-0.0009125312790274,0.0007187351584434,2.8605893378496168,-0.0017600655555725
2025-04-30 01:00:10.834083300,12.325083251953124,0.0173447081692242,-0.0063694999553263,0.013378095490658,-0.0040477816946804,-0.0335081185830505,0.988463674877882,-0.0651864233056044,left,0.0016546249389648,-0.2960025069001084,0.1626880961266346,-9.378749581611157,-0.1470981495747431,0.0026351804845035,-0.0003781616687774,2.8605893378496168,0.000317633152008
2025-04-30 01:00:10.874083300,12.365083251953124,0.0174480326707317,0.0032527805306017,0.0134704349820047,-0.0057920012623071,-0.0338313768719858,0.9884795727434276,-0.0658265287886703,left,0.000599205493927,-0.2956310943542447,0.1636756823918782,-9.379794706749916,-0.1469085380715996,0.0048899287357926,-0.0014777323231101,2.85710529512614,0.0011252164840698
2025-04-30 01:00:10.914083300,12.405083251953124,0.0174480326707317,0.0066916700452566,0.0134704349820047,-0.0006845900788903,-0.0338313768719858,0.9884795727434276,-0.0658265287886703,left,-0.0006440877914428,-0.2956310943542447,0.1636756823918782,-9.379794706749916,-0.1469085380715996,0.0033778622746467,-0.0010611526668071,2.85710529512614,-0.0003237426280975
2025-04-30 01:00:10.954083300,12.445083251953124,0.0174480326707317,0.0008536973036825,0.0134704349820047,-0.0027541301678866,-0.0338313768719858,0.9884795727434276,-0.0658265287886703,left,-0.0018847584724426,-0.2956310943542447,0.1636756823918782,-9.379794706749916,-0.1469085380715996,0.0049197394400835,-0.0015802532434463,2.85710529512614,-0.0052538812160491
2025-04-30 01:00:10.994083000,12.4850830078125,0.0174480326707317,-0.0021711499430239,0.0134704349820047,-0.0015938683645799,-0.0338313768719858,0.9884795727434276,-0.0658265287886703,left,0.0028328895568847,-0.2956310943542447,0.1636756823918782,-9.379794706749916,-0.1469085380715996,0.0077515044249594,-0.0019163973629474,2.85710529512614,-0.0045490860939025
2025-04-30 01:00:11.034083300,12.525083251953124,0.0174480326707317,-0.0031305328011512,0.0134704349820047,0.0027342471294105,-0.0338313768719858,0.9884795727434276,-0.0658265287886703,left,-0.0045405030250549,-0.2956310943542447,0.1636756823918782,-9.379794706749916,-0.1469085380715996,-0.0005112695507705,-0.0024391049519181,2.85710529512614,-0.0020996928215026
2025-04-30 01:00:11.074083300,12.565083251953125,0.0174480326707317,0.0049295825883746,0.0134704349820047,0.0128502752631902,-0.0338313768719858,0.9884795727434276,-0.0658265287886703,left,-0.0006625056266784,-0.2956310943542447,0.1636756823918782,-9.379794706749916,-0.1469085380715996,-0.0122158247977495,-0.0017831893637776,2.85710529512614,-0.000832974910736
2025-04-30 01:00:11.114083300,12.605083251953126,0.0174480326707317,0.0032286681234836,0.0134704349820047,0.0013457480818033,-0.0338313768719858,0.9884795727434276,-0.0658265287886703,left,0.0033727288246154,-0.2956310943542447,0.1636756823918782,-9.379794706749916,-0.1469085380715996,-0.0098058441653847,-0.0001453422009944,2.85710529512614,-0.0022680163383483
2025-04-30 01:00:11.154083300,12.645083251953125,0.0174480326707317,0.0069045601412653,0.0134704349820047,0.0001046812394633,-0.0338313768719858,0.9884795727434276,-0.0658265287886703,left,0.0022305250167846,-0.2956310943542447,0.1636756823918782,-9.379794706749916,-0.1469085380715996,0.0021246001124382,-0.0005658194422721,2.85710529512614,-0.0004547834396362
2025-04-30 01:00:11.194083300,12.685083251953126,0.0181085984089477,0.0057247835211455,0.0137356745641167,-0.0018850154010578,-0.033471889446831,0.9884918865793212,-0.0650011729276796,left,0.0002950429916381,-0.2955911199150157,0.1698736785154789,-9.379798213881251,-0.1468832825427165,-0.0009869628120213,-0.0008486360311508,2.856730324333906,0.0001616775989532
2025-04-30 01:00:11.234083000,12.7250830078125,0.0181085984089477,0.000588059425354,0.0137356745641167,0.0027517424896359,-0.033471889446831,0.9884918865793212,-0.0650011729276796,left,-0.0007423162460327,-0.2955911199150157,0.1698736785154789,-9.379798213881251,-0.1468832825427165,-0.0024419412948191,0.0013191327452659,2.856730324333906,-0.0014101862907409
2025-04-30 01:00:11.274083000,12.7650830078125,0.0181085984089477,-0.0021857556421309,0.0137356745641167,-0.0005525697488337,-0.033471889446831,0.9884918865793212,-0.0650011729276796,left,0.0038643479347229,-0.2955911199150157,0.1698736785154789,-9.379798213881251,-0.1468832825427165,0.0063066189177334,5.71385025978e-05,2.856730324333906,-0.0018403828144073
2025-04-30 01:00:11.314083300,12.805083251953125,0.0181085984089477,0.0002391738817095,0.0137356745641167,-0.0046752216294407,-0.033471889446831,0.9884918865793212,-0.0650011729276796,left,0.0004961490631103,-0.2955911199150157,0.1698736785154789,-9.379798213881251,-0.1468832825427165,0.0113743990659713,-0.0014809947460889,2.856730324333906,-0.0026000142097473
2025-04-30 01:00:11.354083300,12.845083251953126,0.0183103039100994,0.0058069722726941,0.0138044820283383,0.0041671246290206,-0.0333502204139121,0.9885471386428472,-0.0647281013222017,left,-0.0007092952728271,-0.2948847245195249,0.1718025459525175,-9.3817791585654,-0.1465326113464436,0.0045886947773396,-0.0025592762976884,2.8501027228876947,-0.0026797950267791
2025-04-30 01:00:11.394083300,12.885083251953125,0.0183103039100994,0.0028174996841698,0.0138044820283383,-0.0023201727308332,-0.0333502204139121,0.9885471386428472,-0.0647281013222017,left,0.001487374305725,-0.2948847245195249,0.1718025459525175,-9.3817791585654,-0.1465326113464436,-0.0038027348928153,-0.0016840882599353,2.8501027228876947,-0.0031380653381347
2025-04-30 01:00:11.434083300,12.925083251953126,0.0183103039100994,0.0019933120347559,0.0138044820283383,0.0011293820571154,-0.0333502204139121,0.9885471386428472,-0.0647281013222017,left,0.0014438033103942,-0.2948847245195249,0.1718025459525175,-9.3817791585654,-0.1465326113464436,-0.0054944618605077,-0.0013114027678966,2.8501027228876947,-0.0024659931659698
2025-04-30 01:00:11.474083000,12.9650830078125,0.0183103039100994,-0.0001077321358025,0.0138044820283383,0.0012030382640659,-0.0333502204139121,0.9885471386428472,-0.0647281013222017,left,0.0013746619224548,-0.2948847245195249,0.1718025459525175,-9.3817791585654,-0.1465326113464436,-0.0040193288587033,-0.001535004004836,2.8501027228876947,-0.0008356273174285
2025-04-30 01:00:11.514083000,13.0050830078125,0.0183103039100994,-0.0040514422580599,0.0138044820283383,0.0004930294817313,-0.0333502204139121,0.9885471386428472,-0.0647281013222017,left,-0.0002088546752929,-0.2948847245195249,0.1718025459525175,-9.3817791585654,-0.1465326113464436,-0.0050429417751729,-0.0011719949543476,2.8501027228876947,0.000156819820404
2025-04-30 01:00:11.554083300,13.045083251953123,0.0181446978125929,-0.002152953762561,0.0137389444690018,-0.0026137987151741,-0.0333589263193146,0.988482793611322,-0.0647665178811763,left,0.0008007287979125,-0.2957646187550505,0.170203294062335,-9.379296694099905,-0.1469700448663885,-0.003351938445121,-0.0018655322492122,2.858357925535738,0.0005744397640228
2025-04-30 01:00:11.594083300,13.085083251953124,0.0181446978125929,0.0016541630029678,0.0137389444690018,-0.0013751620426774,-0.0333589263193146,0.988482793611322,-0.0647665178811763,left,-6.89029693603e-05,-0.2957646187550505,0.170203294062335,-9.379296694099905,-0.1469700448663885,0.0053565106354653,-0.0019120890647172,2.858357925535738,0.0006705224514007
2025-04-30 01:00:11.634083300,13.125083251953123,0.0181446978125929,0.0040991548448801,0.0137389444690018,0.0020468132570385,-0.0333589263193146,0.988482793611322,-0.0647665178811763,left,-0.0013816356658935,-0.2957646187550505,0.170203294062335,-9.379296694099905,-0.1469700448663885,0.0045461254194378,-0.0020499881356954,2.858357925535738,-0.0005740821361541
2025-04-30 01:00:11.674083300,13.165083251953124,0.0181446978125929,-0.0014773202128708,0.0137389444690018,0.0023906263522803,-0.0333589263193146,0.988482793611322,-0.0647665178811763,left,8.81552696228e-05,-0.2957646187550505,0.170203294062335,-9.379296694099905,-0.1469700448663885,0.0026655187830328,-0.0014396626502275,2.858357925535738,-0.0013079941272735
2025-04-30 01:00:11.714083000,13.2050830078125,0.0181446978125929,-0.0070537952706217,0.0137389444690018,0.0027344394475221,-0.0333589263193146,0.988482793611322,-0.0647665178811763,left,0.0015578866004943,-0.2957646187550505,0.170203294062335,-9.379296694099905,-0.1469700448663885,0.0007849121466279,-0.0008293371647596,2.858357925535738,-0.0020419061183929
2025-04-30 01:00:11.754083000,13.2450830078125,0.0184650474532026,-0.0068587218411266,0.0139325537676749,0.005494930781424,-0.033657544793057,0.9884985757655406,-0.0653247085048604,left,-0.0008855462074279,-0.2953937760034643,0.1732275007217191,-9.380300902706384,-0.1467775115239083,0.002728110179305,-0.0007306635379791,2.854878851248324,-0.0002319514751434
2025-04-30 01:00:11.794083300,13.285083251953123,0.0184650474532026,0.0039852666668593,0.0139325537676749,0.0024465369060635,-0.033657544793057,0.9884985757655406,-0.0653247085048604,left,-0.0010038018226623,-0.2953937760034643,0.1732275007217191,-9.380300902706384,-0.1467775115239083,8.18113330751e-05,-0.0016385521739721,2.854878851248324,-0.0002199113368988
2025-04-30 01:00:11.834083300,13.325083251953124,0.0190532971733863,0.0099180210381746,0.0142095906045418,0.0189491398632526,-0.0336124648036975,0.9885003529652948,-0.0651463404043578,left,-0.0050649642944335,-0.2953537971196361,0.1787475975837558,-9.380311424100398,-0.1467491165601732,-0.0069308932870626,0.0005770921707153,2.8545038804560896,0.0002304911613464
2025-04-30 01:00:11.874083300,13.365083251953124,0.0190532971733863,-0.003711562603712,0.0142095906045418,0.0025126505643129,-0.0336124648036975,0.9885003529652948,-0.0651463404043578,left,0.0028265714645385,-0.2953537971196361,0.1787475975837558,-9.380311424100398,-0.1467491165601732,-0.0108456164598464,-0.0007590409368276,2.8545038804560896,-0.0019902884960174
2025-04-30 01:00:11.914083300,13.405083251953124,0.0190532971733863,-0.0010287119075655,0.0142095906045418,0.0010118796490132,-0.0336124648036975,0.9885003529652948,-0.0651463404043578,left,0.0013306140899658,-0.2953537971196361,0.1787475975837558,-9.380311424100398,-0.1467491165601732,-0.0037314281798899,0.0003074053674936,2.8545038804560896,0.0007418096065521
2025-04-30 01:00:11.954083300,13.445083251953124,0.0195738480162465,0.0032503139227628,0.0144635365912492,0.0009264877298846,-0.0335670220210524,0.9884548216515022,-0.0649741224703869,left,0.0004523992538452,-0.2959599786532916,0.1835966085175052,-9.378485377717018,-0.1470412322231702,0.0004982631653547,-0.0020061656832695,2.8601904016599056,0.0014216005802154
2025-04-30 01:00:11.994083000,13.4850830078125,0.0195738480162465,-0.0001292980741709,0.0144635365912492,0.002755282446742,-0.0335670220210524,0.9884548216515022,-0.0649741224703869,left,9.64999198913e-05,-0.2959599786532916,0.1835966085175052,-9.378485377717018,-0.1470412322231702,0.0027406339067965,-0.0006683003157377,2.8601904016599056,-0.0007290840148925
2025-04-30 01:00:12.034083300,13.525083251953124,0.0195738480162465,-0.0043073510751128,0.0144635365912492,0.0024356951471418,-0.0335670220210524,0.9884548216515022,-0.0649741224703869,left,-0.0006480813026428,-0.2959599786532916,0.1835966085175052,-9.378485377717018,-0.1470412322231702,0.0019324792083352,-0.0010793972760438,2.8601904016599056,-0.001530647277832
2025-04-30 01:00:12.074083300,13.565083251953125,0.0195738480162465,-0.0005310866981744,0.0144635365912492,0.0006822400027886,-0.0335670220210524,0.9884548216515022,-0.0649741224703869,left,-0.0007321238517761,-0.2959599786532916,0.1835966085175052,-9.378485377717018,-0.1470412322231702,0.0102124642580747,-0.0008340235799551,2.8601904016599056,-0.0031138658523559
2025-04-30 01:00:12.114083300,13.605083251953126,0.0198562850249257,-0.001510458998382,0.0146124832449891,0.004760798998177,-0.0337100259449786,0.9884918940956936,-0.0652244365301731,left,-0.0018850564956665,-0.2953724788332285,0.1862787602735683,-9.380111517614123,-0.1467442706645036,0.0088937897235155,-0.0015063602477312,2.854678944762051,-0.0030810832977294
2025-04-30 01:00:12.154083300,13.645083251953125,0.0198562850249257,0.0003358415560796,0.0146124832449891,-8.59093852341e-05,-0.0337100259449786,0.9884918940956936,-0.0652244365301731,left,3.8743019104e-06,-0.2953724788332285,0.1862787602735683,-9.380111517614123,-0.1467442706645036,-0.0083255544304847,-0.00140524469316,2.854678944762051,-0.0019370019435882
2025-04-30 01:00:12.194083300,13.685083251953126,0.0198562850249257,0.0033575412817299,0.0146124832449891,0.0020987547468394,-0.0337100259449786,0.9884918940956936,-0.0652244365301731,left,0.0007755756378173,-0.2953724788332285,0.1862787602735683,-9.380111517614123,-0.1467442706645036,-0.0081910481676459,-2.24057585e-05,2.854678944762051,-0.0017760396003723
2025-04-30 01:00:12.234083000,13.7250830078125,0.0201324162134842,1.45628582686e-05,0.0147567216359883,0.0018906608456745,-0.0337165239708188,0.9884421551074491,-0.0651931853680751,left,0.0012321472167968,-0.2960264187324558,0.1888312760342843,-9.378191363206506,-0.1470630750728336,-0.0060844514518976,-0.00050850212574,2.8608137942552565,-0.0013601779937744
2025-04-30 01:00:12.274083300,13.765083251953126,0.0201324162134842,-0.0049675600603222,0.0147567216359883,-0.0004046583781018,-0.0337165239708188,0.9884421551074491,-0.0651931853680751,left,0.0009254813194274,-0.2960264187324558,0.1888312760342843,-9.378191363206506,-0.1470630750728336,-0.0056481854990124,-0.0007316619157791,2.8608137942552565,-0.0013979375362396
2025-04-30 01:00:12.314083300,13.805083251953125,0.0201324162134842,-0.0066496818326413,0.0147567216359883,-0.0029323049820959,-0.0337165239708188,0.9884421551074491,-0.0651931853680751,left,0.0002253055572509,-0.2960264187324558,0.1888312760342843,-9.378191363206506,-0.1470630750728336,-0.0028876571450382,-0.0010578092187643,2.8608137942552565,0.0003930926322937
2025-04-30 01:00:12.354083300,13.845083251953126,0.0197094949265166,0.0027286815457046,0.0145982435079522,-0.004510975908488,-0.0339718551768058,0.988396915364823,-0.0657701638330579,left,0.0013969540596008,-0.2965486943699546,0.184835539195314,-9.376775066667795,-0.1473241324428681,-0.0026533969212323,-0.0013909228146076,2.8657123799517747,0.0021643042564392
2025-04-30 01:00:12.394083300,13.885083251953125,0.0197094949265166,0.009765176102519,0.0145982435079522,-0.0060698688030242,-0.0339718551768058,0.988396915364823,-0.0657701638330579,left,0.0007506608963012,-0.2965486943699546,0.184835539195314,-9.376775066667795,-0.1473241324428681,0.0009921407327055,-0.0014537945389747,2.8657123799517747,0.0003491044044494
