time,seconds_elapsed,roll,rotationRateZ,quaternionY,rotationRateY,quaternionZ,quaternionW,yaw,devicelocation,accelerationZ,pitch,gravityX,gravityZ,quaternionX,rotationRateX,accelerationX,gravityY,accelerationY
1746229303461010400,0.200010498046875,-1.447357524626587,-0.10750646889209747,-0.6250700887303776,-0.2710398733615875,1.8947545066266772e-17,0.7469451334648232,0.30584340718468606,right,-0.883414626121521,0.34538294362646094,-9.157314569619297,-1.1361429418988525,0.2266277776772994,0.3526603579521179,0.9385169148445129,-3.3201106369048357,0.24118271470069885
1746229303501010400,0.240010498046875,-0.5987353153824077,-0.15004834532737732,-0.2900664114387953,-0.2677399516105652,-0.02647628991490734,0.9468683797791702,0.03013667800050127,right,-0.1992223858833313,0.2771716358662297,-5.316063505092263,-7.791593202891946,0.1363846194419905,0.2949698269367218,0.5334346890449524,-2.683456116659939,0.16078341007232666
1746229303541010400,0.280010498046875,-0.2004644168747962,-0.13461682200431824,-0.10236587729478185,-0.2106495201587677,-0.040661886673735236,0.990725620272087,-0.06523050864673981,right,-0.019630789756774902,0.16675016617500757,-1.925658704125136,-9.476963287603855,0.07956476140338826,0.2567453682422638,0.16660915315151215,-1.62769326402992,0.03006845712661743
1746229303581010400,0.320010498046875,-0.10750283630945515,-0.11793607473373413,-0.056486139342737635,-0.21069082617759705,-0.04528739867883876,0.995032681569983,-0.08333515753498451,right,-0.0008653402328491211,0.14155849539424953,-1.0416887345701455,-9.652510993167757,0.06832437442217362,0.22723768651485443,0.06421217322349548,-1.383583332762867,-0.011678159236907959
1746229303621010200,0.36001025390625,-0.015325265742671856,-0.10125532001256943,-0.010478105276724475,-0.2107321172952652,-0.04981007234215538,0.9970797984526227,-0.09894808612233698,right,0.00901561975479126,0.11482110396774943,-0.14929444374474696,-9.740932203942537,0.05692881451693787,0.19773000478744507,-0.03904383257031441,-1.1235381657391785,-0.05504968762397766
1746229303661010200,0.40001025390625,-0.028817463418484634,-0.06451933085918427,-0.017759261208285717,-0.1696307361125946,-0.05174435049646452,0.9963178322440301,-0.10184733454021379,right,0.006711840629577637,0.1337785623712211,-0.28003935931492596,-9.714992291522025,0.06601407683748235,0.1355258971452713,-0.022363677620887756,-1.3080102053843439,-0.030553296208381653
1746229303701010400,0.440010498046875,-0.035943986746233364,-0.009061634540557861,-0.021511537391409725,-0.11976700276136398,-0.052177983535986926,0.9959706674786016,-0.10213414844364253,right,-0.0018402934074401855,0.1415406020037919,-0.34889041189681735,-9.702311089125274,0.06969262470997278,0.09323586523532867,-0.0197288878262043,-1.3834095836311577,-0.017539724707603455
1746229303741010400,0.480010498046875,-0.04307636829938212,0.04639606177806854,-0.025263214549505805,-0.06990326941013336,-0.052610170388180576,0.9955957407477579,-0.10236536947379471,right,-0.010502278804779053,0.14930449805337914,-0.41760640338957306,-9.688552612885832,0.07336923720792435,0.050945840775966644,-0.017107859253883362,-1.458743495426327,-0.004532799124717712
1746229303781010400,0.520010498046875,-0.049288179569517816,0.017532940953969955,-0.028399095100469035,0.012724610976874828,-0.05207705791485678,0.9953913230167408,-0.10074833008805967,right,0.011765360832214355,0.1535658297147759,-0.4774708337763324,-9.67947557246089,0.07534980370078405,-0.04850918427109718,-0.005246918648481369,-1.5000547261103987,0.00823889672756195
1746229303821010400,0.560010498046875,-0.04847617817800245,0.0019675176590681076,-0.027932315163856476,0.04299869015812874,-0.05136960190883178,0.9954568800325531,-0.09939847339636683,right,0.006876766681671143,0.15307193254459978,-0.46964678908716884,-9.680598439010977,0.07514394637472334,-0.019005272537469864,-0.0010151267051696777,-1.495267930225283,0.0075724124908447266
1746229303861010400,0.600010498046875,-0.04766356102515488,-0.013597906567156315,-0.0274655141582981,0.07327276468276978,-0.05066212388248564,0.9955216482973782,-0.09804834602259899,right,0.0019870996475219727,0.15257911825136405,-0.46181507254820314,-9.68171195321083,0.07493803266544358,0.010498639196157455,0.003215871751308441,-1.4904915096037088,0.006906971335411072
1746229303901010200,0.64001025390625,-0.04667950626746294,-0.02475852333009243,-0.027020137165513516,0.03649007901549339,-0.051459200608730556,0.9955222038042086,-0.0997391895375812,right,0.008372366428375244,0.15178949055892368,-0.45234227427132423,-9.683334585976601,0.07454701606964374,-0.048126205801963806,-0.004376385360956192,-1.4828373415887355,-0.016789481043815613
1746229303941010400,0.680010498046875,-0.04486427256993974,-0.01884705200791359,-0.026107133667902373,0.041936807334423065,-0.051637201028926494,0.9955785155019904,-0.10025490288289203,right,0.006842195987701416,0.1506011954329879,-0.43484274834003295,-9.685893038287759,0.07399534500534756,-0.03163953125476837,-0.002606004476547241,-1.471317145795375,-0.015850365161895752
1746229303981010400,0.720010498046875,-0.04304998732397359,-0.012935580685734749,-0.025194101541480343,0.04738353565335274,-0.05181513287840216,0.9956336214183119,-0.1007683207087346,right,0.005307495594024658,0.1494119896283125,-0.4173440626589581,-9.6884070669353,0.07344359633862785,-0.015152854844927788,-0.0008355379104614258,-1.4597859902165828,-0.01491236686706543
1746229304021010400,0.760010498046875,-0.04127949338256245,0.010420911014080048,-0.024338919181730877,0.07115764170885086,-0.05156234570698905,0.9956015606313056,-0.10036256698563903,right,-0.0031508803367614746,0.15110901078176825,-0.4000873325075954,-9.686641810828446,0.0743393042261752,-0.004385810345411301,0.007906239479780197,-1.476240573672205,-0.006529510021209717
1746229304061010400,0.800010498046875,-0.037184607714908204,0.011038139462471008,-0.02234209089783116,0.10591447353363037,-0.05116279279577479,0.9955650617181443,-0.09982828468409538,right,0.00859445333480835,0.15365617754568683,-0.3602774462971836,-9.684409521731734,0.07571884876193732,0.02552533708512783,0.009797142818570137,-1.5009301937706767,-0.008584946393966675
1746229304101010400,0.840010498046875,-0.033702834829976096,0.01883457973599434,-0.020619541991773637,0.11874520033597946,-0.050784210348771786,0.9955669586174849,-0.09931650532803345,right,0.0018261075019836426,0.15490337521557931,-0.32649310398660597,-9.68372680016458,0.0764340040298162,0.011611171066761017,0.008970331400632858,-1.5130157683618366,-0.007212251424789429
1746229304141010200,0.88001025390625,-0.027434797427380243,0.014481153339147568,-0.017497634361725717,0.1251014620065689,-0.05029158834531646,0.9956103443096352,-0.09880122841189841,right,0.006653845310211182,0.1556527456127803,-0.26575791864730414,-9.684446931132674,0.0769703829293507,0.00930760707706213,0.0006750766187906265,-1.520276260884106,-0.023413702845573425
1746229304181010200,0.92001025390625,-0.024522185212503534,0.03195209056138992,-0.01603653836773171,0.07096025347709656,-0.04965208051873336,0.9956120791060294,-0.09773128278750186,right,-0.00042933225631713867,0.15691195852605558,-0.23750266022281719,-9.68325859813094,0.07767902845550335,0.008399780839681625,-0.012225782498717308,-1.5324743559390306,-0.028621971607208252
1746229304221010400,0.960010498046875,-0.02161035547937782,0.04942302405834198,-0.014575394612042903,0.016819041222333908,-0.04901241186684205,0.99561067500505,-0.09666481105121737,right,-0.007522881031036377,0.15817423323355995,-0.20926373187862335,-9.681967389276624,0.0783874403640361,0.0074919541366398335,-0.02512497268617153,-1.544699777392298,-0.03382742404937744
1746229304261010400,1.000010498046875,-0.023710461833177144,0.4523037374019623,-0.01516887701940119,0.023926714435219765,-0.04235580443934702,0.9957462450965872,-0.08309591007521747,right,0.015204191207885742,0.16212297011844115,-0.22945001267585902,-9.67533306582868,0.0804063891028202,0.10825575143098831,-0.03248835355043411,-1.58292809349969,-0.07338561117649078
1746229304301010400,1.040010498046875,-0.027320198390003943,1.2279644012451172,-0.015033673183084278,0.1942351907491684,-0.017656593222413176,0.9960237112927066,-0.03308479638366167,right,0.020657241344451904,0.1727379039927308,-0.2638999975546263,-9.657100659045577,0.08601665764195879,0.2612227499485016,-0.008399136364459991,-1.6855688221544027,-0.06922109425067902
1746229304341010400,1.080010498046875,-0.02804243944217377,1.4395174980163574,-0.012803741512109175,0.2843013405799866,0.01135876669082398,0.9956700090243285,0.02538388777813973,right,0.008642017841339111,0.1826687739369604,-0.27039198992243035,-9.639699442389606,0.09136835343781431,0.27326852083206177,0.011640530079603195,-1.7814233978003262,-0.025423169136047363
1746229304381010200,1.12001025390625,-0.027495105022457927,1.4148664474487305,-0.009586084900522658,0.298978328704834,0.041269891239737164,0.9944792033871827,0.08558867346287292,right,-0.0071607232093811035,0.19131195122078784,-0.2646826358322985,-9.624094461500643,0.09599914530174605,0.22148898243904114,0.027591392397880554,-1.8647062227733433,0.0186137855052948
1746229304421010200,1.16001025390625,-0.027609636960020143,1.1581470966339111,-0.00692893873223723,0.2228093445301056,0.06754960451285882,0.9928089442841603,0.1385839565124575,right,-0.003436446189880371,0.19607281064607104,-0.2655368232425302,-9.615081133961677,0.09858643846266349,0.12039777636528015,0.0382794514298439,-1.91052119461745,0.03652775287628174
1746229304461010400,1.200010498046875,-0.02737756599467428,0.8247931599617004,-0.00465668516718956,0.1664748340845108,0.08795123047051777,0.9910734791373753,0.17975441271169756,right,-0.016277730464935303,0.1988633790221164,-0.2631584767386317,-9.609775428768993,0.10008055155762038,0.06378459930419922,0.03628402203321457,-1.9373554255291818,0.04541561007499695
1746229304501010400,1.240010498046875,-0.028938533419561062,0.5767542719841003,-0.003948872073089028,0.03787861764431,0.10199184993770032,0.9896666611010887,0.20829001995782084,right,-0.021423935890197754,0.19985353131127623,-0.27810305749010295,-9.607430911469459,0.10070627463193117,0.023803919553756714,0.033781737089157104,-1.9468731954589484,0.04090909659862518
1746229304541010400,1.280010498046875,-0.03208452333254339,0.2582765519618988,-0.004690208413036594,-0.025831371545791626,0.11042245397610556,0.9887898731171507,0.22562725521341104,right,-0.01875627040863037,0.19881168143967506,-0.3083914109110832,-9.608530397143959,0.10039563184094295,-0.05992773920297623,0.043886177241802216,-1.9368584357924759,0.054305702447891235
1746229304581010400,1.320010498046875,-0.03449063269678719,0.05445510149002075,-0.0057043836921478975,-0.027497978881001472,0.1134177085157242,0.9885482702093457,0.23186321665971338,right,-0.000057697296142578125,0.19644682497461294,-0.33166670723222197,-9.612311669248342,0.09937789489174909,-0.05190625786781311,0.031557872891426086,-1.9141184884570537,0.036268964409828186
1746229304621010200,1.36001025390625,-0.03372038760860203,-0.08743266761302948,-0.005614657434513651,-0.043844807893037796,0.11296648843590897,0.988804885043082,0.23075848320675138,right,-0.0037162303924560547,0.19238244443000715,-0.32452238843552766,-9.6202599979043,0.09732277139698481,-0.052271418273448944,0.010941438376903534,-1.87501148981899,0.02156701683998108
1746229304661010200,1.40001025390625,-0.03302791260972885,-0.10325069725513458,-0.005616872556186655,-0.04513600468635559,0.11092925931093728,0.9891572074869691,0.2265040975492359,right,0.0028007030487060547,0.18996854922945372,-0.31800902448613194,-9.62497767407596,0.0960788435241392,-0.004709366708993912,0.0034748390316963196,-1.8517704610936343,0.012206465005874634
1746229304701010400,1.440010498046875,-0.03219791090574556,-0.1567739099264145,-0.005528371374956259,-0.016418082639575005,0.10856894238345344,0.9894998354731229,0.22161020352211214,right,-0.0029349923133850098,0.18840861973302656,-0.3101127913435921,-9.62811421853602,0.09524828930820452,-0.026430370286107063,0.005883321166038513,-1.836745764310658,0.018898531794548035
1746229304741010400,1.480010498046875,-0.03200015993164418,-0.16206063330173492,-0.0057356542015056635,-0.03359159082174301,0.10538718578402138,0.9898437295120727,0.2151621897990196,right,0.010069429874420166,0.1884436504237743,-0.30820677505917843,-9.62811071140468,0.09523687844741148,0.04448893666267395,-0.004324670881032944,-1.8370831795714795,0.0044826120138168335
1746229304781010400,1.520010498046875,-0.03149557386507696,-0.23775993287563324,-0.005746674101758503,-0.017714329063892365,0.101900301580985,0.9901447884365263,0.20810640642376815,right,-0.011480748653411865,0.18987605251415093,-0.30326533660162236,-9.625625324329734,0.09589928384011612,0.038448382169008255,0.02624349109828472,-1.8508797958642242,0.042252108454704285
1746229304821010400,1.560010498046875,-0.03029154703363141,-0.5626359581947327,-0.006033079693480965,-0.08374156802892685,0.09379836769296816,0.9910435566158182,0.19158584999116818,right,-0.041694581508636475,0.18799210705500594,-0.2917807053119875,-9.629451604619621,0.09485886922960533,-0.17767088115215302,0.03046577237546444,-1.8327333137989044,0.06859038770198822
1746229304861010400,1.600010498046875,-0.028116793285483208,-0.851004958152771,-0.006787598192994447,-0.05662071704864502,0.07975067375267442,0.9928090536067549,0.16280158022115668,right,-0.020528793334960938,0.17658734858972852,-0.2714083273581229,-9.650330141997337,0.08901694252686176,-0.4126919209957123,0.046208322048187256,-1.7227445604689418,0.0645652636885643
1746229304901010200,1.64001025390625,-0.024407735885111508,-1.0185484886169434,-0.007299645087253915,-0.09639106690883636,0.058993261155674596,0.9949352029935142,0.12041925536213553,right,0.038192033767700195,0.1611312994770756,-0.2362345582494512,-9.67673533384204,0.08105865255713496,-0.23561353981494904,-0.016650641337037086,-1.5733298056796192,-0.060733526945114136
1746229304941010400,1.680010498046875,-0.024093741935458136,-0.9299196600914001,-0.008861917630252916,-0.19759687781333923,0.03882779302099699,0.9960743197340374,0.07982302395896292,right,0.0008237957954406738,0.15745290201464793,-0.2333339597034268,-9.682529699334502,0.07905600123943844,-0.022814244031906128,-0.018633050844073296,-1.5377137178972362,-0.03779242932796478
1746229304981010400,1.720010498046875,-0.027037687138390908,-0.7385953068733215,-0.01170820881929733,-0.2127402126789093,0.02124260667401118,0.9965687900060399,0.044764031727408185,right,0.005327701568603516,0.1578847759577547,-0.26181975721446793,-9.6811356146276,0.07913506433743231,-0.004160897806286812,-0.032810281962156296,-1.541896410409361,-0.05739349126815796
1746229305021010400,1.760010498046875,-0.03155521219996856,-0.3601330816745758,-0.014812423102096295,-0.15376853942871094,0.010034144112006718,0.9965844959720618,0.022683626170648962,right,0.022699713706970215,0.16108398801446153,-0.30539451238373294,-9.674874216145277,0.08061810913732345,0.09095952659845352,-0.03374225273728371,-1.5728718327790498,-0.06483405828475952
1746229305061010400,1.800010498046875,-0.034567712493756834,-0.06338557600975037,-0.01662058956006486,-0.05310709774494171,0.005849000780968143,0.9964195434614312,0.01460453032612738,right,0.009187698364257812,0.1653460145102931,-0.3343039238680154,-9.667122871366143,0.08269010025906393,0.07656515389680862,-0.02356484904885292,-1.6141126285754144,-0.035945042967796326
1746229305101010400,1.840010498046875,-0.03471711044261711,0.07272855937480927,-0.016659990610709663,0.07035139948129654,0.006262747521299177,0.9964142694521857,0.015448012222572922,right,-0.0022019147872924805,0.16538018888038084,-0.33574626816343517,-9.667017657426,0.08271460178966077,-0.10147137194871902,-0.003117211163043976,-1.614443175704032,0.0016842633485794067
1746229305141010200,1.88001025390625,-0.030831968947817607,0.05860047787427902,-0.014635414022653342,0.1631476730108261,0.00816284184558894,0.9968047587132524,0.018789032253518672,right,-0.006992995738983154,0.1560910725786578,-0.29863552137650545,-9.682821375757456,0.07809800828841909,-0.42970845103263855,-0.006856072694063187,-1.5245225201517343,0.0037857741117477417
1746229305181010200,1.92001025390625,-0.02394336070537025,0.018982790410518646,-0.011272798920984668,0.18556872010231018,0.008700308415798844,0.997441816383475,0.01912367744812925,right,0.03467118740081787,0.14000154639622253,-0.2324849964575842,-9.70791606952548,0.07004959952033173,-0.31605976819992065,-0.03933228924870491,-1.368465843129903,-0.08086596429347992
1746229305221010400,1.960010498046875,-0.019634531121438602,0.028408663347363472,-0.009088204530133854,0.07908985018730164,0.009661520347214785,0.9975810183421764,0.020710355901724434,right,0.014406442642211914,0.13638683547755084,-0.190749074088037,-9.713709850496054,0.06823506437117403,0.06034111976623535,-0.019969619810581207,-1.3333556590430438,-0.04350048303604126
1746229305261010400,2.000010498046875,-0.02192875385040255,0.1517966091632843,-0.010112855866312952,-0.11060777306556702,0.010335487470536302,0.9971827642102437,0.022344582603406018,right,0.01382070779800415,0.14711042715987335,-0.21270820977669208,-9.698393623420596,0.0736020689386466,0.424516886472702,-0.04299306869506836,-1.4374629531189798,-0.07425794005393982
1746229305301010400,2.040010498046875,-0.03058864030333708,0.2669963836669922,-0.013851177678751625,-0.1283608376979828,0.015023978734653649,0.9961848453828532,0.0327584323980601,right,-0.029812932014465332,0.16942720659996238,-0.29563126152660696,-9.661711952233315,0.08484067252966492,0.48283132910728455,0.024507205933332443,-1.6535760394357144,0.05254974216222763
1746229305341010400,2.080010498046875,-0.037247529676950414,0.1443662941455841,-0.01666137548622751,-0.058314986526966095,0.01903951668562157,0.9955521338928244,0.041625932551279984,right,-0.03360933065414429,0.18104860428248942,-0.35922059418801217,-9.63967372342646,0.0907514435658233,0.10274085402488708,0.03963341563940048,-1.7657969357319174,0.05714292824268341
1746229305381010200,2.12001025390625,-0.03890658729432908,0.06342781335115433,-0.01733593028194198,-0.013221308588981628,0.020839791839777203,0.9955681516531527,0.04536160990525321,right,0.011115610599517822,0.17954525083176434,-0.3753157332140952,-9.641706106036901,0.09005144795362074,-0.04305163025856018,0.019821112975478172,-1.7512930479526518,-0.0009988844394683838
1746229305421010200,2.16001025390625,-0.03816329743044577,-0.009252488613128662,-0.016998247066365376,-0.030506733804941177,0.021244978249635945,0.995786616363775,0.04600319811820852,right,0.024639129638671875,0.17456782265994555,-0.3684770463004708,-9.650573303103446,0.08757137159873245,0.018367890268564224,0.0012459978461265564,-1.7032443257071077,-0.033400192856788635
1746229305461010400,2.200010498046875,-0.03995739413355959,0.03410114347934723,-0.01773278617654578,-0.0780530720949173,0.022187467156749803,0.9955287666813561,0.04816408130201258,right,-0.0082358717918396,0.1795453118008967,-0.38544706846494226,-9.641306293064355,0.09008735359685897,0.19173653423786163,0.01885673590004444,-1.7512936324745416,0.031817734241485596
1746229305501010400,2.240010498046875,-0.04422553024693095,-0.0009369999170303345,-0.019709357161571784,-0.08328621089458466,0.022848983459581973,0.9952490585019663,0.04999785840626566,right,-0.008157730102539062,0.18439833091825827,-0.42621308635640887,-9.630969023445248,0.09256767132563674,0.04165884852409363,0.03399091213941574,-1.798099661182612,0.04842865467071533
1746229305541010400,2.280010498046875,-0.045430112887647506,-0.0426509864628315,-0.020379564940397114,-0.008857615292072296,0.022016332939248623,0.995249673751636,0.04843924297927199,right,0.02179187536239624,0.1845023263843409,-0.43780558020099997,-9.630261751958727,0.09261731039278262,0.013149706646800041,0.005869079381227493,-1.799102262353897,-0.001979336142539978
1746229305581010400,2.320010498046875,-0.044251397976873684,0.008246861398220062,-0.01983189846429,0.01721752993762493,0.021682168242532312,0.9952789784212857,0.04765331743005799,right,0.016391277313232422,0.1843077249226191,-0.42646939920503646,-9.631120414614676,0.09249970528159092,0.05016714334487915,-0.006939586251974106,-1.797226239348948,-0.019178494811058044
1746229305621010200,2.36001025390625,-0.04278814966713709,0.04948442429304123,-0.019037061061062666,0.03924762085080147,0.022365052993983902,0.9952489268189967,0.0489053345145606,right,0.004333198070526123,0.18497374011693396,-0.4123249558553099,-9.63053647724688,0.0928271543196464,0.010571669787168503,-0.006107762455940247,-1.803646481654793,-0.01776537299156189
1746229305661010200,2.40001025390625,-0.04203396427533671,0.0880221426486969,-0.018534294726953778,0.031150806695222855,0.023746289093408753,0.9952189872629381,0.05161365243791783,right,0.0010560154914855957,0.18510078667428678,-0.4050519691776484,-9.630615387701988,0.09290711053423159,-0.021131418645381927,-0.014207504689693451,-1.8048712011441588,-0.023814573884010315
1746229305701010400,2.440010498046875,-0.04186557725260782,0.06660307198762894,-0.018291221737160877,0.023427575826644897,0.02552993820169953,0.9951956716209232,0.055172728666100214,right,-0.00014519691467285156,0.18468734451901134,-0.4034615216484293,-9.631428457650541,0.09273209124626995,-0.02769766002893448,-0.014474805444478989,-1.8008857847698032,-0.015956610441207886
1746229305741010400,2.480010498046875,-0.04220484672432266,0.13132689893245697,-0.01822963333221652,0.009082634001970291,0.027671486466611425,0.9950545364341569,0.05954968728854164,right,-0.0034366250038146973,0.18642284864111908,-0.4065966413363814,-9.628153966024517,0.09363999240527493,0.06879802793264389,-0.02233997732400894,-1.817613047686964,-0.021034464240074158
1746229305781010400,2.520010498046875,-0.04377873158606152,0.13971856236457825,-0.018671244758978873,-0.006096919998526573,0.030522938556815298,0.9947868932100329,0.06551852991672151,right,-0.014271259307861328,0.18999062467161393,-0.4214632614808157,-9.620962008693814,0.09549255833883505,0.05331210047006607,-0.005590330809354782,-1.8519832270614802,0.007323712110519409
1746229305821010400,2.560010498046875,-0.04477372515785474,0.06189648061990738,-0.018937992013530882,0.04170580953359604,0.03263436317197599,0.9946585625899843,0.06988644071553941,right,-0.002084672451019287,0.19104897354993192,-0.4309478597933426,-9.618574236774444,0.09607565508293958,-0.04473588615655899,0.026681523770093918,-1.8621742200776934,0.02556777000427246
1746229305861010400,2.600010498046875,-0.041850254550991305,-0.05265766382217407,-0.017584972860888046,0.0834360271692276,0.03242305223262188,0.9948604245730109,0.06909542314081742,right,0.012242019176483154,0.18758587794301923,-0.40309385737981646,-9.626178866559266,0.09429864793832114,-0.0977732241153717,0.004404515027999878,-1.8288196474865077,-0.00987766683101654
1746229305901010200,2.64001025390625,-0.038907866322672686,-0.01273990049958229,-0.01618494271602649,0.02315668761730194,0.03212961913236667,0.9949551563175769,0.06819959858292057,right,0.00005233287811279297,0.18638840032711057,-0.3748530841384083,-9.629504796111583,0.09364798790970041,0.04093988239765167,0.00407661497592926,-1.8172811853840947,-0.0018967539072036743
1746229305941010400,2.680010498046875,-0.038654333351299766,-0.013965505175292492,-0.016039470581851217,-0.04039033502340317,0.0320615238445364,0.9948933771765486,0.06807088812466924,right,-0.022932231426239014,0.18781063558051256,-0.3723114368315786,-9.627007134076953,0.09435030073357532,0.022807877510786057,-0.004875104874372482,-1.8309850088268518,0.019217073917388916
1746229305981010400,2.720010498046875,-0.04065491304013264,-0.012956995517015457,-0.01703767626973896,-0.05272597819566727,0.03165255883908033,0.9948199810119888,0.06747195466354235,right,-0.002099335193634033,0.1892327264859241,-0.39146406373213977,-9.623631520164013,0.09508451243985534,0.026193270459771156,-0.005645841360092163,-1.844684009964019,0.007249698042869568
1746229306021010400,2.760010498046875,-0.04165679951360312,-0.033769842237234116,-0.017557531454693385,-0.008912812918424606,0.03117696006746195,0.9947756027202042,0.066636461141121,right,0.00018537044525146484,0.19027001586504888,-0.4010257458688691,-9.621317398002743,0.09560891180158146,0.032913610339164734,0.0007685162127017975,-1.854673635189235,0.008589684963226318
1746229306061010400,2.800010498046875,-0.04153630406856844,-0.06377361714839935,-0.017574462052725358,0.0045551033690571785,0.030316833307509065,0.9947869225802168,0.06490391062313487,right,-0.0049454569816589355,0.19061740249638284,-0.3998396413568407,-9.620721185675263,0.09576460574486201,-0.009347263723611832,0.001740735024213791,-1.8580188539639115,0.008690014481544495
1746229306101010400,2.840010498046875,-0.040671926077996724,-0.014827784150838852,-0.017208777236572922,0.021455593407154083,0.029634058067267845,0.994801797414969,0.06345514764653586,right,0.004691898822784424,0.1909219846167333,-0.39150052328500895,-9.620497313791512,0.09589052798248138,0.02364865317940712,-0.006200868636369705,-1.8609515464149415,-0.0007313191890716553
1746229306141010200,2.88001025390625,-0.03946980265114087,0.019530434161424637,-0.016582132319021756,0.03846313804388046,0.029871867600621205,0.9947763101660699,0.06383181569150005,right,-0.0012375712394714355,0.19155504393267492,-0.3798886306202039,-9.619781858998536,0.0961906723701053,0.0017545092850923538,-0.003215152770280838,-1.8670465022891758,0.007033735513687134
1746229306181010200,2.92001025390625,-0.03767970743554929,-0.00032722391188144684,-0.01567994074402464,0.05597878620028496,0.030211684804685526,0.9948168751862776,0.06432641498642488,right,0.0025842785835266113,0.1908468703497091,-0.3627174233278259,-9.621765726292132,0.09581557019860716,-0.02571146935224533,-0.0030325911939144135,-1.8602283467069267,-0.0011907517910003662
1746229306221010400,2.960010498046875,-0.035787621670345215,-0.0065106614492833614,-0.014729322171931835,0.04479189217090607,0.030391490978447715,0.9948261627441973,0.06450672727202442,right,0.0026879310607910156,0.19089636587081693,-0.34450828782245513,-9.622342649397254,0.09581289341373352,0.018583126366138458,-0.0012183226644992828,-1.8607048781774937,0.0015875846147537231
1746229306261010400,3.000010498046875,-0.03409625757573793,-0.05343092232942581,-0.013936254359611001,0.03608262911438942,0.02993196236083155,0.9948443761948655,0.06342438593047088,right,-0.004079639911651611,0.1911127957407394,-0.3282191971268505,-9.622508653613924,0.0958872721176149,-0.012311773374676704,0.006432481110095978,-1.8627886987142264,0.008373618125915527
1746229306301010400,3.040010498046875,-0.03228125035925299,-0.08902883529663086,-0.013200390251059676,0.03418317809700966,0.028509904459235836,0.9949625269674314,0.06036614038343071,right,0.00021499395370483398,0.1898204705071873,-0.3108311687460169,-9.625486792641878,0.09519719175695267,-0.053214848041534424,0.003517288714647293,-1.8503445199437438,-0.0015701055526733398
1746229306341010400,3.080010498046875,-0.02974010036905353,-0.10354767739772797,-0.012171850905697624,0.05055876821279526,0.026678672332076197,0.9951805510413233,0.056387047350937664,right,-0.002759993076324463,0.18667426336379012,-0.28654207400614395,-9.632017071193456,0.09357167729319786,-0.11556852608919144,0.00370623916387558,-1.820035890919715,-0.001107722520828247
1746229306381010200,3.12001025390625,-0.026631757345205575,-0.16706043481826782,-0.010964499988676449,0.04149634763598442,0.02398432442455414,0.995509901622234,0.050598928473945017,right,0.0020526647567749023,0.18147124563101308,-0.2568498050484806,-9.642197104424238,0.0909095965959918,-0.13960222899913788,-0.0006900280714035034,-1.7698736836515365,-0.013158261775970459
1746229306421010200,3.16001025390625,-0.024760476889797288,-0.13115181028842926,-0.010362895370111161,-0.017134420573711395,0.020801844698554738,0.995710172244182,0.04399738665529249,right,-0.0006653070449829102,0.17887374354696517,-0.23891912115830927,-9.647223992675542,0.08956046621739806,-0.01529858261346817,-0.008742600679397583,-1.7448133305445312,-0.020539477467536926
1746229306461010400,3.200010498046875,-0.02525727737884569,-0.10148680210113525,-0.010816424766421152,-0.05083658546209335,0.01833108414244827,0.995698258836367,0.03909779769175866,right,-0.007793307304382324,0.18015440861572704,-0.2436552097694948,-9.644862524241208,0.0901769372523537,0.037933237850666046,0.003943063318729401,-1.7571705616839228,-0.0014610141515731812
1746229306501010400,3.240010498046875,-0.02672765757670467,-0.05799321085214615,-0.0116725427938765,-0.051142338663339615,0.01664238423110201,0.9956172656683061,0.035872554290498425,right,-0.005602121353149414,0.18239192609395682,-0.25773082566671074,-9.640539400345087,0.09128550929840018,0.028969764709472656,0.0054733771830797195,-1.7787534479387104,0.0025086253881454468
1746229306541010400,3.280010498046875,-0.02796383807582362,-0.02496161311864853,-0.012355722965368241,-0.03375886008143425,0.01571161325283823,0.9955666693653021,0.03413570083205078,right,0.0009905099868774414,0.18364828515520343,-0.26958538624728096,-9.637971595683693,0.09191045596266521,0.01799776777625084,0.0005775075405836105,-1.790868394754827,-0.001123189926147461
1746229306581010400,3.320010498046875,-0.028881690945301977,0.007161978632211685,-0.012822374551031336,-0.022431200370192528,0.015476484355456848,0.9955261465680539,0.03376123075297122,right,0.003897249698638916,0.18446987227531128,-0.2783889252267778,-9.636246087065338,0.0923242032058249,0.020751740783452988,-0.0029233992099761963,-1.7987893970124422,-0.0044160932302474976
1746229306621010200,3.36001025390625,-0.029391456114931765,-0.009691786020994186,-0.013068370748407736,-0.00852615013718605,0.015502834403395402,0.9955075005266404,0.0338665911325058,right,-0.0015941262245178223,0.18478631138625481,-0.28328436911813915,-9.63553355488181,0.09248633512200513,-0.016815077513456345,-0.0006917547434568405,-1.801839870624244,0.005283236503601074
1746229306661010200,3.40001025390625,-0.029486944129340022,-0.04222741350531578,-0.01318344052411316,-0.0011009564623236656,0.014874862000014753,0.9955627137648271,0.03259748714343235,right,0.00414884090423584,0.18377910854619203,-0.2842578172601759,-9.637315762123466,0.09197740104660099,-0.034025080502033234,-0.004397403448820114,-1.7921297929927706,-0.0007867664098739624
1746229306701010400,3.440010498046875,-0.029199032592099005,-0.0546589232981205,-0.013146237907573027,0.006804921664297581,0.013869702878968373,0.995640331056701,0.03053023221935009,right,0.006170809268951416,0.18244213387071867,-0.28155279608517886,-9.639783613541722,0.09129621326721958,-0.031503982841968536,-0.004953324794769287,-1.7792377243243156,0.00006145238876342773
1746229306741010400,3.480010498046875,-0.028361841813134506,-0.06984952837228775,-0.01286064906212635,0.003517253790050745,0.012574236868175123,0.9957123985910067,0.027834597559336233,right,-0.0010395646095275879,0.18136565931928866,-0.2735365167595446,-9.641924717223644,0.09073725873028629,-0.017787732183933258,-0.009309399873018265,-1.7688553003892302,-0.004078611731529236
1746229306781010400,3.520010498046875,-0.028803045284188453,-0.06343727558851242,-0.013205002599811687,-0.04337456449866295,0.011161414172865772,0.9957128786830935,0.025041544036232245,right,0.003606438636779785,0.1816575918009915,-0.27777567043295126,-9.641286419320107,0.0908670133962664,0.029543109238147736,-0.00481187179684639,-1.7716710884623228,-0.006430685520172119
1746229306821010400,3.560010498046875,-0.028652010708188982,-0.028696253895759583,-0.01323015589634162,0.04138011112809181,0.010041590588196621,0.9957099200542479,0.022783877091475915,right,-0.00048166513442993164,0.18200840882119634,-0.2763016706239432,-9.640706573605536,0.0910259460809948,-0.0005904082208871841,-0.004310481250286102,-1.7750547395512462,-0.009454593062400818
1746229306861010400,3.600010498046875,-0.02847660184572691,0.042516738176345825,-0.013130182720195381,0.002257123589515686,0.010134706803858013,0.9956788905511119,0.02296540441988637,right,-0.0016080737113952637,0.1826970128882059,-0.27457572361417115,-9.639530515563488,0.09136906538851991,0.025046205148100853,-0.013083446770906448,-1.7816956388704477,-0.02438463270664215
1746229306901010200,3.64001025390625,-0.0299500694788068,0.11413831263780594,-0.013673800681777466,-0.002559465356171131,0.0119930768096518,0.995573282185671,0.026859895177236887,right,-0.00457155704498291,0.18432074402802315,-0.2886919455164112,-9.636211015751957,0.09221159858080594,0.040417663753032684,-0.0018936283886432648,-1.7973516192942858,-0.00989830493927002
1746229306941010400,3.680010498046875,-0.030898529236969393,0.1514216959476471,-0.013830602732971865,0.0887056216597557,0.015191584526804098,0.9954521990949731,0.0333992466796422,right,0.008736371994018555,0.18584200783440616,-0.2977465731801465,-9.633189037582278,0.0930202002448603,0.018219195306301117,0.013511626049876213,-1.8120153738103806,0.009067237377166748
1746229306981010400,3.720010498046875,-0.031880991385901565,0.11396679282188416,-0.014065603727342937,0.015657581388950348,0.017965917931584953,0.9954378020741805,0.03905011727204817,right,0.008909165859222412,0.18499027670423762,-0.30725974000003187,-9.634431146597862,0.09264384912828943,-0.015993472188711166,0.008999960497021675,-1.8038059100002048,0.008918017148971558
1746229307021010400,3.760010498046875,-0.03337818464598001,0.02661725878715515,-0.014682664003963083,-0.00029516778886318207,0.019464224973442638,0.9954651624917247,0.04217249865188338,right,0.007911443710327148,0.18352037874081392,-0.3217721398793161,-9.636599722808599,0.09194873893089721,-0.047686997801065445,0.011140892282128334,-1.7896351996980606,0.019017010927200317
1746229307061010400,3.800010498046875,-0.03316040479524084,-0.021407220512628555,-0.014591375696963275,0.031198972836136818,0.019619039472672708,0.9955779486134988,0.04241700938422649,right,0.004826784133911133,0.18101431271080978,-0.31982118847463276,-9.641121584147214,0.09070105667028454,-0.07337404787540436,0.006522521376609802,-1.765466096342355,0.017464056611061096
1746229307101010400,3.840010498046875,-0.031855829089459324,-0.026407627388834953,-0.013987432679854162,0.018614811822772026,0.019285435031033776,0.9956316745093524,0.04161348299085695,right,0.0051087141036987305,0.18019917121051512,-0.3072890756923705,-9.642965750709175,0.09027687410095021,0.014469332993030548,0.0005577206611633301,-1.757602377229929,0.005546241998672485
1746229307141010200,3.88001025390625,-0.03140451952042582,-0.0698283389210701,-0.013852194187351048,-0.010140456259250641,0.018220943582279304,0.995619722438799,0.0394480567942997,right,-0.006544530391693115,0.18098757128057585,-0.3028934710819274,-9.641715458387136,0.09065002318122299,0.006641264073550701,0.005867248401045799,-1.7652081760585308,0.014579817652702332
1746229307181010200,3.92001025390625,-0.031056644522586874,-0.041816405951976776,-0.013784852880110943,0.007354630157351494,0.01707639411988886,0.9956435836379367,0.037116917635841885,right,-0.0015743374824523926,0.1809685654968163,-0.29954037952804935,-9.641853990074992,0.09062138323554608,-0.004720479249954224,0.0002577267587184906,-1.7650247823156415,-0.0008168667554855347
1746229307221010400,3.960010498046875,-0.031064621985486356,0.000932835042476654,-0.0138263664058033,-0.04256318509578705,0.016696651353059592,0.9956629187731598,0.0363499212818289,right,-0.008437931537628174,0.18068236293018167,-0.29963297144863754,-9.642356094378233,0.09047368080137357,0.006019044667482376,-0.008844248950481415,-1.7622639393001793,-0.01360313594341278
1746229307261010400,4.000010498046875,-0.03229131918725486,0.006284186616539955,-0.014396212626084018,-0.05784635618329048,0.016930883309208857,0.9955881061054616,0.03695599449275051,right,-0.01052623987197876,0.18203378783716487,-0.3113838341927156,-9.639591890361904,0.09116099881175854,0.02051503211259842,-0.002988327294588089,-1.7752995080925522,0.0005122572183609009
1746229307301010400,4.040010498046875,-0.032750396254690464,0.005076662637293339,-0.014593604995225481,-0.0356549471616745,0.017206641435138142,0.9955632070642372,0.037558565326802046,right,-0.011705338954925537,0.18239693154165898,-0.31578798743579534,-9.638803370332717,0.09135003956848688,-0.03235089033842087,-0.002536918967962265,-1.778801817125082,0.000638231635093689
1746229307341010400,4.080010498046875,-0.033666287154299916,0.024918779730796814,-0.015020173793132743,-0.04453977942466736,0.01755523783192727,0.9955760465238387,0.0383321106958829,right,0.0006747245788574219,0.18181548868077085,-0.32465069099031385,-9.63954220600128,0.0910743084727492,0.008703716099262238,-0.004051081836223602,-1.7731940602459013,-0.013171941041946411
1746229307381010200,4.12001025390625,-0.03510017282590376,0.03029993176460266,-0.01565703714859388,-0.04182201623916626,0.018195930206130185,0.9955040532119885,0.03977097759143782,right,-0.0032064318656921387,0.1828781425750066,-0.33840602542459963,-9.637177814957498,0.0916270800425177,0.026990776881575584,-0.0013156123459339142,-1.7834423364073038,-0.0018230527639389038
1746229307421010200,4.16001025390625,-0.0357832697461582,0.021817058324813843,-0.015901874002995697,-0.0695607140660286,0.01910009377512434,0.9954468688385588,0.041665209300230446,right,-0.034838855266571045,0.18362719035941408,-0.3449411993470043,-9.635606620118022,0.09202120000670419,-0.03232689946889877,-0.0035498030483722687,-1.790664981137216,0.006257683038711548
1746229307461010400,4.200010498046875,-0.03660163560195714,0.04947781562805176,-0.01620756184059089,-0.027858536690473557,0.020118208855995696,0.9954049641109434,0.04379287930353903,right,-0.00996696949005127,0.18394390990232712,-0.35280575870964676,-9.634753802680969,0.09220392842431618,0.009553290903568268,-0.002332933247089386,-1.7937186696194112,-0.00422118604183197
1746229307501010400,4.240010498046875,-0.03657336317523964,0.06331851333379745,-0.016064221868748896,-0.004732079803943634,0.021384064863425752,0.9953369018253907,0.04635228165550858,right,-0.013798892498016357,0.18485386990427652,-0.35247353108059615,-9.63312883182764,0.09267712840881304,0.019483450800180435,-0.003704741597175598,-1.802491028009355,0.0020499378442764282
1746229307541010400,4.280010498046875,-0.037012819230637095,0.02505403384566307,-0.016187962733013844,0.00010640174150466919,0.022321780968376687,0.9952931291850908,0.04828605664228469,right,-0.001278698444366455,0.18526889766862356,-0.356679129544273,-9.632224576464294,0.09290404958846596,-0.0032196007668972015,-0.003279302269220352,-1.8064916419528423,-0.0019698143005371094
1746229307581010400,4.320010498046875,-0.03744071298805799,0.02934882417321205,-0.016318898802853494,-0.0189881082624197,0.023039913605491815,0.995230162841233,0.049788445366249816,right,0.0001004934310913086,0.18618958144147688,-0.3607382687419653,-9.6304049598217,0.09337923266359388,0.03262657672166824,-0.004438567906618118,-1.815365122629702,-0.0007949769496917725
1746229307621010200,4.36001025390625,-0.038123281370789186,0.008798658847808838,-0.016598603657363174,-0.010713729076087475,0.02349862647181221,0.9951684855977864,0.05079485897137681,right,-0.0036097168922424316,0.18714725177707084,-0.36724516641795635,-9.628414662787318,0.09387194778346891,0.01212351769208908,-0.003199193626642227,-1.8245935542240739,0.0030606091022491455
1746229307661010200,4.40001025390625,-0.038269903611241614,-0.012554341927170753,-0.016675713613858462,0.016486018896102905,0.023448081166000327,0.9951684049133724,0.05070705724804875,right,0.0017828941345214844,0.18714488734820936,-0.3686570425098762,-9.628365562948584,0.09387176198674717,-0.023410998284816742,0.00021098926663398743,-1.824570757870376,0.0028956085443496704
1746229307701010400,4.440010498046875,-0.03731395101148782,-0.03324779123067856,-0.016269232043711918,0.020881228148937225,0.023045562878379923,0.995274818933325,0.04976816992264737,right,-0.0006673336029052734,0.18524877178562574,-0.35958102499824013,-9.632153264793754,0.09290947502221505,-0.06657316535711288,-0.0003122277557849884,-1.8062975806854664,-0.0006178468465805054
1746229307741010400,4.480010498046875,-0.03641662659360861,-0.026303378865122795,-0.01592460809039086,0.003604445606470108,0.02234868695243821,0.9954087291003394,0.04823517476975372,right,-0.0017088055610656738,0.1828566456688902,-0.3510940228883177,-9.636762219893932,0.09169656382065353,-0.05564594268798828,-0.006085995584726334,-1.7832351233974097,-0.008017197251319885
1746229307781010400,4.520010498046875,-0.03639465679095762,-0.0076693762093782425,-0.015976380872757052,-0.004828279837965965,0.021938707045992576,0.9955012813792317,0.047372075973538305,right,-0.0018287897109985352,0.1810229062461412,-0.3510007185816765,-9.640021513950824,0.09077681018908401,-0.04833316057920456,-0.0027101896703243256,-1.7655490984506903,-0.0033912062644958496
1746229307821010400,4.560010498046875,-0.03635739903234009,0.00302999559789896,-0.015991117219817955,0.004832531325519085,0.02184520207217194,0.9955857640664784,0.04714374282551654,right,0.0005002021789550781,0.1791971042343688,-0.35075814199745653,-9.643239891475439,0.08986581402788281,-0.05483487620949745,-0.002276182174682617,-1.7479336545221507,-0.0006288886070251465
1746229307861010400,4.600010498046875,-0.03611025262504484,0.010523556731641293,-0.015882506657726544,0.012119177728891373,0.022003737415844136,0.9956757483866809,0.047398506334541964,right,-0.002275824546813965,0.17714479345079448,-0.3485036045363173,-9.64689139972031,0.088843541606692,-0.05355146899819374,-0.004773244261741638,-1.7281259612463413,-0.003958940505981445
1746229307901010200,4.64001025390625,-0.03619238687507656,-0.0010699275881052017,-0.015944991137377292,-0.004054611548781395,0.022021925239109848,0.9957513849582489,0.0474071425004132,right,-0.0021837949752807617,0.17540029790994405,-0.3494044988987967,-9.649860770919918,0.08797606966016432,-0.039634816348552704,0.0006989128887653351,-1.7112834013864398,0.0013644993305206299
1746229307941010400,4.680010498046875,-0.03657768790983374,-0.07593801617622375,-0.016214503762495315,-0.02456352859735489,0.021450913150632432,0.9958550453167322,0.04625010023456858,right,-0.015423178672790527,0.17322467057517257,-0.35325788639131933,-9.65342284731567,0.08688778691906668,-0.08613483607769012,0.010483775287866592,-1.6902711546264588,0.02219550311565399
1746229307981010400,4.720010498046875,-0.03787412083097011,-0.17305245995521545,-0.01714170439517517,-0.07513003796339035,0.018746326504058518,0.996079751107702,0.040843406444450524,right,-0.01381915807723999,0.16896132385529092,-0.3660421473037451,-9.660070030245185,0.08473279493494598,-0.1435927301645279,0.00949159637093544,-1.6490724444061517,0.022508785128593445
1746229308021010400,4.760010498046875,-0.03962257942920963,-0.253592848777771,-0.01845221897705369,-0.08472643047571182,0.014296246855800585,0.996425717490159,0.031909299753333634,right,-0.004585862159729004,0.1619664025624496,-0.38337935881279406,-9.670705406028032,0.08118356226525275,-0.20396094024181366,0.013199672102928162,-1.5814127205006778,0.021074295043945312
1746229308061010400,4.800010498046875,-0.04081704362681802,-0.38210970163345337,-0.01964445769525992,-0.10303430259227753,0.007665923659736475,0.9968702475074178,0.018492030534553817,right,-0.010310709476470947,0.15218719023443575,-0.39554256521742787,-9.685229605942965,0.0761892482797793,-0.2929943799972534,0.01246216706931591,-1.486692409581691,0.019939333200454712
1746229308101010400,4.840010498046875,-0.042024931720922656,-0.4529607594013214,-0.020931848756035404,-0.09841027855873108,-0.0010722357714907777,0.997336396777432,0.0007936967938684751,right,-0.0015367865562438965,0.13985337599772088,-0.4079803142471239,-9.702328040260076,0.06986260423692309,-0.3425513505935669,0.0029643885791301727,-1.3670270424984394,-0.0007736533880233765
1746229308141010200,4.88001025390625,-0.04363145089607824,-0.4060390591621399,-0.022331829855838075,-0.11978363245725632,-0.010187697971124602,0.9976658328067631,-0.017626821124860293,right,0.01840531826019287,0.12794802563323823,-0.4242466085890308,-9.717231594881415,0.0637208309053126,-0.258905827999115,-0.015541031956672668,-1.2513212266959248,-0.03352741897106171
1746229308181010200,4.92001025390625,-0.045523958427207425,-0.23454686999320984,-0.0236546651458675,-0.06719628721475601,-0.016898518193238534,0.9977754552952952,-0.031115453724366134,right,0.022031843662261963,0.1208098501910098,-0.44303098669908936,-9.725086984556913,0.05999182280610237,-0.1444481909275055,-0.02127283439040184,-1.1818605177830903,-0.03787528723478317
1746229308221010400,4.960010498046875,-0.04602923960911336,-0.05983513593673706,-0.0240626200263201,0.015133857727050781,-0.019948860360675363,0.9978124370627366,-0.037272517914566795,right,0.02006661891937256,0.11747987819628253,-0.4481234144672751,-9.728739077323674,0.05825232432909984,-0.08636808395385742,-0.01854740083217621,-1.1494361387141048,-0.02635912597179413
1746229308261010400,5.000010498046875,-0.04428734666229336,0.07928282022476196,-0.023163903791221362,0.09760864078998566,-0.01958821641552235,0.9978819106014812,-0.03668226142025818,right,0.017968416213989258,0.11601427165799019,-0.4312504594691097,-9.731177702647447,0.057545247103926396,-0.04370330646634102,-0.010658752173185349,-1.1351613104503602,-0.015311285853385925
1746229308301010400,5.040010498046875,-0.040646466539137054,0.12811239063739777,-0.021217638314899822,0.1264762431383133,-0.017306959409608837,0.997979272769845,-0.03233159558330694,right,0.0030249357223510742,0.11543447676565001,-0.3958442881103605,-9.733339264595507,0.05733779348684099,-0.022145502269268036,-0.0048625655472278595,-1.1295134407564997,-0.001421898603439331
1746229308341010400,5.080010498046875,-0.03730470868794278,0.11163458973169327,-0.019406024563939816,0.08589538931846619,-0.014741679594070533,0.9980632114300532,-0.027389384196903437,right,-0.010412395000457764,0.11507501194841506,-0.3633308059858158,-9.73501275076568,0.05723537770355798,-0.01843755878508091,-0.001978158950805664,-1.1260117162458598,0.010814592242240906
1746229308381010200,5.12001025390625,-0.035179668031289094,0.08264003694057465,-0.018236977214910258,0.06866919994354248,-0.012835937811384663,0.9981245583471844,-0.02370183629181017,right,-0.002393960952758789,0.1145234169736845,-0.34266448658667503,-9.736382285553216,0.05700944933431976,-0.0010480936616659164,-0.0011699646711349487,-1.1206379873182624,0.00787411630153656
1746229308421010200,5.16001025390625,-0.03329929358473397,0.07131394743919373,-0.017208540160650668,0.05482817068696022,-0.011216559179999154,0.9981636468337015,-0.020566542274142115,right,-0.003791511058807373,0.11439535299204745,-0.3243606220025569,-9.737152685403823,0.056984630432728486,0.01555541530251503,-0.0010227635502815247,-1.1193903253447264,0.00917872041463852
1746229308461010400,5.200010498046875,-0.03167828035546932,0.05596854165196419,-0.016323164932946062,0.04399121552705765,-0.009814354749331249,0.9981827930526231,-0.01784489706620571,right,-0.003495335578918457,0.11470097310493606,-0.30856530617326494,-9.737323365795612,0.05716850142167453,0.014645540155470371,-0.00024184584617614746,-1.1223678067855536,0.009877048432826996
1746229308501010400,5.240010498046875,-0.02994598238424035,0.0641690269112587,-0.015386091566114889,0.04822066053748131,-0.008462111793505157,0.9981876415297803,-0.015224221557714747,right,0.0005481839179992676,0.11542604678516354,-0.2916724591645412,-9.73702701319754,0.057559074159164426,0.03560229390859604,-0.0015146378427743912,-1.1294313154309987,0.008656203746795654
1746229308541010400,5.280010498046875,-0.027924507071997673,0.059465497732162476,-0.014298018794017472,0.07574130594730377,-0.006992821661387049,0.9981853788594995,-0.012383684547430877,right,0.004498839378356934,0.1164003721997263,-0.2719578509996645,-9.736492175668477,0.05807424819633765,0.02487015724182129,0.0028051938861608505,-1.1389221242886036,0.01547171175479889
1746229308581010400,5.320010498046875,-0.025048655843071428,0.035958219319581985,-0.01280936315832403,0.0779990404844284,-0.0059761499635281505,0.9981959001609783,-0.010507727541537434,right,-0.0008102655410766602,0.11691518458740682,-0.24394135150080545,-9.736646489447354,0.05835322996224525,0.018504846841096878,0.0008457191288471222,-1.1439363722540437,0.008714184165000916
1746229308621010200,5.36001025390625,-0.022316477642946485,0.008281402289867401,-0.0114199584369431,0.06936784833669662,-0.005441986741262025,0.998201659733097,-0.00959223061269073,right,-0.0013217926025390625,0.11737366407865842,-0.21732648069448768,-9.736751118865609,0.05859540142616962,0.01610763929784298,0.0022231321781873703,-1.148401681099832,0.008900173008441925
1746229308661010200,5.40001025390625,-0.01990607747063578,-0.024386335164308548,-0.010224966853895569,0.05334562435746193,-0.005496201663054488,0.9982027811142844,-0.009838648982269067,right,-0.004344582557678223,0.11775701405550705,-0.19384764289157463,-9.73680606392324,0.058791989697010605,0.015695640817284584,0.0040487125515937805,-1.1521351685397325,0.007539026439189911
1746229308701010400,5.440010498046875,-0.017686995971912912,-0.052064813673496246,-0.009171928515935826,0.036371275782585144,-0.00633711519782708,0.9981941189058811,-0.011650142456430371,right,-0.009012460708618164,0.11823384503258488,-0.17223067170409484,-9.736661687016486,0.05902775733706578,0.012549927458167076,0.0009986907243728638,-1.1567787565618752,0.00020232796669006348
1746229308741010400,5.480010498046875,-0.016665237991167266,-0.054483942687511444,-0.00874108255339492,-0.000073261559009552,-0.007577716915504954,0.9981512928968238,-0.014185994318089328,right,0.000011146068572998047,0.1195311653085347,-0.1622569199014455,-9.735324300932884,0.05966743567241527,0.055045224726200104,-0.001362597569823265,-1.1694112975113093,-0.0051875039935112
1746229308781010400,5.520010498046875,-0.017055550167530655,-0.03206406161189079,-0.008996940814432036,-0.023968249559402466,-0.008482817990117677,0.998076161420887,-0.01595854590924988,right,-0.0021904706954956055,0.1217287213631235,-0.16601249130899084,-9.732667064422369,0.06075472139237487,0.06841138005256653,0.0007216371595859528,-1.190805383195728,-0.006592966616153717
1746229308821010400,5.560010498046875,-0.018074489083042704,-0.0119544118642807,-0.009533790843008625,-0.012601829133927822,-0.008856959063324853,0.9980049203865297,-0.016628616398204454,right,0.00201570987701416,0.12379687095307865,-0.1758845180365257,-9.730009827911854,0.06177926495931435,0.04050475358963013,0.004902642220258713,-1.2109343443151563,-0.0008186027407646179
1746229308861010400,5.600010498046875,-0.01873107139258976,0.00651022233068943,-0.009867286117139154,-0.019645052030682564,-0.00888120258647454,0.9979529117152413,-0.016622692804216143,right,-0.0035047531127929688,0.12536389821247365,-0.18223726633042095,-9.72798270599842,0.062558321079186,0.030795501545071602,0.0030560102313756943,-1.2261825476557016,-0.00032304227352142334
1746229308901010200,5.64001025390625,-0.019749744985996753,0.008367840200662613,-0.01037176821611848,-0.029152095317840576,-0.008780746079716876,0.997908306471869,-0.016345434403410797,right,-0.0005492568016052246,0.1266542599711854,-0.1921153940051794,-9.726202252322436,0.06319907870586365,0.03149738535284996,0.004392535425722599,-1.2387363242805003,0.002377822995185852
1746229308941010400,5.680010498046875,-0.021078700737292323,0.0027144746854901314,-0.011029163557040382,-0.03601350635290146,-0.008682002884135544,0.9978719907211601,-0.016053734876923204,right,0.0005140900611877441,0.1276153159339408,-0.20501573731163517,-9.724743285685777,0.06367435158924567,0.015833023935556412,0.004873430356383324,-1.2480850212536752,0.0033496320247650146
1746229308981010400,5.720010498046875,-0.02227800347025612,-0.019593335688114166,-0.011640531877247237,-0.03233933076262474,-0.008911546378519658,0.9978561471189372,-0.016434832837947073,right,0.0026979446411132812,0.12784579509739158,-0.2166720901726745,-9.724202602937817,0.06378191189046345,0.0006894832476973534,0.002469591796398163,-1.2503268088310957,0.0023732036352157593
1746229309021010400,5.760010498046875,-0.023332515132677846,-0.03666505217552185,-0.012203156171562165,-0.028232136741280556,-0.009517234721100694,0.9978451121834112,-0.017581605521240183,right,0.001312851905822754,0.12782922979880973,-0.2269267230096273,-9.72398983696997,0.06376195248543733,0.000727364735212177,0.0019631460309028625,-1.2501656269200145,-0.00017505884170532227
1746229309061010400,5.800010498046875,-0.024304947884031983,-0.03646747022867203,-0.012735363828515358,-0.03548355773091316,-0.010294310759005483,0.9978366045003693,-0.01907880045988927,right,-0.00023323297500610352,0.12767251919589423,-0.23638730112574993,-9.723960026353597,0.0636696169222913,-0.003217328805476427,-0.0020036324858665466,-1.2486413399621843,-0.004211843013763428
1746229309101010400,5.840010498046875,-0.025556559596567736,-0.03238672763109207,-0.013407893460691867,-0.03719567507505417,-0.01107915225392103,0.9978163655332986,-0.020570505770244215,right,-0.0007541775703430176,0.12779954951446507,-0.24855368586815893,-9.723498254060745,0.06371655942571472,0.003675966989248991,-0.0017478913068771362,-1.2498770192369817,-0.0027997493743896484
1746229309141010200,5.88001025390625,-0.02661009784832993,-0.019066646695137024,-0.013971423278257436,-0.02696017548441887,-0.011724722838584932,0.9978102359384488,-0.021800389317167358,right,-0.0009417533874511719,0.12754780249290176,-0.258805980617553,-9.72354501581192,0.06357653138305906,-0.01660081185400486,-0.0022095683962106705,-1.2474283109106123,-0.0006227940320968628
1746229309181010200,5.92001025390625,-0.02720950678996874,-0.01800340786576271,-0.014291281995022427,-0.007274683564901352,-0.012175706509311992,0.997844931890097,-0.0226840877592023,right,-0.0030303001403808594,0.12615580374662985,-0.2646813023917377,-9.725114457085729,0.0628722052471666,-0.05640586465597153,-0.0017360150814056396,-1.2338871306836605,0.0031567513942718506
1746229309221010400,5.960010498046875,-0.027243708381081644,-0.025629539042711258,-0.01432464494845745,-0.0006560692563652992,-0.012632773562999855,0.9979155813298444,-0.023629664421652888,right,0.005067586898803711,0.12370156516532525,-0.26509561881367116,-9.728103117507695,0.061640687321792044,-0.05893777310848236,0.0014002472162246704,-1.2100068542066962,0.0041341111063957214
1746229309261010400,6.000010498046875,-0.026867926890693544,-0.023577969521284103,-0.014163089477937417,0.0019027721136808395,-0.013226967413199483,0.9979754653947143,-0.024870655968385294,right,0.00004690885543823242,0.12157811651494366,-0.26150838971035556,-9.730748663580417,0.060574713517880484,-0.05117635428905487,0.00027555227279663086,-1.1893393292311578,0.003284633159637451
1746229309301010400,6.040010498046875,-0.02686601351194522,-0.03453362360596657,-0.014188646586194219,-0.0015888663474470377,-0.013840497557822457,0.9980235592023776,-0.02612400175837146,right,0.004325151443481445,0.1197058197976325,-0.2615491235795431,-9.732958156323432,0.05963154903173568,-0.039622966200113297,-0.0003416817635297775,-1.17111181781888,0.004733547568321228
1746229309341010400,6.080010498046875,-0.026918588631348963,-0.0259378794580698,-0.014237579878352303,-0.009032919071614742,-0.014367635674469921,0.9980587921954582,-0.02719555111207452,right,0.003316164016723633,0.11825742404374887,-0.26210622773934156,-9.734629888927936,0.05890076924699175,-0.018015911802649498,0.0006879940629005432,-1.1570083275340497,0.0001845434308052063
1746229309381010200,6.12001025390625,-0.027387333065726847,-0.010482792742550373,-0.014485378987441752,-0.01246075239032507,-0.014668273663373966,0.9980658507472782,-0.0277767109610909,right,0.0017933249473571777,0.11776235743759798,-0.2666848972991109,-9.735077048173546,0.05864613416390206,-0.003782433457672596,0.002113375812768936,-1.1521871909879147,0.0006875172257423401
1746229309421010200,6.16001025390625,-0.027789177691070564,-0.0027197469025850296,-0.014691143283844469,-0.006930927280336618,-0.014779651095471687,0.998064449547771,-0.027977597851966754,right,-0.0014380216598510742,0.11766216652567328,-0.27060007971515876,-9.735084646958112,0.05859170773414832,-0.008302625268697739,0.002546330913901329,-1.1512114047583193,0.001760922372341156
1746229309461010400,6.200010498046875,-0.027945283595228403,0.0019183256663382053,-0.01476477935113895,-0.008329007774591446,-0.014779831250624495,0.9980823578256772,-0.027977315210918004,right,-0.002677619457244873,0.11701433170658666,-0.2721405506228097,-9.735785488703847,0.05826725522751721,-0.020312035456299782,0.0013052523136138916,-1.144902002415806,-0.0015070661902427673
1746229309501010400,6.240010498046875,-0.0284526391532468,0.011715201660990715,-0.015009213875998025,-0.016622278839349747,-0.014735022834252985,0.9981044886912867,-0.02786942054740575,right,-0.0012725591659545898,0.11615616812781585,-0.2771078724402934,-9.736624862137436,0.05783603917381212,-0.023423079401254654,-0.0019879601895809174,-1.1365434855237602,-0.005038231611251831
1746229309541010400,6.280010498046875,-0.02915985075123581,0.017081737518310547,-0.015342813993080337,-0.013065876439213753,-0.01451893721547563,0.9981296232251532,-0.027408341589989563,right,0.002433955669403076,0.11522109327627021,-0.2840245199609548,-9.737484693837166,0.05736769710262837,-0.02650902420282364,-0.004038065671920776,-1.127434807851538,-0.006177082657814026
1746229309581010400,6.320010498046875,-0.029690380073276117,0.024688879027962685,-0.015582639259954734,-0.007225079461932182,-0.014166821586066589,0.9981495909022079,-0.0266815519409487,right,0.005154728889465332,0.11456367245747089,-0.28921244399286805,-9.73807096929252,0.05704140946257465,-0.008653746917843819,-0.0069850292056798935,-1.121030201506242,-0.009152397513389587
1746229309621010200,6.36001025390625,-0.030076847742698306,0.03101418912410736,-0.015742556059962574,-0.004119852092117071,-0.013591048933932882,0.9981517433032541,-0.02550429814260324,right,0.001240551471710205,0.1146678250200007,-0.292972362781968,-9.737841836711764,0.057099928062936886,0.003523685038089752,-0.005836350843310356,-1.1220448584415017,-0.005871899425983429
1746229309661010200,6.40001025390625,-0.030380261343903182,0.01702086627483368,-0.01586391465008457,-0.0019207140430808067,-0.013065188095693075,0.9981537110892231,-0.02443186194173256,right,-0.003257930278778076,0.11476530522501939,-0.29592361380299553,-9.73764309926927,0.057155030004362235,-0.010646212846040726,-0.004308504983782768,-1.1229945603817701,0.0002679005265235901
1746229309701010400,6.440010498046875,-0.030710236064340837,0.005038261413574219,-0.01601475107609898,-0.002317010425031185,-0.012865722354743819,0.9981642991647535,-0.024018681084823513,right,0.00023895502090454102,0.1143982914199117,-0.29914940744908525,-9.737956403002142,0.05697301080879903,-0.011513401754200459,-0.002704871818423271,-1.1194189669173211,0.00019232183694839478
1746229309741010400,6.480010498046875,-0.030892756284902855,-0.0005122590810060501,-0.01609905017616816,0.0019449423998594284,-0.012794806936679804,0.9981774978803541,-0.023873267123458126,right,0.00009709596633911133,0.11391771151597745,-0.3009433599274605,-9.738438049039244,0.056733152884638496,-0.01219185721129179,-0.0026534385979175568,-1.114736800450459,0.004961319267749786
1746229309781010400,6.520010498046875,-0.030811216825773098,-0.004545713774859905,-0.016059153767896087,0.004091467708349228,-0.01283955628669079,0.9981879798253571,-0.023972950009921352,right,0.0037184953689575195,0.11355198535561482,-0.3001618358946405,-9.738869426193833,0.05655033714490289,-0.0000028489157557487488,-0.0032749995589256287,-1.1111734088804572,0.004734732210636139
1746229309821010400,6.560010498046875,-0.030537437764900505,-0.009474894031882286,-0.01593346751975848,0.012464710511267185,-0.0129806902651293,0.9981744957591725,-0.024264184546273902,right,0.004051268100738525,0.11403599886999263,-0.29747906308406963,-9.738412914597987,0.056791346201821524,0.02996821328997612,-0.0027766432613134384,-1.1158892584212123,0.005798153579235077
1746229309861010400,6.600010498046875,-0.030654179518453225,-0.019575241953134537,-0.01601037372952433,-0.006501085124909878,-0.013207391633011017,0.9981386471508675,-0.02469543741847797,right,0.003237903118133545,0.11515353144929236,-0.29857754411157217,-9.737125212875007,0.05734488598167887,0.034404389560222626,-0.0024214480072259903,-1.1267766362037508,0.007159985601902008
1746229309901010200,6.64001025390625,-0.030857543781091016,-0.00939074158668518,-0.016134166847640005,0.0012978576123714447,-0.013499191649898889,0.9981019985138516,-0.025252561450712394,right,0.0009704232215881348,0.11623417764969639,-0.30051996514992785,-9.735841602805257,0.05787836818433894,0.024434996768832207,-0.0047175083309412,-1.1373032909151166,0.0023658201098442078
1746229309941010400,6.680010498046875,-0.0303753881523076,0.005609861575067043,-0.01591351770783484,0.011326675303280354,-0.013727713621411472,0.9980715463710891,-0.025723081093598468,right,0.0033212900161743164,0.1172976201896531,-0.2957888449748047,-9.73477075870335,0.058408595765210146,0.04723576456308365,-0.012213071808218956,-1.1476610918655992,-0.008868955075740814
1746229309981010400,6.720010498046875,-0.03011209330580683,0.010716868564486504,-0.015785467977127623,0.0078065902926027775,-0.013515564263725171,0.9979930042135313,-0.02527312591015428,right,0.0013563036918640137,0.1201109284945991,-0.2931273524142802,-9.731582776317,0.05981787337271499,0.09045903384685516,-0.0021918602287769318,-1.175056098465249,0.004619218409061432
1746229310021010400,6.760010498046875,-0.030145898208873718,-0.010312709957361221,-0.015813837595750013,0.008656867779791355,-0.01342584794444424,0.9978978539150397,-0.025046105723605865,right,-0.006842672824859619,0.1232692292176007,-0.2933430044589564,-9.72781494821608,0.061395388283157305,0.06507435441017151,0.006493270397186279,-1.2057993925794959,0.014546960592269897
1746229310061010400,6.800010498046875,-0.029956846315514006,-0.05142740160226822,-0.01576430084136239,-0.013512368313968182,-0.014009145094458844,0.9978442812138502,-0.0262053176512845,right,-0.009739458560943604,0.12478514231561805,-0.291448843009118,-9.726032156452536,0.062143894992032794,0.020005475729703903,0.006491478532552719,-1.2205511907052249,0.015000402927398682
1746229310101010400,6.840010498046875,-0.030112863105552595,-0.10105663537979126,-0.01593717160078706,-0.01352602243423462,-0.015573089708957485,0.9978298593826487,-0.029334803537336505,right,-0.0008789300918579102,0.124465733555891,-0.2929779888051562,-9.726375270801782,0.0619585766694302,-0.014875181019306183,0.005557741969823837,-1.2174431416872888,0.007691480219364166
1746229310141010200,6.88001025390625,-0.02987861745004272,-0.11828599125146866,-0.015956783176857395,-0.022495821118354797,-0.0178846850656388,0.9978233348446822,-0.033996339276847816,right,-0.0031580328941345215,0.1234815731254781,-0.290735269645974,-9.727636669039725,0.06143234091166298,-0.009627042338252068,-0.0020342953503131866,-1.2078658966552465,-0.005121536552906036
1746229310181010200,6.92001025390625,-0.029691127749695522,-0.10650143772363663,-0.016007671896190383,-0.008002371527254581,-0.020229245917357298,0.9977807575777113,-0.03870769231714868,right,0.006391704082489014,0.12345492825431521,-0.2889124016003683,-9.7277231782794,0.06138318533694359,0.006161492317914963,0.0006107240915298462,-1.2076066611971705,-0.004203133285045624
1746229310221010400,6.960010498046875,-0.028755520286781352,-0.08420035988092422,-0.015666562864912855,0.018150601536035538,-0.022180884704329804,0.9977339728968416,-0.042672153236146204,right,0.004654824733734131,0.12384647118594404,-0.27979731245366857,-9.727515673008561,0.06155705277174242,0.007146827876567841,0.001469416543841362,-1.211417013265565,-0.006122872233390808
1746229310261010400,7.000010498046875,-0.027661978583461595,-0.06499573588371277,-0.01522142179043072,0.022852452471852303,-0.0236930735252629,0.9976922449319506,-0.04576503236491782,right,0.006158709526062012,0.12431959489959939,-0.2691438347585499,-9.727242116764188,0.061781738967965155,0.007312912959605455,0.002230832353234291,-1.2160211460601538,-0.008951708674430847
1746229310301010400,7.040010498046875,-0.0266696915983064,-0.05416783690452576,-0.014801470131204,0.02140512317419052,-0.024775975309795997,0.9976557043460824,-0.04799087156859481,right,-0.0023908615112304688,0.12486354931601454,-0.2594737968765199,-9.726841719269752,0.06204841205151511,-0.002417138312011957,0.006035465747117996,-1.2213141379017383,-0.0004221498966217041
1746229310341010400,7.080010498046875,-0.026796977822974192,-0.046840738505125046,-0.014923175049156146,-0.029984261840581894,-0.02568339107667603,0.997626456977154,-0.04980000976423492,right,-0.0003129243850708008,0.12503773856419076,-0.26070618821568786,-9.726595635554194,0.0621202560653645,0.00112127885222435,-0.001843579113483429,-1.2230090321861207,-0.008224502205848694
1746229310381010200,7.12001025390625,-0.028722532161168608,-0.03821943700313568,-0.015938240553469752,-0.06904067099094391,-0.02653954931988875,0.9975776683898019,-0.051391223152928475,right,-0.006760001182556152,0.1254566478565487,-0.27942004010649396,-9.725562785375118,0.062291800329981134,-0.006678382400423288,-0.0025389064103364944,-1.2270849033229052,-0.001154676079750061
1746229310421010200,7.16001025390625,-0.030621454708287962,-0.024904005229473114,-0.016927563365610472,-0.04850097373127937,-0.027401634290880144,0.9975604725103644,-0.05300987428471118,right,0.0004836916923522949,0.12481163207350206,-0.29791179194552825,-9.725803608393669,0.06193115633616522,-0.008562669157981873,-0.010465659201145172,-1.2208089648585765,-0.00848688930273056
1746229310461010400,7.200010498046875,-0.03282692843890665,0.0649387389421463,-0.01799966993752468,-0.0487772561609745,-0.026825695013422128,0.9975271317752087,-0.05170333233196847,right,0.001737356185913086,0.1258220608117642,-0.3193203993456438,-9.723885207551717,0.06241666352109383,0.050952181220054626,-0.0100473053753376,-1.230640257716924,-0.0075247883796691895
1746229310501010400,7.240010498046875,-0.03514205528253226,0.0787782073020935,-0.019072696441928865,-0.03771586716175079,-0.02522829485407336,0.9974835785590083,-0.048322559361392264,right,0.0010317564010620117,0.12789400924532315,-0.34174123426191505,-9.720550510171055,0.0634513168978391,0.04414483532309532,0.0008844621479511261,-1.2507957415170967,0.009254194796085358
1746229310541010400,7.280010498046875,-0.03583496314492673,0.06959977000951767,-0.01931792965153338,0.04137377440929413,-0.023571271842395998,0.9974976087160923,-0.044945593106353425,right,0.0036980509757995605,0.1285336377799888,-0.3484478557610884,-9.719510061207414,0.06379429755802131,-0.020085390657186508,0.0035853199660778046,-1.2570169541195033,0.012662164866924286
1746229310581010400,7.320010498046875,-0.03436526548008438,0.04434432089328766,-0.018485378261964894,0.01704685017466545,-0.022145108456634224,0.9975812154873844,-0.04219906779279365,right,-0.006735265254974365,0.1273420655144531,-0.3342139805622399,-9.721501527285575,0.0632427003895367,-0.02422960102558136,-0.0012250058352947235,-1.245427054090798,-0.0007156133651733398
1746229310621010200,7.36001025390625,-0.03475253632895806,-0.005170866847038269,-0.018636252310115627,-0.01414235308766365,-0.021599245560584165,0.9976136795919041,-0.04109223127435686,right,-0.0005514621734619141,0.1265901349295631,-0.3380112539533526,-9.722304660362004,0.06287365933954815,-0.009002313017845154,0.00829058513045311,-1.2381124932937324,0.006600327789783478
1746229310661010200,7.40001025390625,-0.035716354221239324,-0.04239089787006378,-0.01913765546320667,-0.031120508909225464,-0.022173274891995446,0.9976379807691645,-0.04220613575933457,right,0.00013452768325805664,0.12514916634295462,-0.34744496232885863,-9.723747260385752,0.062133783944760046,-0.045974358916282654,0.006436171010136604,-1.2240932472262531,0.0027882754802703857
1746229310701010400,7.440010498046875,-0.03719891949940927,-0.039488233625888824,-0.019916472765676645,-0.06028059870004654,-0.023016765892818165,0.9976382714112335,-0.043823006139449526,right,0.00040847063064575195,0.12409433468415272,-0.36190851809773594,-9.724506554320454,0.061575052452394634,-0.019951095804572105,0.005174979567527771,-1.2138291159085928,0.0028575658798217773
1746229310741010400,7.480010498046875,-0.03820688294557264,-0.04005981609225273,-0.020449546700936152,-0.015975959599018097,-0.023746379006808753,0.9976505898393206,-0.04524586444218077,right,0.002350032329559326,0.12283149884930582,-0.37176852559391405,-9.725660985052585,0.060918950992684046,-0.05493750423192978,0.0027733296155929565,-1.2015391778517515,0.0057541728019714355
1746229310781010400,7.520010498046875,-0.03802354587555021,-0.01043703593313694,-0.020366971978421095,0.0004140622913837433,-0.024214530852668326,0.9976996158139511,-0.04622944848428638,right,0.0025959014892578125,0.1209070663838703,-0.3700726449288428,-9.72802128444314,0.05995108448376605,-0.038279131054878235,-0.0026656687259674072,-1.1828069317877292,-0.0024663135409355164
1746229310821010400,7.560010498046875,-0.03758608469463984,0.02338043414056301,-0.02012954397656219,0.01873898133635521,-0.024094438124931065,0.9977435437471285,-0.04603638012620589,right,0.005651235580444336,0.1196789279003999,-0.3658712842488661,-9.729626381552219,0.05934561972827892,-0.00929311104118824,-0.004809275269508362,-1.1708500250775367,-0.006174437701702118
1746229310861010400,7.600010498046875,-0.03697356695500401,0.03577481955289841,-0.019792402331414664,0.027631115168333054,-0.023481269669035406,0.9977525720024277,-0.04483724467056851,right,0.0027090907096862793,0.12005680090279397,-0.3598952785791829,-9.729406016799807,0.05955339098299901,0.02532334066927433,-0.0001306682825088501,-1.1745290789164602,-0.00012795627117156982
1746229310901010200,7.64001025390625,-0.03621147726746512,0.035822778940200806,-0.019378213796089477,0.024665452539920807,-0.02269513958204491,0.9977419006674221,-0.0432870105337845,right,-0.002642691135406494,0.12124413168282341,-0.35242976500410583,-9.728276720508932,0.060169727454474145,0.04050587862730026,0.0016603358089923859,-1.186088218480721,0.0022688135504722595
1746229310941010400,7.680010498046875,-0.03606167293865354,0.03309624642133713,-0.019268671270795415,0.005595602095127106,-0.02188376219341484,0.9977161851644105,-0.041644756777151744,right,-0.0035257339477539062,0.12272851788857266,-0.3509085467861965,-9.726559395197034,0.06092780401961667,0.03212936595082283,0.004293188452720642,-1.2005368689414113,0.005608253180980682
1746229310981010400,7.720010498046875,-0.036214626641050456,0.011977387592196465,-0.019322937941680326,-0.014926908537745476,-0.021461915128810325,0.9977104459036935,-0.040782368384114975,right,-0.0029195547103881836,0.12316908800253144,-0.3523770849687978,-9.725976042351126,0.06115425813694075,0.010965956375002861,0.003049161285161972,-1.2048247753936796,0.003135576844215393
1746229311021010400,7.760010498046875,-0.0369160672194673,0.005091216880828142,-0.019661866096424903,-0.0240471288561821,-0.021342003346151633,0.9977145914125862,-0.04050344126997931,right,-0.0015816092491149902,0.12291120048559011,-0.35921065731588747,-9.726036832627653,0.06102081433295186,-0.013158073648810387,0.0005157105624675751,-1.2023149114646017,0.003198690712451935
1746229311061010400,7.800010498046875,-0.03764462222154756,-0.004243199247866869,-0.020015647104563487,-0.02251548320055008,-0.021376679717786975,0.9977424436139829,-0.04054875281234027,right,-0.0025203824043273926,0.12175346010429619,-0.36634865596964955,-9.727156776568293,0.060435003699115204,-0.030702507123351097,-0.0031747855246067047,-1.1910462062142788,-0.0007007569074630737
1746229311101010400,7.840010498046875,-0.0385492837686435,0.007079474162310362,-0.020459590062218792,-0.016170043498277664,-0.02140497142639233,0.9977582788719005,-0.04056556959895807,right,0.00729900598526001,0.1209278594981452,-0.375186042419821,-9.727800919690727,0.0600132673426162,-0.002373410388827324,-0.005630355328321457,-1.1830093224920333,-0.003477253019809723
1746229311141010200,7.88001025390625,-0.03919101964115546,0.022206474095582962,-0.020761063297291445,-0.002956341952085495,-0.021095557565065697,0.997754872780685,-0.03990447047598291,right,0.0020245909690856934,0.12105183283597468,-0.3814228909827769,-9.727411628112197,0.06007511486842566,0.007323204539716244,-0.004490796476602554,-1.1842162140637635,-0.000847354531288147
1746229311181010200,7.92001025390625,-0.039352293672500406,0.013595209456980228,-0.020819674147583005,0.011365172453224659,-0.020694471950749332,0.9977525339492292,-0.03908520139075298,right,0.002223193645477295,0.12135376954736994,-0.38297757307887076,-9.7269919413954,0.06023258416448199,0.006987492088228464,-0.0031135492026805878,-1.1871554823860526,0.0005202963948249817
1746229311221010400,7.960010498046875,-0.0388828947401026,0.011521654203534126,-0.02056980705406454,-0.011514433659613132,-0.020423976252337932,0.9977634649290895,-0.03857180018828112,right,-0.010664522647857666,0.12132826522582527,-0.37841289551183577,-9.727201200231908,0.06022999649100437,-0.009295579046010971,-0.006641268730163574,-1.186907206713408,-0.0007019266486167908
1746229311261010400,8.000010498046874,-0.03932803345022422,0.008892110548913479,-0.02077862795110817,0.01011261809617281,-0.020218910215154467,0.9977635106921101,-0.03813401685200353,right,0.016710340976715088,0.12132068599286451,-0.38274314326848835,-9.727040456712245,0.06022621956569218,0.0018578395247459412,0.004710644483566284,-1.1868334108248353,0.0030221715569496155
1746229311301010400,8.040010498046875,-0.03817009424967552,-0.01890166848897934,-0.020209639334577957,0.05376110225915909,-0.02029202021756325,0.9977653933447793,-0.03834585857752436,right,0.008548200130462646,0.12157765014077371,-0.3714679352121427,-9.727171974137425,0.06036397650500352,0.007491821888834238,0.008459974080324173,-1.1893347991865129,0.0047041550278663635
1746229311341010400,8.080010498046875,-0.03620944629206024,-0.024567892774939537,-0.01926550063723282,0.030386202037334442,-0.02076604917846893,0.9977677592312084,-0.039411312224184834,right,-0.013597488403320312,0.12177580235116456,-0.3523871314387768,-9.72764602138996,0.06047244548326383,0.0023338794708251953,0.002979736775159836,-1.1912636483572423,-0.001650981605052948
1746229311381010200,8.12001025390625,-0.035630803242950024,-0.03443475067615509,-0.019014436065267114,-0.009411018341779709,-0.021406860592522513,0.997767017793222,-0.040735032113206275,right,-0.01866239309310913,0.12152512954517761,-0.3467688531655818,-9.728146372127533,0.06034081521396944,-0.010650239884853363,-0.0020232610404491425,-1.1888235617287457,-0.0013122037053108215
1746229311421010200,8.16001025390625,-0.036325978600667684,-0.03332134708762169,-0.019394126215892253,-0.03484686091542244,-0.0221163898517139,0.9977733438337206,-0.04213088509208676,right,-0.01317209005355835,0.12059925066836331,-0.35357137278728185,-9.728998605042696,0.059857918445732065,-0.03047369420528412,-0.008235704153776169,-1.1798102341897785,0.000429004430770874
1746229311461010400,8.200010498046876,-0.03760833828775407,-0.014566514641046524,-0.02005176517282602,-0.036132004112005234,-0.0226739812638093,0.9977899906891687,-0.043195595433754196,right,0.007915794849395752,0.1192319879944924,-0.3661074676249176,-9.730140176293252,0.059150912272381916,-0.021368496119976044,-0.01378437876701355,-1.16649825960882,-0.004165925085544586
1746229311501010400,8.240010498046875,-0.03839458407759798,0.01706520840525627,-0.02044099593417516,0.007964197546243668,-0.022614864400784796,0.9977781723561554,-0.04302703220909337,right,0.02648824453353882,0.11942519894899066,-0.3737489588214084,-9.72962404346466,0.05924011101339175,0.03160789981484413,-0.00967220589518547,-1.1683795433107762,-0.001796521246433258
1746229311541010400,8.280010498046876,-0.03758453647863433,0.020684797316789627,-0.02002090251849903,0.03451430797576904,-0.022071370472047977,0.9977504068066549,-0.04195793216679576,right,0.01580345630645752,0.12101123923541351,-0.36579730569720265,-9.728059862887859,0.06005125862323447,0.04779930040240288,-0.006645098328590393,-1.1838210042010993,0.0005036070942878723
1746229311581010400,8.320010498046875,-0.036110841499109536,0.02661897987127304,-0.019275466782500587,0.05410245060920715,-0.021496509679132393,0.997703946089085,-0.04085441815715219,right,0.00370633602142334,0.12338702538221835,-0.3513581902498379,-9.725749832379817,0.06126339993266554,0.05479797348380089,-0.0043611302971839905,-1.2069457861356436,-0.0037389323115348816
1746229311621010200,8.36001025390625,-0.034660847086366756,0.023711098358035088,-0.018530767521655642,0.03793061897158623,-0.020862965963175287,0.997678231731004,-0.03964654636156328,right,-0.011908411979675293,0.1250603797494557,-0.3371850687948987,-9.724217215985059,0.0621249538767906,0.025803783908486366,-0.0015850737690925598,-1.2232293238732963,-0.0035884156823158264
1746229311661010200,8.40001025390625,-0.03347839053231502,0.011259287595748901,-0.017921513472412,0.0305788591504097,-0.02045784650236022,0.9976838676317292,-0.03890173765964126,right,-0.00984179973602295,0.12546842952275838,-0.3256696222418919,-9.724109663957357,0.06234751671459553,-0.00862925685942173,0.004332434386014938,-1.2271996157437561,-0.0006701946258544922
1746229311701010400,8.440010498046876,-0.0326974365416252,0.0019456716254353523,-0.017514303678711412,0.016584498807787895,-0.020293788281850644,0.9977257478538469,-0.03863724360450737,right,-0.0028274059295654297,0.1244398369246543,-0.3181165399812162,-9.725617145910858,0.06184467950296952,-0.04554250091314316,0.00574246421456337,-1.217191212752834,0.003159455955028534
1746229311741010400,8.480010498046875,-0.03207175638301307,0.005824047140777111,-0.01718304761466539,0.01573493331670761,-0.020200782232000922,0.9977846179339892,-0.038514571750593564,right,0.004820823669433594,0.12275737456744448,-0.31209658557195213,-9.727847681441903,0.06101270244899013,-0.03323644399642944,0.005758496001362801,-1.2008177317094058,0.0015819743275642395
1746229311781010400,8.520010498046876,-0.03145536756954073,0.017274174839258194,-0.016849218902438123,0.00774055439978838,-0.019874158699286874,0.9978228721766423,-0.03791036211896428,right,-0.0026797056198120117,0.12187948577895999,-0.306133421117533,-9.729088036891817,0.060586021694621815,-0.015384601429104805,0.0050377752631902695,-1.1922728984650224,0.004937842488288879
1746229311821010400,8.560010498046875,-0.03129506527905534,0.0281391479074955,-0.016733656000104114,-0.0001926729455590248,-0.019353056210759598,0.9978499150160928,-0.03688305212775625,right,-0.005665183067321777,0.12136810942713294,-0.3045928588783368,-9.729745039495825,0.060341073894311245,-0.009010184556245804,0.0026281625032424927,-1.1872950369872153,0.0018213391304016113
1746229311861010400,8.600010498046874,-0.031096222030084046,0.03147056698799133,-0.016593910409328227,0.007886658422648907,-0.01872785195979847,0.9978750998190238,-0.03564758006740854,right,-0.005541086196899414,0.12098128409003318,-0.3026724304760806,-9.730263510411977,0.06016025464582304,-0.012780468910932541,0.00036047957837581635,-1.1835294008433819,0.0013661757111549377
1746229311901010200,8.64001025390625,-0.030823883944112226,0.024700593203306198,-0.016416896245803093,0.009009281173348427,-0.0181395943315633,0.9979121279135533,-0.03449646828611918,right,-0.0027764439582824707,0.12018247974113513,-0.30005152565427123,-9.731287592762708,0.059773690360345785,-0.018625274300575256,0.002805424854159355,-1.175752702427283,0.001459069550037384
1746229311941010400,8.680010498046874,-0.03053906732212148,0.02240060456097126,-0.01623566227843409,0.005380196496844292,-0.01758197930279966,0.9979492086935566,-0.03340789940020578,right,-0.007060050964355469,0.11934648476131685,-0.2973097891980782,-9.732352007123827,0.05936797935730139,-0.023241989314556122,0.002450462430715561,-1.1676130889829248,0.0010451823472976685
1746229311981010400,8.720010498046875,-0.03057119648036583,0.008794637396931648,-0.016221741209020174,-0.004358065314590931,-0.01720332817245392,0.9979856740919609,-0.03266164081914409,right,-0.004424989223480225,0.11833305007370615,-0.2976585113042034,-9.73351988185942,0.058868051227981166,-0.024589020758867264,0.00205901637673378,-1.1577448251150548,0.002049073576927185
1746229312021010400,8.760010498046874,-0.031151432257316383,-0.0076522380113601685,-0.016505893566908715,-0.023715492337942123,-0.017189226535587264,0.9979958779894997,-0.03260629727502652,right,-0.004839599132537842,0.11784433398200887,-0.303323770524282,-9.733909757959841,0.05861964085017191,0.0022360682487487793,-0.0006734542548656464,-1.1529855017587542,0.00035393983125686646
1746229312061010400,8.800010498046875,-0.03263092740193323,-0.024338066577911377,-0.017262528754264452,-0.0638657808303833,-0.01752633201253195,0.9979737394514213,-0.03319263178439581,right,-0.009896695613861084,0.11799726938704806,-0.317718955498375,-9.733274382665753,0.058678168593615805,0.003281854558736086,-0.006367869675159454,-1.1544748635336757,-0.0018694549798965454
1746229312101010400,8.840010498046874,-0.03602447373104174,-0.03835352510213852,-0.018997056912547473,-0.0890049934387207,-0.018316314953378317,0.9979281259767093,-0.03457493090887384,right,0.013628363609313965,0.11808244200530679,-0.3507438577437773,-9.732041626000404,0.05867772689359784,-0.0007428047247231007,-0.006507620215415955,-1.1553043731603772,0.0016901195049285889
1746229312141010200,8.88001025390625,-0.03808902101425057,0.01390530914068222,-0.020052421627607408,-0.02253633737564087,-0.01881948543127649,0.9979026726740005,-0.03546380656801351,right,0.011472463607788086,0.11798249046530387,-0.3708397203112021,-9.731412095925212,0.05860000920586855,-0.0074622719548642635,-0.006571188569068909,-1.1543309980835765,-0.004757978022098541
1746229312181010200,8.92001025390625,-0.03905250703579699,0.05952919274568558,-0.020502683875862876,-0.02643955685198307,-0.018126487400113946,0.9978583773131965,-0.03398841070554999,right,0.006586730480194092,0.11959764157442924,-0.38014234965294597,-9.72917454613149,0.05941196271118556,0.06199868768453598,-0.0058930255472660065,-1.170058582438901,-0.002637803554534912
1746229312221010400,8.960010498046875,-0.03925302175899732,0.04136142507195473,-0.020554801303743354,0.007453208789229393,-0.017052426728305134,0.9978023648383106,-0.03177864515272651,right,-0.0004388093948364258,0.12201402345205088,-0.3819811093874275,-9.726244922420381,0.060638503574200815,0.06241360306739807,0.001633286476135254,-1.193582446693629,0.0027747750282287598
1746229312261010400,9.000010498046874,-0.039600649207610875,0.008151520043611526,-0.020703373707663935,-0.018126122653484344,-0.016416509139116263,0.9977404250936202,-0.030440438340430986,right,-0.009240686893463135,0.12426417582019507,-0.3852549068937078,-9.723402976992725,0.06177200969165723,0.04286137968301773,0.0019975416362285614,-1.2154818515516816,0.0016293153166770935
1746229312301010400,9.040010498046875,-0.040204933546603164,-0.015068208798766136,-0.021011367448245343,-0.03236587345600128,-0.0164009979125804,0.9976921516933457,-0.030345841897365482,right,-0.0125960111618042,0.12562620795462684,-0.39106362970508635,-9.721505034416914,0.062447527512791916,0.026942750439047813,0.002338811755180359,-1.2287347163565456,0.0007857009768486023
1746229312341010400,9.080010498046875,-0.04143028867392332,-0.027723753824830055,-0.02164501183489992,-0.0413346141576767,-0.016785484135173192,0.9976698395195573,-0.03103772432845234,right,-0.017389774322509766,0.12573704698203364,-0.402969975271821,-9.720882518604396,0.06248527659496469,-0.023531055077910423,-0.002507951110601425,-1.2298130131125449,0.0029330477118492126
1746229312381010200,9.12001025390625,-0.04359341039629931,-0.028348878026008606,-0.02275781449283526,-0.05495627596974373,-0.017610420540212435,0.9976952389951368,-0.03259770916094986,right,-0.003548562526702881,0.12373204373251057,-0.42410310846511273,-9.722432086133956,0.06144913601416764,-0.04695981740951538,-0.00907919555902481,-1.210303499065712,0.0039911046624183655
1746229312421010200,9.16001025390625,-0.044820259406599325,0.021882183849811554,-0.023389141941835112,-0.03080853819847107,-0.01829679404063571,0.9977577283375735,-0.033959912653660974,right,0.02291131019592285,0.120840215537482,-0.436185723914206,-9.725360540801287,0.059979713587310274,-0.041709866374731064,-0.01599450781941414,-1.1821561397287994,-0.010258689522743225
1746229312461010400,9.200010498046876,-0.0459087046864516,0.059245865792036057,-0.023902940881133455,0.01049717515707016,-0.01794684989874479,0.9977786803756987,-0.03321265437307773,right,0.03947645425796509,0.11994596040494797,-0.44681930959876626,-9.7259322032094,0.05953253636793791,0.013585418462753296,-0.01018807664513588,-1.1734499053776264,-0.004307359457015991
1746229312501010400,9.240010498046875,-0.044712101191104074,0.040001943707466125,-0.02326854121178759,0.031221577897667885,-0.017144001209937657,0.997768047884636,-0.03164761178693189,right,0.01751542091369629,0.1212170131491344,-0.43511389343161133,-9.72496189687252,0.06019562761016318,0.06357787549495697,-0.007509991526603699,-1.1858241607170552,-0.0028972625732421875
1746229312541010400,9.280010498046876,-0.04370021450706364,0.0071164146065711975,-0.022757777433202658,0.030862262472510338,-0.016715633851214,0.9976997738068044,-0.03079084755725343,right,0.0028051137924194336,0.12404738878389465,-0.4251247796630487,-9.722004800632595,0.06162609244348971,0.07209014147520065,-0.0031824223697185516,-1.2133722389865667,-0.0020522847771644592
1746229312581010400,9.320010498046875,-0.04316890283410348,-0.029375668615102768,-0.022520612714386396,0.01269703358411789,-0.016873282429884045,0.9976195703954391,-0.0310848836089694,right,-0.003935456275939941,0.12670626389086964,-0.41981859954632816,-9.718971716547012,0.06295361104610588,0.06136525422334671,0.003543313592672348,-1.239242227976024,-0.0004795640707015991
1746229312621010200,9.36001025390625,-0.042181041520992175,-0.06477250158786774,-0.022096604446261194,0.025625862181186676,-0.017774299963664756,0.997568663468457,-0.03292474846865636,right,-0.01275026798248291,0.12814344513675655,-0.4101418761951849,-9.717592244887351,0.06365853926148703,0.0073877014219760895,0.009001422673463821,-1.2532219457507132,0.007259547710418701
1746229312661010200,9.40001025390625,-0.040953138853594175,-0.0488516166806221,-0.02154871601828429,0.02394741214811802,-0.018799618801338833,0.9975768618222345,-0.03506740853899259,right,-0.0032010674476623535,0.1276956047360781,-0.3982322426928207,-9.718648475942015,0.06342300000401196,-0.01527848094701767,0.0045006610453128815,-1.2488659424982964,0.002516619861125946
1746229312701010400,9.440010498046876,-0.03985778978327418,-0.014083731919527054,-0.021025110837094435,0.024704139679670334,-0.01921847642022331,0.997604874041143,-0.03599157398629884,right,0.005178987979888916,0.1269089103092666,-0.3876257276782766,-9.720057758218049,0.06303115768377321,-0.0007466226816177368,0.0023403652012348175,-1.241213528048992,0.0032739490270614624
1746229312741010400,9.480010498046875,-0.038706137765485434,0.00339503213763237,-0.02045186074405898,0.021899621933698654,-0.019220526335594054,0.9976210252596053,-0.03607130500223599,right,-0.006915569305419922,0.12675228797340626,-0.3764388554925099,-9.72069196446836,0.06296327106707826,0.0011051896726712584,-0.0014164447784423828,-1.239689971743524,0.002270020544528961
1746229312781010400,9.520010498046876,-0.03915900952825209,0.006043949164450169,-0.02067608229204239,-0.04412190988659859,-0.01912519528393056,0.9975970183160489,-0.03583911416997149,right,-0.007311224937438965,0.12742976724865918,-0.38080808355268086,-9.719678988033532,0.06329925904048506,0.034487057477235794,-0.0056420303881168365,-1.2462801637887955,-0.0002719312906265259
1746229312821010400,9.560010498046875,-0.04199750159408785,-0.007864709012210369,-0.022089199736912275,-0.09052734076976776,-0.018964589291978484,0.9975151831442136,-0.035302128235656274,right,-0.0013207793235778809,0.1291873507662069,-0.40830315299332137,-9.716355396568774,0.06415465390965659,0.04998896270990372,0.0022800490260124207,-1.2633745064526796,0.011319689452648163
1746229312861010400,9.600010498046874,-0.045395545947631046,-0.030731715261936188,-0.02382004149282946,-0.07781418412923813,-0.019428756013552727,0.9974123489473128,-0.03597652893746752,right,0.004782140254974365,0.13094240387304176,-0.44121604623161254,-9.712681676492094,0.06498964509149434,0.032307177782058716,-0.0019001588225364685,-1.2804403536744415,0.009299181401729584
1746229312901010200,9.64001025390625,-0.047682180673272546,-0.011783314868807793,-0.024988560143365236,-0.03347334265708923,-0.019842955896130724,0.9973517737404207,-0.03664019684480145,right,0.009740293025970459,0.13173451078579723,-0.4633757459936663,-9.710631173703074,0.06535413641982832,0.008349938318133354,-0.0031229332089424133,-1.2881412834405899,0.007796064019203186
1746229312941010400,9.680010498046874,-0.04823578523039106,0.017707621678709984,-0.02525373388478525,0.022735878825187683,-0.019641974981064812,0.9973339436037878,-0.03619028515546045,right,0.017138779163360596,0.1321971429735272,-0.46872273304481055,-9.709777187222242,0.06558503580216506,0.03728828579187393,-0.002099994570016861,-1.2926387409903108,-0.00012455880641937256
1746229312981010400,9.720010498046875,-0.047937424496126646,0.03570469468832016,-0.025058891648115027,0.03620687872171402,-0.018789711393305427,0.9973099551070359,-0.034470564247903006,right,0.007722139358520508,0.13352363097029832,-0.4657431327121332,-9.70819488646686,0.06627103713359679,0.05099901556968689,0.00004188716411590576,-1.3055325632244348,0.0006752163171768188
1746229313021010400,9.760010498046874,-0.04693239981826032,0.02869236096739769,-0.02450937708909827,0.047787491232156754,-0.017872645552212973,0.9972859684306745,-0.03266317165677368,right,0.002067267894744873,0.1350942543516531,-0.4558891530979424,-9.706597972664236,0.06708587937099618,0.03969992697238922,0.0014800354838371277,-1.320796329460293,-0.0012561678886413574
1746229313061010400,9.800010498046875,-0.0458682743796065,0.007582206279039383,-0.02395257813990864,0.02835427038371563,-0.01732603727395713,0.9972642646797846,-0.03161044810581288,right,-0.00784599781036377,0.13638117420343088,-0.4454815581889823,-9.705371645739675,0.06774973686339363,0.022328464314341545,0.0023889951407909393,-1.3333005678549408,-0.0032236874103546143
1746229313101010400,9.840010498046874,-0.04534368751803114,-0.01978536695241928,-0.023700069344269388,0.01541392132639885,-0.017397335924625366,0.9972529346503615,-0.03177892898636413,right,-0.0010480880737304688,0.1368511341245506,-0.4403617309572175,-9.704977093464136,0.06798663096430746,0.0014178454875946045,0.003608882427215576,-1.337866414465755,-0.002606809139251709
1746229313141010200,9.88001025390625,-0.044765855629040015,-0.0268220454454422,-0.023441674559012488,0.013800683431327343,-0.0178924590177863,0.9972779185414576,-0.03282832195528299,right,0.002722024917602539,0.13605047443808702,-0.43480161261204625,-9.706296943891047,0.06758010588937188,-0.04676371067762375,0.0002774558961391449,-1.3300875971578061,-0.006067976355552673
1746229313181010200,9.92001025390625,-0.043894440233316304,-0.012545610778033733,-0.02302537614654235,0.018274154514074326,-0.018305272236979586,0.9973368774490584,-0.0337503085390562,right,0.011131048202514648,0.13436573099251412,-0.4264409402955323,-9.708896897256373,0.0667371363806489,-0.035319726914167404,-0.005342364311218262,-1.3137167464628814,-0.012644514441490173
1746229313221010400,9.960010498046875,-0.0430593890653973,0.00671029556542635,-0.0226064807497701,0.03127651289105415,-0.018323641440689892,0.99737200317375,-0.03385917045645067,right,0.009246587753295898,0.13357414980964954,-0.4183780088165775,-9.710285721266269,0.06634878024645026,-0.016627082601189613,-0.004839204251766205,-1.3060235616117715,-0.00642511248588562
1746229313261010400,10.000010498046874,-0.04153062356183077,-0.023378439247608185,-0.02183993660727125,0.05232454836368561,-0.018274097427185203,0.9974087963019378,-0.0338732577359659,right,0.0029922127723693848,0.1329769182543393,-0.40356509162075815,-9.711691496410966,0.06606476340506852,-0.025854017585515976,-0.0004663541913032532,-1.300218674725294,-0.0014744102954864502
1746229313301010400,10.040010498046875,-0.03998227514932331,-0.03739336505532265,-0.02109599004959126,0.04347388818860054,-0.018685666246680065,0.997427738930822,-0.03480726573670239,right,0.0021518468856811523,0.13264912581612837,-0.3885445230236277,-9.712730191808939,0.06590556212291963,-0.004266511648893356,0.004339080303907394,-1.2970324459046125,0.0000518113374710083
1746229313341010400,10.080010498046875,-0.03879181700687026,-0.05263031646609306,-0.020550444511204982,0.019737141206860542,-0.01937810581589148,0.9974269822863281,-0.03627482181015702,right,-0.009891748428344727,0.13262454940366455,-0.37698289924133566,-9.713217683064936,0.06588935395271825,-0.0104833310469985,0.00726858526468277,-1.2967935225822032,0.006269499659538269
1746229313381010200,10.12001025390625,-0.03883800134007055,-0.04255107045173645,-0.020632162744363514,-0.021633358672261238,-0.020279748858859012,0.9974117111042463,-0.03808141385421774,right,-0.004196584224700928,0.13253162091567486,-0.3774361594341695,-9.713320558917522,0.06582394798900017,0.0033903485164046288,0.004428829997777939,-1.2958901440016926,0.0027839839458465576
1746229313421010200,10.16001025390625,-0.04005588648629878,-0.008946336805820465,-0.021271979143144916,-0.04295826330780983,-0.020730504131939213,0.9973694148197967,-0.03889298615882429,right,-0.0006998777389526367,0.1331681095187429,-0.3892325052877888,-9.712027596497535,0.06612038819956599,0.017806347459554672,0.0035070255398750305,-1.3020770159430801,0.0041713714599609375
1746229313461010400,10.200010498046876,-0.04128702246899442,0.010743586346507072,-0.021887714840922796,-0.03080035373568535,-0.020692691607813517,0.9973297421408582,-0.03871929410927337,right,-0.0010624527931213379,0.13400812541377047,-0.4011437462253496,-9.710444711220264,0.06652842988687456,0.016646336764097214,0.00048130378127098083,-1.3102413254372776,0.0047257691621780396
1746229313501010400,10.240010498046875,-0.04231726759230376,0.02969575673341751,-0.022378395965046167,-0.01816673018038273,-0.020266327740678856,0.9972958829855019,-0.03777662237360751,right,0.003984689712524414,0.13496030982357543,-0.4110946834079921,-9.708775316703319,0.06700314737023699,0.02814154326915741,-0.0032523199915885925,-1.3194947453424333,0.0009499192237854004
1746229313541010400,10.280010498046876,-0.04249821891031736,0.017894703894853592,-0.02243562976303267,0.007231036201119423,-0.019679185750648736,0.9972757061087789,-0.03656924166406269,right,0.002523362636566162,0.1358477065924784,-0.41280159692373125,-9.707527362468838,0.06745738689097074,0.012859749607741833,0.00163167342543602,-1.3281174661286175,0.0070840418338775635
1746229313581010400,10.320010498046875,-0.04181219033340073,0.001167869195342064,-0.022086632269392826,0.02197410725057125,-0.0195142186235417,0.9972742602214211,-0.03627794767612601,right,0.0017645955085754395,0.13619674090138453,-0.40612244795337316,-9.707344407117366,0.06764140273997504,0.004098605364561081,-0.000604044646024704,-1.3315087160021066,0.0023273080587387085
1746229313621010200,10.36001025390625,-0.04075457513941051,-0.012918885797262192,-0.021569531489889337,0.02284710668027401,-0.019615856627556577,0.9972789835937381,-0.03655118389424942,right,-0.0034253597259521484,0.13631868858726487,-0.395848964285478,-9.707606272923945,0.06770957597135532,-0.0001842072233557701,-0.0005221180617809296,-1.3326935418725012,0.0013680309057235718
1746229313661010200,10.40001025390625,-0.03985079918390557,-0.029465507715940475,-0.021149265066955483,0.019939593970775604,-0.020056281618540162,0.9972859816713967,-0.03749947910968007,right,-0.003126204013824463,0.13612129016798657,-0.3870857755826786,-9.708222358995675,0.06760997614074353,-0.00963306799530983,0.00003814697265625,-1.3307757255524395,0.0007085502147674561
1746229313701010400,10.440010498046876,-0.038941338600196745,-0.022995272651314735,-0.020730088590705,0.01929527521133423,-0.020581377005352296,0.9972978581565605,-0.0386214912594754,right,-0.003317594528198242,0.13571892411753236,-0.3782771768355742,-9.709104987049102,0.06740681853097279,-0.009437278844416142,-0.0013783127069473267,-1.3268661508932709,-0.003345385193824768
1746229313741010400,10.480010498046875,-0.03873864625827134,-0.004445105791091919,-0.020644288017753313,-0.008055584505200386,-0.020804948668044315,0.9972964011042853,-0.0390841865228713,right,-0.004409134387969971,0.13568351518197122,-0.376311027861759,-9.709228321167826,0.0673864704438301,0.012655162252485752,-0.0006234124302864075,-1.3265221597611903,-0.0047029852867126465
1746229313781010400,10.520010498046876,-0.039413850669273665,0.014964282512664795,-0.02097543502381961,-0.013009627349674702,-0.020636873517644466,0.9972634099444341,-0.038685323638345176,right,-0.0005787014961242676,0.1365631455642729,-0.3828205558862537,-9.70780208775699,0.06782226883011494,0.023171456530690193,0.0002100244164466858,-1.3350686004407704,-0.0011623948812484741
1746229313821010400,10.560010498046875,-0.040016174751133025,0.027752969413995743,-0.02125611454765706,-0.01192348450422287,-0.020218384367385607,0.997222862308052,-0.03778154260164026,right,-0.0015339255332946777,0.13782105879815904,-0.38860023526623844,-9.705884271436929,0.06845292022002622,0.03549160063266754,-0.003100831061601639,-1.347288615066558,-0.0035836100578308105
1746229313861010400,10.600010498046874,-0.040635790572159984,0.03965213522315025,-0.021532008156841004,0.010252948850393295,-0.019555492865313977,0.9971674444082718,-0.03637517847256362,right,0.0035322904586791992,0.1396240602598228,-0.39451475653965024,-9.70319839335382,0.06936082097331162,0.04398955777287483,-0.00017273053526878357,-1.364800160229206,0.001970335841178894
1746229313901010200,10.64001025390625,-0.04014661350154384,0.03108782321214676,-0.021239650349996763,0.02551627904176712,-0.018823317983889514,0.9971802956123276,-0.03493739421705537,right,0.001921534538269043,0.13980013931504692,-0.3897584653906524,-9.703149878036974,0.06946868376567723,-0.022414501756429672,0.002535369247198105,-1.3665100328870117,0.0017645061016082764
1746229313941010400,10.680010498046874,-0.03837784205439326,0.030108099803328514,-0.02030736770547446,0.05359351634979248,-0.018243073002752713,0.9972770861545023,-0.03393263345958793,right,0.004421651363372803,0.1378153904953024,-0.37269853645302353,-9.706515555077791,0.06850584076174174,-0.053363874554634094,-0.005087904632091522,-1.3472335238784552,-0.012811839580535889
1746229313981010400,10.720010498046875,-0.03675898821465785,0.03673749417066574,-0.01943852777372998,0.02480052411556244,-0.017439022996744057,0.997357254106669,-0.03245695137165106,right,-0.0039052367210388184,0.13633537988821073,-0.35705749786999075,-9.709088035914302,0.06779689118268954,-0.02048385515809059,-0.0008159205317497253,-1.3328557466968893,-0.006509453058242798
1746229314021010400,10.760010498046874,-0.03662093479105871,0.032116517424583435,-0.0193193945125298,-0.014003604650497437,-0.016699327196268245,0.9973728083709995,-0.03098388159052344,right,-0.008341789245605469,0.13628628465824277,-0.3557195272644982,-9.70920260220468,0.06778786105808046,0.0028736237436532974,-0.0006795376539230347,-1.3323787768349051,-0.0002817809581756592
1746229314061010400,10.800010498046875,-0.03777096032291687,0.020391352474689484,-0.019861781577492334,-0.030552208423614502,-0.01618089261003172,0.9973333895150392,-0.02984657820644234,right,-0.003849208354949951,0.1373799886846663,-0.36682986361533404,-9.707325117895007,0.0683349721755229,0.026244031265378,0.0009267032146453857,-1.3430040696151553,0.004641622304916382
1746229314101010400,10.840010498046874,-0.0391379568110457,0.010554458014667034,-0.020528363744352435,-0.030418023467063904,-0.015896951386299908,0.9972811823534119,-0.029159964004766142,right,0.0010436773300170898,0.13864859506417404,-0.3800324595376849,-9.705104519236087,0.06896356337423547,0.029026446864008904,0.000684347003698349,-1.3553265217021107,0.006159082055091858
1746229314141010200,10.88001025390625,-0.03989378028300605,-0.0035878578200936317,-0.020905487963372084,-0.010864121839404106,-0.01585505975720651,0.9972452821083218,-0.029007794498961195,right,0.004885733127593994,0.1394876949439766,-0.3873221781544387,-9.703674778693914,0.06937755969055552,0.01761588081717491,-0.0009291432797908783,-1.3634757797576487,0.0020003020763397217
1746229314181010200,10.92001025390625,-0.03984148977458584,-0.006407822482287884,-0.02088213953413754,0.0011502224951982498,-0.015857060198506974,0.9972312254361905,-0.029007535672847792,right,0.0007591843605041504,0.13990604014756935,-0.38679201680049297,-9.703124159073829,0.06958657694030836,0.007470962591469288,-0.0008893273770809174,-1.3675384991519153,0.0015523731708526611
1746229314221010400,10.960010498046875,-0.039411636516856696,-0.019396651536226273,-0.020683761583595243,0.01216956414282322,-0.016071682261327335,0.9972323604343731,-0.029468172699911276,right,-0.00038933753967285156,0.13989488608709105,-0.3826216723132878,-9.703304776337742,0.06957966278130585,-0.006651579402387142,-0.0007577463984489441,-1.3674300703413784,0.0013844221830368042
1746229314261010400,11.000010498046874,-0.03877813026683727,-0.019939562305808067,-0.020398526818106617,0.012273512780666351,-0.01649023183163969,0.9972322366016008,-0.030352084007320066,right,0.00015819072723388672,0.13987917021782031,-0.37647531504537907,-9.703566642144322,0.06956790408374237,0.007504076696932316,-0.0023266151547431946,-1.3672775101281702,-0.000024825334548950195
1746229314301010400,11.040010498046875,-0.0384411000379934,-0.028537675738334656,-0.0202658189623371,0.0009805141016840935,-0.016955996082247408,0.9972167138601561,-0.03130404618128207,right,-0.0015334486961364746,0.14019163408487992,-0.3731884753944352,-9.703265613371133,0.06971685040505624,0.012978363782167435,0.000899139791727066,-1.3703117632575332,0.003400847315788269
1746229314341010400,11.080010498046875,-0.03844177939404626,-0.021506017073988914,-0.020308691467713136,-0.0007667107274755836,-0.01750927048891425,0.9971871873573701,-0.03240334181196558,right,-0.00048428773880004883,0.1407612147155101,-0.3731649849209934,-9.702483523082732,0.06998969810064515,0.011710080318152905,-0.0034509487450122833,-1.3758423632472754,0.001454368233680725
1746229314381010200,11.12001025390625,-0.03858908194075386,-0.0062772249802947044,-0.020415206523482513,-0.009695969521999359,-0.017889628058858888,0.9971448497918893,-0.03313828707424346,right,-0.0038462281227111816,0.1417312616135925,-0.37454252035189417,-9.701090607419609,0.07046458031336922,0.03387117758393288,-0.004558052867650986,-1.3852606183253229,-0.0007071495056152344
1746229314421010200,11.16001025390625,-0.03919868884177471,-0.011292105540633202,-0.020738993953288865,-0.005480047781020403,-0.018068506639370194,0.9970913245256922,-0.033430990442276064,right,0.0005832910537719727,0.14298076866338985,-0.3803881776401773,-9.699123106738924,0.07107907088345186,0.031385935842990875,-0.00008832290768623352,-1.397390032058209,0.006614193320274353
1746229314461010400,11.200010498046876,-0.03983376590983506,-0.014195844531059265,-0.02108761387770277,-0.022926384583115578,-0.01841492963733929,0.997033790638929,-0.034057138406982726,right,-0.0004923343658447266,0.1442354396929022,-0.386477690154314,-9.697119950222968,0.07169225261166703,0.03549046814441681,-0.0027643106877803802,-1.409567522716522,0.004106685519218445
1746229314501010400,11.240010498046875,-0.041090326759116405,-0.018249742686748505,-0.02174964379669223,-0.040662940591573715,-0.01879645989087851,0.9969567012059584,-0.03470158856022634,right,-0.0017356276512145996,0.14581908862051163,-0.39857020594291387,-9.694384387779236,0.07246314779147063,0.0435173436999321,-0.000751785933971405,-1.424934749326855,0.007944166660308838
1746229314541010400,11.280010498046876,-0.04264711337814872,-0.019227394834160805,-0.022563932952145094,-0.03805483877658844,-0.019252628939282222,0.996885917696343,-0.03547842069962005,right,-0.0006819963455200195,0.14707582887115472,-0.41358511198423803,-9.691955114805697,0.07306620005674637,0.028103388845920563,-0.00010926276445388794,-1.4371272914238273,0.008057087659835815
1746229314581010400,11.320010498046875,-0.04403800223899599,-0.012140601873397827,-0.02328811229068152,-0.03476285561919212,-0.01963187225334893,0.9968297247191967,-0.03611832560849239,right,0.0003018975257873535,0.14799569166489854,-0.4270067574847489,-9.69004606631398,0.07350385396689961,0.024909930303692818,-0.0018160827457904816,-1.446050018069893,0.0043187737464904785
1746229314621010200,11.36001025390625,-0.045017685931289686,0.004253018647432327,-0.023791472185361453,-0.022553060203790665,-0.019768991702443922,0.9967781197429884,-0.03629952055233696,right,0.0008058547973632812,0.14902010484988823,-0.436432830543071,-9.688138186866045,0.07400267880357284,0.03214463219046593,-0.004292469471693039,-1.4559855750203132,-0.0007038712501525879
1746229314661010200,11.40001025390625,-0.04583862465874735,-0.004405294544994831,-0.024208585319475354,-0.015199374407529831,-0.019790493419908448,0.9967248256508829,-0.036256515661657246,right,0.0019182562828063965,0.1501888427913228,-0.4443078017018735,-9.686070148420333,0.07457758078023259,0.02882416546344757,-0.002495676279067993,-1.4673188699394464,0.0002827197313308716
1746229314701010400,11.440010498046876,-0.04627815697406779,-0.026414144784212112,-0.024456756682757163,-0.00412699393928051,-0.020111782196138416,0.9966817088264676,-0.03685001525658559,right,0.0027955174446105957,0.1510304245808168,-0.44850781067498025,-9.684636900746822,0.0749854079446943,0.01052321307361126,-0.0007875598967075348,-1.4754786493889986,-0.0016902238130569458
1746229314741010400,11.480010498046875,-0.046192424585110456,-0.05696918070316315,-0.02447964133563419,0.008189358748495579,-0.02098671952951802,0.9966667952858765,-0.0386134086762586,right,0.004952609539031982,0.15097364288539095,-0.4476813697881996,-9.684759065821765,0.07493641675800172,-0.013857005164027214,-0.0022133290767669678,-1.4749281758993864,-0.008400484919548035
1746229314781010400,11.520010498046876,-0.045415347694474494,-0.061793018132448196,-0.02417512026115733,0.0208907313644886,-0.02211160767060966,0.9966690642916053,-0.04093912944231613,right,0.004486560821533203,0.15050196896151055,-0.4401869589122012,-9.685797761219739,0.07468143127997194,-0.015933696180582047,0.0009310543537139893,-1.470355022764951,-0.008701518177986145
1746229314821010400,11.560010498046875,-0.0437518036693301,-0.05995870754122734,-0.02343427834576946,0.053131554275751114,-0.023347242311744097,0.9966958951695055,-0.04356311060087079,right,-0.0013057589530944824,0.1495238491959081,-0.42413631661497053,-9.687948801773786,0.074181633823356,-0.04719948023557663,0.004072953015565872,-1.4608707167133688,-0.0067240893840789795
1746229314861010400,11.600010498046874,-0.04177713985530142,-0.045751530677080154,-0.02251799255313384,0.03281238302588463,-0.024382474504073832,0.9967470742172541,-0.04581584062328586,right,-0.002416372299194336,0.14804184378356314,-0.4050950411343947,-9.690919926539063,0.07344069223052611,-0.035521313548088074,0.0007419474422931671,-1.4464977618373929,-0.015532106161117554
1746229314901010200,11.64001025390625,-0.04099397868844904,-0.027065424248576164,-0.02217454724684394,-0.0077044107019901276,-0.025125649396396645,0.9967723234399367,-0.047382862739448896,right,-0.007408618927001953,0.1470760226116555,-0.39756241713985796,-9.692625561413168,0.07295149066591028,-0.02098069339990616,-0.0004857294261455536,-1.4371291911199688,-0.012963950634002686
1746229314941010400,11.680010498046874,-0.04204770382141465,-0.0007531624287366867,-0.022718237903242823,-0.044962819665670395,-0.025436240267925028,0.9967584364908258,-0.04793149494781634,right,-0.0019499659538269043,0.14694397139818102,-0.40778354956600815,-9.692390583613514,0.07286619717714352,-0.0017590783536434174,-0.000027339905500411987,-1.4358482113987208,-0.007566079497337341
1746229314981010400,11.720010498046875,-0.04376067109150425,0.017995044589042664,-0.023569839217369343,-0.034411296248435974,-0.02535929580251459,0.9967133871044371,-0.047636148502506775,right,0.005275905132293701,0.1477264099691258,-0.4243364057643339,-9.69055284679234,0.0732378339378673,0.028835024684667587,-0.0010851956903934479,-1.4434380820058286,-0.005465418100357056
1746229315021010400,11.760010498046874,-0.04525087700338112,0.018930558115243912,-0.024299716977151116,-0.021589171141386032,-0.02503237146937297,0.9966490249138572,-0.046839002748284224,right,0.007373332977294922,0.14924144537537976,-0.43867743113208557,-9.687713823974132,0.07398366421255423,0.04365035519003868,0.001001514494419098,-1.4581320855297146,-0.001302972435951233
1746229315061010400,11.800010498046875,-0.046025625929705716,0.012372659519314766,-0.024678580034552474,-0.013679168187081814,-0.024720115694805565,0.9965791561064603,-0.046115756245608895,right,-0.0015345215797424316,0.15107983575941222,-0.4460587735550478,-9.684676648235321,0.07489903831828659,0.03776737302541733,0.0006463006138801575,-1.4759576650775967,0.00291578471660614
1746229315101010400,11.840010498046874,-0.04663033266226049,0.001074199564754963,-0.024983545920061172,-0.013371845707297325,-0.02462541313200812,0.9965260731658382,-0.045852622588552966,right,0.0011597871780395508,0.15236051388418356,-0.45182657983414826,-9.682509241068363,0.07553302698324374,0.02702971361577511,-0.000017095357179641724,-1.488372617753595,0.0016504526138305664
1746229315141010200,11.88001025390625,-0.046990159391284175,-0.00035102455876767635,-0.02516972739832255,-0.00035365018993616104,-0.024603339488326343,0.9964846250156215,-0.04575949825256491,right,0.004749417304992676,0.15335141386533446,-0.4552410644527524,-9.680867903602122,0.07602352591750716,0.026037966832518578,-0.0005021356046199799,-1.4979766046620904,-0.000542864203453064
1746229315181010200,11.92001025390625,-0.046622189526193035,0.008772489614784718,-0.024988555991731526,0.010328561067581177,-0.024484831978765595,0.9964513422942398,-0.045527013141226216,right,0.0005837678909301758,0.15440464557995892,-0.45160500950533894,-9.679453360629081,0.07655575704943533,0.03231676667928696,-0.0034600459039211273,-1.5081832336388528,-0.0013294219970703125
1746229315221010400,11.960010498046875,-0.04625934034595525,0.0019095339812338352,-0.02479981125164716,0.013323268853127956,-0.024232760587941205,0.9964195503666593,-0.04502569844218713,right,-0.0008939504623413086,0.15549197553356178,-0.4480167026897892,-9.677972766682505,0.07710819315747064,0.017598342150449753,0.0013942644000053406,-1.5187186561785637,0.006131529808044434
1746229315261010400,12.000010498046874,-0.04565375920570323,-0.019519034773111343,-0.024517870749815138,0.01994151808321476,-0.02437977406644648,0.9963961566972587,-0.045353203788948235,right,0.00005066394805908203,0.15617760213540838,-0.4421081727657467,-9.67720002874434,0.07745312701742751,0.01238476112484932,0.0015244334936141968,-1.5253608706720172,0.005491510033607483
1746229315301010400,12.040010498046875,-0.04479543751452707,-0.03452692925930023,-0.024133917436337825,0.01631287857890129,-0.024857127064098702,0.9963783122296039,-0.04636981066683032,right,0.001263439655303955,0.15657952012380094,-0.4337743884561583,-9.676962712857126,0.07765157498594412,0.010250821709632874,-0.00041608139872550964,-1.529254224848747,0.0033726245164871216
1746229315341010400,12.080010498046875,-0.04399174899403407,-0.040994759649038315,-0.023798564663809287,0.010561436414718628,-0.025610069026426232,0.9963531708153737,-0.04793614006352818,right,0.0018385648727416992,0.15696064174524138,-0.42597131348978723,-9.676725396969914,0.07783282913637111,0.006317787803709507,-0.0013362579047679901,-1.5329459189735353,0.002367928624153137
1746229315381010200,12.12001025390625,-0.0432234259908499,-0.04622545465826988,-0.02349911154628687,0.014940885826945305,-0.026583313035764652,0.9963180780136273,-0.04994080800139515,right,0.007337450981140137,0.15741753575297968,-0.41850601911041885,-9.676348964872956,0.0780467774220043,0.025756187736988068,-0.006661657243967056,-1.53737118806988,-0.006995096802711487
1746229315421010200,12.16001025390625,-0.04299852575475009,-0.012660618871450424,-0.02345778950116412,-0.009179938584566116,-0.027199281401472392,0.9962265031458264,-0.05115683936990643,right,0.003044605255126953,0.15937325826048485,-0.4161997514620423,-9.673420510205625,0.07900982772836503,0.06625738739967346,-0.008221838623285294,-1.5563102818176149,-0.008064940571784973
1746229315461010400,12.200010498046876,-0.043581328231076806,0.010824669152498245,-0.023780372503664726,-0.012928110547363758,-0.02722757460295644,0.9961040028796555,-0.051110656766165774,right,-0.0011529326438903809,0.16224969478147463,-0.4216406273417175,-9.668663671067357,0.08043527455346572,0.07223537564277649,-0.005337808281183243,-1.584154566554725,-0.005838364362716675
1746229315501010400,12.240010498046875,-0.04435239638754866,0.024699430912733078,-0.02416644932483647,-0.01699059084057808,-0.026871453820951678,0.9959792574307222,-0.050271365629967216,right,-0.0007733702659606934,0.16533188266365284,-0.4288771544665098,-9.663411741888522,0.08197004135254421,0.07739005982875824,-0.0048409923911094666,-1.6139758504532276,-0.0058329105377197266
1746229315541010400,12.280010498046876,-0.04491393382622423,0.027349432930350304,-0.02442739187920393,0.004201451316475868,-0.026289176988517102,0.9958643554196088,-0.04899499796169355,right,-0.0008352994918823242,0.16831552064862915,-0.4340853175688535,-9.658315880054236,0.08346395755439594,0.06492336839437485,-0.0034012533724308014,-1.6428291661024093,-0.00466899573802948
1746229315581010400,12.320010498046875,-0.04485980943530446,0.03009914420545101,-0.02437737263881701,0.016387496143579483,-0.0257395300627706,0.9957839856351286,-0.04784967519702164,right,0.006573200225830078,0.17057085251429518,-0.4333953260106966,-9.65461351840496,0.08460169234068027,0.06287968158721924,-0.005649100989103317,-1.6646296406306325,-0.012690469622612
1746229315621010200,12.36001025390625,-0.044490121132883864,0.04335044324398041,-0.024149543932381654,0.015430525876581669,-0.024934571064391467,0.9957055074772885,-0.04621567793846956,right,0.000797569751739502,0.1729745803906051,-0.4296468967299908,-9.650747490626573,0.085823056651487,0.05751259624958038,-0.005092266947031021,-1.6878553256563842,-0.009906992316246033
1746229315661010200,12.40001025390625,-0.04417714176568506,0.049306996166706085,-0.02392810776398048,0.02369345910847187,-0.023947903589296604,0.9956467499930501,-0.04422070628877759,right,0.001446843147277832,0.1749650297308135,-0.42647714412007476,-9.647506316748261,0.08684186700785046,0.035696208477020264,-0.0019419565796852112,-1.707080250608176,-0.005724221467971802
1746229315701010400,12.440010498046876,-0.043638177017592934,0.047247253358364105,-0.023581363743956706,0.02652488835155964,-0.02291867210215279,0.995629772330159,-0.042178862749489544,right,0.00033974647521972656,0.17603808066467425,-0.4211972674883902,-9.645899466073512,0.0874066680858163,0.015026269480586052,-0.00042115524411201477,-1.7174416317552328,-0.004470229148864746
1746229315741010400,12.480010498046875,-0.04310891778094312,0.04252982512116432,-0.02323868323874173,0.01836281642317772,-0.021970008289332647,0.9956458089686453,-0.04031474831527438,right,-0.0023961663246154785,0.17628861442018232,-0.41607349473387,-9.645690791758895,0.08755915798942204,-0.0053385160863399506,0.000685080885887146,-1.7198605294652283,-0.0044954270124435425
1746229315781010400,12.520010498046876,-0.04286863956161267,0.04346461594104767,-0.02304320687548041,0.009138082154095173,-0.02111134127895145,0.995674030372197,-0.03861424741505709,right,-0.0021825432777404785,0.17612680262926048,-0.41376773854214693,-9.646068392899632,0.08750086271036701,-0.010649602860212326,0.0018909312784671783,-1.7182982485845684,-0.0008891671895980835
1746229315821010400,12.560010498046875,-0.042774017329016506,0.03363942727446556,-0.022917136416642198,0.008819807320833206,-0.020278895341147206,0.9957288626428984,-0.03696691342870121,right,-0.000713646411895752,0.1752939933809117,-0.4129160536162555,-9.647533789277077,0.08710612458664502,-0.03252619504928589,0.004091627895832062,-1.71025698094815,0.0047765374183654785
1746229315861010400,12.600010498046874,-0.042469918947072596,0.039520688354969025,-0.022691581181227428,0.012871203944087029,-0.019489523673548958,0.9957866114808517,-0.03542551026624787,right,0.00020360946655273438,0.17440553278752677,-0.41004659912716596,-9.649173373177646,0.08668434633265433,-0.014619557186961174,0.0021264664828777313,-1.701676930259913,0.005367115139961243
1746229315901010200,12.64001025390625,-0.04215264317717152,0.039061665534973145,-0.022455644855693506,0.018338002264499664,-0.01860692883995974,0.9958220843890143,-0.03368737024194872,right,0.0009362101554870605,0.17405484468904456,-0.40701022710595275,-9.649898180320859,0.08653236455437842,-0.004483744502067566,0.006201758980751038,-1.698289918170124,0.01334373652935028
1746229315941010400,12.680010498046874,-0.04153737874013969,0.012307591736316681,-0.022092141314545264,0.01777663826942444,-0.017956150186841005,0.99586031856048,-0.03244272640258295,right,-0.0022593140602111816,0.17359547519811952,-0.40110527737848456,-9.650925185281038,0.086323107092192,-0.013797995634377003,0.006026476621627808,-1.6938529586359858,0.015358641743659973
1746229315981010400,12.720010498046875,-0.04107205645937043,-0.006297364830970764,-0.021848271148500353,0.0006894227117300034,-0.017814475764994335,0.9958788061400501,-0.032203491066985876,right,0.0016707181930541992,0.1733366151745218,-0.3966324428133666,-9.651548870137333,0.08620099466377873,0.009998048655688763,0.004748933017253876,-1.691352520122379,0.011425420641899109
1746229316021010400,12.760010498046874,-0.040866249730311395,-0.017955860123038292,-0.021764202217964122,0.0005883661797270179,-0.01801202847382241,0.9958737086368313,-0.032616435300088883,right,-0.00371628999710083,0.17342137659134144,-0.3946402095502242,-9.651486910817027,0.08624054063320875,0.003303613979369402,0.0021904408931732178,-1.6921712891593574,0.010008767247200012
1746229316061010400,12.800010498046875,-0.040480494784958125,-0.028296764940023422,-0.021623390698953956,-0.0014234826667234302,-0.018591866079482253,0.9958693741850423,-0.03381538539424615,right,-0.0028090476989746094,0.17336478667803504,-0.3909209698313847,-9.651734163576364,0.08620288647438762,0.0031344154849648476,-0.0010534897446632385,-1.691624615062028,0.0026590079069137573
1746229316101010400,12.840010498046874,-0.0402068186101896,-0.02996698208153248,-0.021549751234984326,0.0014539050171151757,-0.019295992228810278,0.9958546750074139,-0.03525143161971392,right,-0.001874685287475586,0.17345867112451713,-0.38827308567110447,-9.651682141128182,0.08623672739490834,0.0034070571418851614,0.00003682449460029602,-1.6925315007738768,0.0025989264249801636
1746229316141010200,12.88001025390625,-0.03981886096630953,-0.03494677320122719,-0.021417594398617377,0.005659494083374739,-0.0200163524357188,0.9958604954100181,-0.03673860942732332,right,-0.0030587315559387207,0.1730842057586136,-0.38455384595226494,-9.652464815938472,0.08603809587669026,-0.02165481261909008,0.0015348419547080994,-1.6889143331900238,0.003642365336418152
1746229316181010200,12.92001025390625,-0.03944163853259156,-0.02490442618727684,-0.021289291953898008,-0.0028282678686082363,-0.020780128711138147,0.99589131719469,-0.03832304167757236,right,-0.0006952285766601562,0.17209164525823506,-0.38097858128137885,-9.65427917188406,0.08553076012827998,-0.02285909280180931,-0.003268253058195114,-1.6793252515897155,-0.0018039792776107788
