time,seconds_elapsed,roll,rotationRateZ,quaternionY,rotationRateY,quaternionZ,quaternionW,yaw,devicelocation,accelerationZ,pitch,gravityX,gravityZ,quaternionX,rotationRateX,accelerationX,gravityY,accelerationY
1745972671624080600,0.17808056640625,-1.2046604946263655,0.06219630688428879,-0.5627760056437454,0.2091934084892273,3.3228952505223976e-18,0.823181560648519,0.08540432966612894,right,-0.6291590929031372,0.12412900644923203,-9.086190530604124,-3.4838676591709254,0.07520241848999407,0.23726296424865723,0.8534659147262573,-1.214166019712761,0.1340162605047226
1745972671664080600,0.21808056640625,-0.6611625290271175,0.12417051196098328,-0.3216285139391087,0.21814590692520142,0.12270004165289707,0.9378604888158372,0.2612840945175603,right,-0.19676458835601807,0.0032121372305819454,-6.021593116381764,-7.740143001639843,0.04379105250758583,0.14921513199806213,0.5697925686836243,-0.03150031161018414,0.0038634270895272493
1745972671704081000,0.258080810546875,-0.10591496177169724,0.18614470958709717,-0.052388266604106365,0.22709840536117554,0.23468284814714319,0.9706216687256057,0.4740432274282248,right,0.00670015811920166,-0.007982489458561625,-1.0366964792408049,-9.751385208895801,0.008554749539787842,0.06116730719804764,0.09030327200889587,0.0782804592416156,-0.016885623335838318
1745972671744081000,0.298080810546875,-0.06771860399676718,0.20630747079849243,-0.032420479097571925,0.3105636537075043,0.24001161936051874,0.970177852849397,0.48516454445567947,right,0.007282912731170654,0.003674877500870828,-0.6635801557671278,-9.784106744280457,0.009914394845394773,-0.03536977618932724,0.07661395519971848,-0.03603834319888847,-0.003893831744790077
1745972671784080600,0.33808056640625,-0.03352800620780012,0.24420729279518127,-0.015174837416034294,0.3129452168941498,0.2456502232940424,0.9692037900525574,0.49660349397580716,right,-0.0030311942100524902,0.00874250424251571,-0.32872268966957924,-9.800763864570856,0.008356239132390081,0.013384141027927399,0.02367236651480198,-0.08573378005539999,-0.02127329260110855
1745972671824080600,0.37808056640625,-0.007206104452380975,0.2286224216222763,-0.0024604254760852108,0.056351710110902786,0.2518694002925355,0.9677459721506353,0.5092599682339999,right,-0.021938562393188477,0.008149873441865496,-0.0706642394836992,-9.80606956976354,0.0048510638488418354,-0.0028956159949302673,-0.014951050281524658,-0.0799222716318909,-0.005941393785178661
1745972671864080600,0.41808056640625,-0.007347567914472133,0.16695302724838257,-0.0025603863718365164,0.04536714777350426,0.2545240906693306,0.9670515869397577,0.5147473034083905,right,-0.01777130365371704,0.007797264653653287,-0.07205164328806568,-9.80608710542023,0.00470530517403934,-0.12431886792182922,-0.0052249194122850895,-0.07646446846136823,0.01165500096976757
1745972671904080600,0.45808056640625,-0.007487094136340196,0.10528364032506943,-0.002660327856067035,0.03438258543610573,0.2571768975740364,0.9663498911085666,0.520234663651238,right,-0.01360410451889038,0.007443884554292161,-0.07342005013101734,-9.806103472033142,0.004559510803818492,-0.24574212729930878,0.004499273374676704,-0.07299909847232047,0.029250625520944595
1745972671944080600,0.49808056640625,-0.006484929957693058,0.019075606018304825,-0.004073610540419287,0.07345978170633316,0.258794299082486,0.9659202562660619,0.5235303479113591,right,-0.016288578510284424,-0.007277325076873631,-0.0635927667275071,-9.806184136053918,-0.0026755865406896755,-0.3317263126373291,0.014900105074048042,0.07136533695776015,0.013900836929678917
1745972671984081000,0.538080810546875,-0.004413749619856437,0.009189738892018795,-0.004366537407189957,0.05327419936656952,0.25836106904651845,0.9660072096777945,0.5226337195272674,right,-0.007424056529998779,-0.0172995886905145,-0.04327694126646966,-9.805086988466977,-0.007785883540172039,-0.30765923857688904,0.021360669285058975,0.16964233571132645,0.015771958976984024
1745972672024080600,0.57808056640625,-0.0023510956941717796,-0.0006961273029446602,-0.00465934933945716,0.03308861702680588,0.25792107994751323,0.9660687297207664,0.5217578200786043,right,0.0013356804847717285,-0.02732368444730088,-0.02304720720328623,-9.802962251397966,-0.012895974726039981,-0.283592164516449,0.027830010280013084,0.26792024778034534,0.01764298789203167
1745972672064080600,0.61808056640625,-0.0002965632866873115,-0.010581995360553265,-0.0049520396345953685,0.012903036549687386,0.25747422300281536,0.9661047676385542,0.520902206135262,right,0.0099906325340271,-0.037349567903554586,-0.002905726241468801,-9.799810509368777,-0.018005728181111933,-0.2595251202583313,0.03430835157632828,0.3661887527002021,0.019514981657266617
1745972672104080600,0.65808056640625,0.002376314604309288,0.011442678980529308,-0.005141353067423907,-0.04706621170043945,0.2573834209074468,0.965999862956485,0.5208442260471423,right,0.00831449031829834,-0.04885449327149937,0.023276394582970532,-9.794921568283439,-0.02390707559937148,-0.17364272475242615,0.015063358470797539,0.4789081365704536,0.013733536005020142
1745972672144080600,0.69808056640625,0.003933784145898524,0.030644062906503677,-0.00516299720931867,-0.08418168872594833,0.2578804270172926,0.9657870832072751,0.5219644056888552,right,0.0059593915939331055,-0.05474927701944423,0.038519878365914334,-9.791880300891398,-0.026951622412097833,-0.05302835628390312,-0.023776957765221596,0.5366385506032034,-0.007558926939964294
1745972672184080600,0.73808056640625,0.00346312305162209,0.1122274249792099,-0.005493912434507614,-0.05585535243153572,0.2590322817504287,0.9654713286194481,0.5243420144060847,right,0.006097137928009033,-0.05530245635602996,0.03391018348021898,-9.79159914586246,-0.027151541745837202,0.02269638702273369,-0.029944393783807755,0.5420552053570747,-0.01173420250415802
1745972672224081000,0.778080810546875,0.0037631024839193212,0.17906635999679565,-0.005495098287709147,0.10394113510847092,0.2626395201644211,0.9644912601710433,0.531829936219892,right,0.014567792415618896,-0.0556391859450004,0.03684676893836586,-9.791405084595084,-0.027332556237689286,-0.04756897687911987,-0.014407174661755562,0.5453523106737062,0.022319305688142776
1745972672264080600,0.81808056640625,0.011769126735566373,0.019674599170684814,-0.0025383325030678082,0.2335713505744934,0.26224516682282234,0.9644761722202977,0.5313400817650527,right,0.014783680438995361,-0.06257805598761278,0.11518766454677097,-9.786776840272545,-0.03173012052429502,-0.12139026075601578,-0.010893594473600388,0.6132803666591644,0.030522845685482025
1745972672304080600,0.85808056640625,0.019775425938236144,-0.13971716165542603,0.00041850604382378983,0.3632015585899353,0.26184344852094016,0.9644339423491001,0.5309058342485989,right,0.014887332916259766,-0.06952063110665885,0.19345013147396967,-9.781048525753617,-0.03612679286375745,-0.19521154463291168,-0.007372017949819565,0.6812151811789721,0.03872569650411606
1745972672344080600,0.89808056640625,0.027782760084432964,-0.29910892248153687,0.0033753320255055126,0.4928317666053772,0.2614342808543308,0.9643644674096952,0.5305269976229666,right,0.014878928661346436,-0.07646644782196903,0.27162522151181473,-9.774220141038297,-0.04052244208221239,-0.2690328359603882,-0.0038415342569351196,0.7491488997202366,0.046928659081459045
1745972672384080600,0.93808056640625,0.04669258751274665,-0.483576238155365,0.011029115342504829,0.7616614103317261,0.25514208972520847,0.9655797608239799,0.5187643920596023,right,0.017375171184539795,-0.08981805345665071,0.45588692460823804,-9.756474640989303,-0.0493617018989057,-0.33077818155288696,0.02128037065267563,0.8796301137197762,0.032980553805828094
1745972672424080600,0.97808056640625,0.056421492325556585,1.6189775466918945,0.014642860197119764,-0.6574850082397461,0.2626211953567171,0.9633218307712903,0.534984816504423,right,-0.07171982526779175,-0.0948878890346019,0.5505251102017238,-9.747000125679373,-0.0531684273200976,0.32737210392951965,-0.014006778597831726,0.9291362682320177,-0.08862108737230301
1745972672464081000,1.018080810546875,0.06336240088807131,1.1240127086639404,0.01965615836296034,0.3563232421875,0.2829338179224324,0.9578798443883196,0.57680185883623,right,0.0038565397262573242,-0.07522643895488053,0.6192015003364533,-9.759291451975702,-0.04503607217111097,0.5867884159088135,0.00523722916841507,0.7370235045753419,-0.01350507140159607
1745972672504081000,1.058080810546875,0.06946515374015945,0.6290479898452759,0.024658972594396457,1.370131492614746,0.30309553105994386,0.9519269747659193,0.6184273442693066,right,0.07907241582870483,-0.05529367083430053,0.6796328804235905,-9.768047589883208,-0.03687969249245626,0.8462047576904297,0.025321990251541138,0.5419691345088183,0.06191089749336243
1745972672544080600,1.09808056640625,0.14475267296364536,0.8502287268638611,0.07236008287965752,1.9226129055023193,0.31980801908425704,0.9446425347205866,0.6511246667813031,right,-0.0017363429069519043,0.02414100192268947,1.4141748703815042,-9.701260703289508,-0.011720842316382294,2.0822155475616455,-0.005895823240280151,-0.2367196200863458,0.050489094108343124
1745972672584080600,1.13808056640625,0.19618701672132524,0.6690993309020996,0.10452074246698267,1.0700948238372803,0.328266213212005,0.9387805315332336,0.6654845487344676,right,-0.07180607318878174,0.07396842220480719,1.9063924242496488,-9.59222749711871,0.0028120167087267584,1.383841633796692,-0.04806016385555267,-0.7247213646240532,0.05675392597913742
1745972672624080600,1.17808056640625,0.20488434745408848,0.3547022342681885,0.11313530031118038,-0.5941540002822876,0.33712504313628394,0.9345410251142776,0.681969957863946,right,-0.07038253545761108,0.10155289710245223,1.9849223556071518,-9.552071427819133,0.01342741948597572,-0.1770048290491104,-0.015162348747253418,-0.9941830331601202,0.010881856083869934
1745972672664080600,1.21808056640625,0.15046526122825546,0.5626370906829834,0.0877613788940991,-1.2844194173812866,0.3480661869006495,0.9331160905695294,0.7064757824849517,right,-0.014082789421081543,0.10051460565166064,1.4625795664578676,-9.64691068894267,0.021032699763345326,-0.19474461674690247,0.005607768893241882,-0.9840528304204345,0.01928029954433441
1745972672704081000,1.258080810546875,0.09609725215634304,0.7705720067024231,0.06231519013283901,-1.9746848344802856,0.35872071374670716,0.930922711876605,0.7308843644456565,right,0.03943026065826416,0.09815226458172414,0.9364139310847968,-9.71442179815769,0.02862065947597333,-0.2124844193458557,0.02676769345998764,-0.9610003830697387,0.02636103332042694
1745972672744081000,1.298080810546875,0.06408402420118316,-1.0475815534591675,0.04776553533793586,0.6889318227767944,0.35546029975655546,0.9327863878103954,0.7249370333907112,right,0.12866342067718506,0.10076802685674126,0.6248341724611819,-9.736875037506222,0.035720972615709036,0.18635860085487366,0.07164512574672699,-0.9865255041442811,0.028500810265541077
1745972672784080600,1.33808056640625,0.10460795686070325,-1.490269660949707,0.06658446196163921,1.9940816164016724,0.33958715715261917,0.9377045319469709,0.6894907414059704,right,0.11650872230529785,0.10343254353250911,1.018511564861238,-9.700918757984041,0.030940322160868866,0.3509564697742462,-0.1176244467496872,-1.0125193387091158,-0.17752563953399658
1745972672824080600,1.37808056640625,0.19691100508518397,-0.5930953025817871,0.11147862964844348,1.0220615863800049,0.3088614374713253,0.9441849283083251,0.6205454333426815,right,-0.10018062591552734,0.11882260327583205,1.9050547459051013,-9.549330604678392,0.026308561944017643,0.3756788969039917,-0.03801076114177704,-1.1625118203211575,-0.06782712787389755
1745972672864080600,1.41808056640625,0.21556862403304625,-1.1696977615356445,0.11703620542507018,0.7793522477149963,0.304014121152733,0.9453504185213362,0.6117387067333258,right,0.009470701217651367,0.09740929622235821,2.0877274810433386,-9.534261630362272,0.013801234267523277,0.08853501081466675,-0.037220895290374756,-0.9537490967672317,0.075899638235569
1745972672904080600,1.45808056640625,0.23400173648252376,-1.746300220489502,0.12256897880834358,0.5366429090499878,0.29910227092764424,0.9463155257803415,0.6033505724765598,right,0.11838477849960327,0.07583735592323051,2.2673525190487505,-9.511963289314508,0.0012909875138199097,-0.1986088752746582,-0.03612023591995239,-0.7429979028098285,0.21942365169525146
1745972672944080600,1.49808056640625,0.22068171630018374,-0.5000242590904236,0.11278128749860983,-0.9302208423614502,0.2897050392297094,0.9504200574196424,0.58603424600806,right,-0.16336464881896973,0.05150746873843222,2.1437787463501095,-9.556133270430564,-0.007292521776284345,-1.0852843523025513,-0.05975465476512909,-0.5048926187850534,0.009011000394821167
1745972672984081000,1.538080810546875,0.1862945144849795,-0.44659408926963806,0.09006409696418374,-0.8044732213020325,0.27981727846990867,0.955532901360699,0.5692180255047008,right,0.036023616790771484,0.005677395234128385,1.8163471194043754,-9.636813073298335,-0.023403493591171946,-0.7588686943054199,0.10272309184074402,-0.05567615751721896,-0.2079726606607437
1745972673024080600,1.57808056640625,0.15819522327702595,-0.27986839413642883,0.0725119973833959,-0.5103483200073242,0.2697435495219567,0.9595976526270821,0.5501230693469136,right,-0.009014129638671875,-0.02604925249301991,1.54437887487486,-9.68091115822196,-0.033954644176434026,-0.17362308502197266,0.022220760583877563,0.25542676824172955,0.003781266510486603
1745972673064080600,1.61808056640625,0.1424786517556605,-0.21848584711551666,0.06499433950375809,-0.4766749143600464,0.26586740934185715,0.9612852308517414,0.5415773402089226,right,-0.007264435291290283,-0.02687211438494032,1.3920134535863995,-9.70377531645894,-0.03195130423081811,-0.010864198207855225,0.019211217761039734,0.2634934625803493,0.005902495235204697
1745972673104080600,1.65808056640625,0.12675536489347014,-0.15710331499576569,0.057471603018977475,-0.44300150871276855,0.26197048003023454,0.9628976511878702,0.5330197722057989,right,-0.005755305290222168,-0.02756060419632207,1.2392490961082279,-9.724279759827256,-0.029945468247499784,0.151894673705101,0.016242370009422302,0.27024275417746974,0.008158059790730476
1745972673144080600,1.69808056640625,0.10977165973726759,-0.019041024148464203,0.05041789231390561,-0.34487825632095337,0.2598706385907462,0.964034974268229,0.5276854834076813,right,0.015344083309173584,-0.019504878654393723,1.0741277266863734,-9.745770876145363,-0.023706557802198176,0.21255505084991455,0.010083712637424469,0.19126517038401214,0.01154724508523941
1745972673184080600,1.73808056640625,0.10375695883323456,0.08656839281320572,0.04822532691303364,-0.3165830969810486,0.25996899881779534,0.9641980679966078,0.5274513951254128,right,0.0032027363777160645,-0.014103576678683533,1.0155829640634357,-9.752940621644258,-0.02031599644048758,0.27045848965644836,-0.02469545602798462,0.13830403484599663,-0.018791325390338898
1745972673224081000,1.778080810546875,0.09283770883487082,0.23523835837841034,0.04458058510629908,-0.22055940330028534,0.26380674152215955,0.9634586091180849,0.5345844674170902,right,0.018639564514160156,-0.0013177123634946898,0.9091193891849368,-9.764410694685578,-0.012890553642455466,0.28142207860946655,-0.02455451339483261,0.012922124738356796,0.014055700972676277
1745972673264080600,1.81808056640625,0.08981881280306685,0.25886526703834534,0.043527797052112356,-0.13570570945739746,0.2684626341874488,0.9622427905546771,0.544061105395447,right,0.0176050066947937,0.0021190495101781554,0.8796363242648542,-9.767097157290577,-0.011043016584946677,0.1809522807598114,-0.02657107263803482,-0.02078097930435324,0.00992906466126442
1745972673304080600,1.85808056640625,0.08676745258982545,0.28249216079711914,0.04247380634705933,-0.05085199326276779,0.2731111056625172,0.9610003927273818,0.5535482434661393,right,0.01655256748199463,0.0055270338594393805,0.8498182552367448,-9.769608847850561,-0.009195173509091412,0.08048246055841446,-0.02855345979332924,-0.0542016325518256,0.005773628130555153
1745972673344080600,1.89808056640625,0.08368381938749686,0.30611905455589294,0.04141863736935239,0.034001708030700684,0.2777521015560338,0.9597313912579886,0.56304615123825,right,0.01548224687576294,0.008905900545315735,0.8196683969710021,-9.771944597321749,-0.007347078806217593,-0.01998734474182129,-0.030502021312713623,-0.08733611895181238,0.0015890123322606087
1745972673384080600,1.93808056640625,0.08644316434379098,0.26229551434516907,0.042092196168034585,0.15670934319496155,0.28470558143181746,0.9576378807711261,0.577750543542892,right,0.007133543491363525,0.0047400065935659505,0.846653434530273,-9.769923320627212,-0.010039169246278176,-0.2191944122314453,-0.01274225115776062,-0.04648364661959931,0.01503780484199524
1745972673424080600,1.97808056640625,0.09463548919567483,0.20444996654987335,0.044975135155252075,0.21841482818126678,0.2885920464668962,0.956282563411425,0.586288646829379,right,-0.004194736480712891,-0.0021279421333261902,0.9266708279665559,-9.76274714538753,-0.014685446640558307,-0.1803690493106842,0.01072218269109726,0.02086772372275591,0.018257424235343933
1745972673464081000,2.018080810546875,0.10288647876261184,0.14660441875457764,0.04785597537372138,0.280120313167572,0.2924649562467375,0.9548824372144364,0.5948829600886302,right,-0.015642106533050537,-0.008925468057999519,1.0071528432399033,-9.754402510890364,-0.019331039927503058,-0.1415437012910843,0.03413922339677811,0.08752752247122116,0.02154756337404251
1745972673504081000,2.058080810546875,0.11244928261085807,-0.03332465887069702,0.05144933261936389,0.1832946389913559,0.29395348663503046,0.9541361232108013,0.5985713017670949,right,-0.01959526538848877,-0.015260490790969479,1.1003004980146884,-9.743578919059038,-0.023847393883729598,-0.16837725043296814,0.0471280962228775,0.14964822561847976,0.03802350163459778
1745972673544080600,2.09808056640625,0.11884951305048172,-0.10754440724849701,0.05311385254338439,0.08080998063087463,0.29238969906830703,0.9543725415591063,0.5960615966945387,right,-0.008828699588775635,-0.02492844377364488,1.1624128169260919,-9.734445764532685,-0.029331181624396744,-0.21592183411121368,0.0449671596288681,0.2444389440257102,0.024734199047088623
1745972673584080600,2.13808056640625,0.12177572043184953,-0.1240331381559372,0.05348044378000335,0.07756999880075455,0.2909058539954807,0.9546798003564974,0.5935194946464052,right,-0.0066588521003723145,-0.03222288191597605,1.190644566610828,-9.728973470601439,-0.033169683843751026,-0.24092037975788116,0.03190789371728897,0.3159435798563063,0.021389633417129517
1745972673624080600,2.17808056640625,0.12468891313779659,-0.12432807683944702,0.05296713331988971,-0.05423683300614357,0.2882315833367764,0.9552588766936797,0.5889512790079687,right,-0.0288543701171875,-0.045844257324492564,1.218333514655754,-9.720291566973923,-0.03996916638515999,-0.26284971833229065,-0.007044285535812378,0.4494208338666707,0.012649763375520706
1745972673664080600,2.21808056640625,0.11971195030938152,-0.1401834338903427,0.049387733921834646,-0.10046014189720154,0.2861100057377827,0.9559392932397531,0.5849032648518536,right,-0.011193394660949707,-0.054708249008814706,1.1694194077525286,-9.721897833126782,-0.043382259271396266,-0.24160972237586975,-0.009824238717556,0.5362368014018982,0.014971338212490082
1745972673704081000,2.258080810546875,0.1146964829166691,-0.1560387909412384,0.04580688753118286,-0.1466834545135498,0.283979982825414,0.9565916264271598,0.5808089388940684,right,0.006370186805725098,-0.0635519465597796,1.1200585069298743,-9.722548990511894,-0.046794081994428284,-0.22036972641944885,-0.012558631598949432,0.6228119459185749,0.017317451536655426
1745972673744081000,2.298080810546875,0.10916425811509144,-0.12396207451820374,0.04168717925097124,-0.060436781495809555,0.2810133531159499,0.9574260211146216,0.5750727802303631,right,0.01254725456237793,-0.07482463579954181,1.0654217115309088,-9.720999422982334,-0.05127505456448758,-0.21540752053260803,-0.0029669925570487976,0.7330942023023963,0.012668371200561523
1745972673784080600,2.33808056640625,0.10766847982621573,-0.07628858834505081,0.04005500845118018,-0.02124311774969101,0.2796833551847232,0.9577177784590254,0.5726655412281342,right,0.007698714733123779,-0.08171285621998704,1.0503124782696365,-9.717331548124552,-0.05431004548421469,-0.2044399380683899,0.00663350522518158,0.8004376268003135,0.005308844149112701
1745972673824080600,2.37808056640625,0.1074946722154617,0.0037202034145593643,0.03881109595455873,0.003605461213737726,0.27908687490645023,0.9577115104940583,0.571962389778336,right,-0.000697016716003418,-0.0900314959141912,1.0478728300325573,-9.710557523944974,-0.0582499277371066,-0.12648335099220276,0.0035134032368659973,0.8817148110393435,0.00189942866563797
1745972673864080600,2.41808056640625,0.1069781323880959,-0.000529095996171236,0.03825712532795761,-0.01353408582508564,0.27944649531858284,0.9575741254941516,0.572814697447878,right,0.002191305160522461,-0.09201517168052623,1.0426680279310792,-9.709339380326867,-0.05914269050294492,-0.06614422798156738,0.003124028444290161,0.9010874738987534,0.0074501633644104
1745972673904080600,2.45808056640625,0.10646322848173563,-0.004778395406901836,0.03770311233052087,-0.03067363053560257,0.27980580432972446,0.9574356864770943,0.5736662903633316,right,0.005075275897979736,-0.0939993180150562,1.0374764506373555,-9.708077982088923,-0.06003539061235094,-0.005805090069770813,0.002733297646045685,0.9204612327367067,0.013000793755054474
1745972673944080600,2.49808056640625,0.1052344839694299,-0.05048252269625664,0.03715271492413133,-0.020236395299434662,0.2791639510782744,0.9576559830007809,0.5722508709186683,right,-0.0007392764091491699,-0.09403119620465127,1.025543874650821,-9.70931599945128,-0.0598524357037562,0.008959981612861156,0.0003558248281478882,0.9207724175777285,0.017101116478443146
1745972673984081000,2.538080810546875,0.10447297903348896,-0.05979510396718979,0.0367832293745142,-0.02624194324016571,0.2783210003579249,0.9579119493799584,0.5704702045181128,right,-0.0024570822715759277,-0.0944412523017399,1.0181104367144405,-9.709718150511383,-0.05990948128243432,-0.009080874733626842,-0.0029787346720695496,0.9247758810654282,0.010085053741931915
1745972674024080600,2.57808056640625,0.1026587159199605,-0.04032989963889122,0.035605991043260676,-0.04093490540981293,0.2770865420749691,0.9582509692027471,0.5679577999247823,right,-0.0023584365844726562,-0.09716035778840054,1.000231373413652,-9.709012048068642,-0.06091277114850386,-0.05961032956838608,-0.0031120330095291138,0.9513189470108598,0.005516454577445984
1745972674064080600,2.61808056640625,0.10102382610758577,-0.029558148235082626,0.03431341226898034,-0.028815601021051407,0.27659556332171903,0.9583382319102677,0.5670768379150225,right,0.00021833181381225586,-0.10096897544981781,0.9839843682941048,-9.706959207192062,-0.062493269829386,-0.06202622875571251,-0.0035629570484161377,0.9884855521708726,0.004023157060146332
1745972674104080600,2.65808056640625,0.09991352517704209,-0.027116289362311363,0.03350303622358301,-0.031651731580495834,0.2762388422431502,0.9584136235816243,0.5663981687093322,right,-0.002199411392211914,-0.10309942649209418,0.9729938223980367,-9.705928110578656,-0.06334767752956161,-0.05058189481496811,-0.003781527280807495,1.0092694700676947,0.006729014217853546
1745972674144080600,2.69808056640625,0.0988015258391861,-0.02467442862689495,0.03269260873249244,-0.03448786213994026,0.275881640954697,0.9584877549403255,0.5657169271822388,right,-0.00462263822555542,-0.10522914935922655,0.9619860331062227,-9.704843237951398,-0.06420198581712576,-0.03913756087422371,-0.0039983391761779785,1.030041697526723,0.009436070919036865
1745972674184080600,2.73808056640625,0.0971499372820471,-0.0275893397629261,0.0317756789284493,-0.03714678809046745,0.2753376896807223,0.9586541506361966,0.5645458836725131,right,-0.002038717269897461,-0.10639122617641852,0.9458395657517016,-9.705220839092135,-0.06451164635690677,-0.008550118654966354,-0.0018118023872375488,1.0413740425977855,0.01002471148967743
1745972674224081000,2.778080810546875,0.09626138219669174,-0.01589031144976616,0.031264166471123025,-0.028267286717891693,0.2751062654082364,0.9587227994750096,0.5640495160023862,right,-0.00013023614883422852,-0.10711667532102952,0.9371427568159997,-9.70530267215669,-0.06472876547997196,-0.02163071557879448,0.001753687858581543,1.0484477803763002,0.008723527193069458
1745972674264080600,2.81808056640625,0.09558840040792804,-0.001620311290025711,0.030712494301954187,-0.021788055077195168,0.2749824501540705,0.958727985533873,0.5638525135902073,right,-0.004099369049072266,-0.10879859934662056,0.9304414325464516,-9.704162269949913,-0.06543820465981853,-0.03878547251224518,0.0011666715145111084,1.0648458113390953,0.0021245405077934265
1745972674304080600,2.85808056640625,0.09501962213634856,0.00714203342795372,0.03020646045619192,-0.019930459558963776,0.27509665154692825,0.9586639502960034,0.5641531442075205,right,-0.0014659762382507324,-0.11039475696742009,0.9247592952568083,-9.702985627385972,-0.06612851958313207,-0.04789622500538826,0.0019824430346488953,1.0804048341944814,0.003302529454231262
1745972674344080600,2.89808056640625,0.09445119126843692,0.01590437814593315,0.02970039588538655,-0.018072864040732384,0.27521063157814935,0.9585990973496064,0.564452830423919,right,0.001164555549621582,-0.11199104105771172,0.9190798613809048,-9.701780343249439,-0.06681876663036361,-0.05700697749853134,0.002797938883304596,1.0959623957451432,0.004480674862861633
1745972674384080600,2.93808056640625,0.09399036554863932,0.005955456756055355,0.029053491457225758,-0.01775570958852768,0.27551292375481723,0.9584398062446113,0.565232370897516,right,0.0003134608268737793,-0.11484142592895277,0.9143120624572038,-9.699053548634051,-0.0681307183815589,-0.05143754184246063,0.001586027443408966,1.123735514942184,0.008535996079444885
1745972674424080600,2.97808056640625,0.09341839797574188,-0.0018573133274912834,0.02855748550981733,-0.021633034572005272,0.27543559943533485,0.9584276840480195,0.5651322994254651,right,-0.0008553266525268555,-0.11644710315188109,0.9085948538541794,-9.697765846911071,-0.06881875959165357,-0.040053095668554306,-0.0005583539605140686,1.139376590057835,0.007822155952453613
1745972674464081000,3.018080810546875,0.09284618824808878,-0.009670083411037922,0.028061462447330033,-0.025510359555482864,0.2753581194153574,0.9584150348428525,0.5650314633893159,right,-0.002026975154876709,-0.11805275869852246,0.9028747957069426,-9.696450088137388,-0.06950675948449841,-0.02866865135729313,-0.0027024373412132263,1.155014596433565,0.007108628749847412
1745972674504081000,3.058080810546875,0.09114053005664834,-0.018537893891334534,0.026921718387571122,-0.04466596618294716,0.275102973673685,0.9584539789524835,0.5645279832058206,right,-0.0027384161949157715,-0.1204768869427922,0.8860771709673106,-9.69515887928307,-0.07042494666815141,-0.05832597613334656,-0.004677250981330872,1.1786183209914713,0.012613862752914429
1745972674544080600,3.09808056640625,0.08982078295689984,-0.023410983383655548,0.025992509296483814,-0.03473897650837898,0.27483324761869005,0.9584913523076471,0.5640089540749221,right,0.0027005672454833984,-0.12272583181781109,0.8730413099139929,-9.693655488982795,-0.07131269349715016,-0.07609020173549652,-0.003366023302078247,1.200510053999722,0.011459268629550934
1745972674584080600,3.13808056640625,0.0882485286918022,-0.03517696261405945,0.02479153162787268,-0.01745680160820484,0.2741436093468416,0.9586107399988256,0.562673352837075,right,0.003468036651611328,-0.12626788419510518,0.8574191586945206,-9.6907194355309,-0.07277484941555322,-0.03616536408662796,-0.0013086050748825073,1.2349768256165086,0.006838113069534302
1745972674624080600,3.17808056640625,0.08786343544031411,-0.024010350927710533,0.024465136390301224,-0.0005571264773607254,0.2734356896415659,0.9587760169696555,0.5612536677976395,right,0.0031789541244506836,-0.12765543799986648,0.8535361067160964,-9.689332949608565,-0.07336869639384902,-0.014933109283447266,-0.00350140780210495,1.2484746050931512,0.008126586675643921
1745972674664080600,3.21808056640625,0.08805628051825107,-0.01584000699222088,0.024483253259859148,0.013050450943410397,0.27302000904316676,0.9588653492878467,0.5604479802747012,right,0.00418400764465332,-0.12840169910977856,0.8553224786762148,-9.68823755558729,-0.07374236623287936,-0.01042415015399456,-0.0015955567359924316,1.2557330517888068,0.007864207029342651
1745972674704081000,3.258080810546875,0.08876659278196056,-0.013175497762858868,0.024787080289154946,0.020704099908471107,0.27271229207166275,0.9589229261862146,0.5598867798408363,right,0.0002232193946838379,-0.12881461543442965,0.8621578776542097,-9.687110012862085,-0.07403001259810418,0.001418248750269413,-0.0009076893329620361,1.259748863301426,0.005294427275657654
1745972674744081000,3.298080810546875,0.0892848898411689,-0.023550182580947876,0.025051222046720344,0.009281751699745655,0.2723286173663459,0.9590170671808391,0.5591322162365645,right,-0.0025153756141662598,-0.12890326390785498,0.8671686184883117,-9.686550625413656,-0.07413367152160732,0.006269153673201799,-0.0007360726594924927,1.260611033088714,0.006019458174705505
1745972674784080600,3.33808056640625,0.08942222444099944,-0.031025517731904984,0.02515733379294418,0.0038045919500291348,0.27178939695985205,0.9591666411564546,0.5580188690093532,right,-0.001234591007232666,-0.1289105945869429,0.8684980404611676,-9.686422030597925,-0.07414188529520083,0.004771975334733725,-0.0010574236512184143,1.2606823447592557,0.0040836334228515625
1745972674824080600,3.37808056640625,0.0893722456674508,-0.022685162723064423,0.0251363619631009,0.009625954553484917,0.2712437958594946,0.9593129633954972,0.5568951059346247,right,0.0021149516105651855,-0.12918990611613174,0.8679824921544641,-9.68611457208395,-0.07425470719550976,-0.0036503919400274754,-0.0010499954223632812,1.2633986179806291,0.0025112926959991455
1745972674864080600,3.41808056640625,0.08936211795865442,-0.018208716064691544,0.025063480614400162,0.0038905986584722996,0.270773207137561,0.959421187427944,0.5559602545208693,right,0.0011171698570251465,-0.12993338517165806,0.8678003405205905,-9.685185182279348,-0.07459764779976172,-0.016475526615977287,-0.0010068044066429138,1.2706285692341626,0.00306856632232666
1745972674904080600,3.45808056640625,0.08956080664690641,-0.011648837476968765,0.025033025685881238,0.006123035214841366,0.270436548930974,0.9594751332748582,0.5553422684213124,right,0.00023120641708374023,-0.13101156924452567,0.8696016177888959,-9.683642629012464,-0.07513316124114998,-0.02370167337357998,-0.0005803108215332031,1.2811121154561638,0.0038845688104629517
1745972674944081000,3.498080810546875,0.08994317004273694,0.004488416016101837,0.025078983187279642,-0.004980496130883694,0.27029151359206627,0.959471265721852,0.5551369075575315,right,-0.011209368705749512,-0.1320637426568172,0.8731826180808245,-9.681961544057726,-0.07568619901653836,-0.012235773727297783,-0.005388215184211731,1.291341248525679,-0.002087622880935669
1745972674984081000,3.538080810546875,0.0884153140499659,0.035212304443120956,0.024301432736488368,-0.051452796906232834,0.27075253222248147,0.959373318187946,0.5559833405687233,right,-0.004218935966491699,-0.1321551444471784,0.8583785783112049,-9.683166243672371,-0.07553375999460435,0.0027027474716305733,0.001984022557735443,1.2922298679284752,0.005678385496139526
1745972675024080600,3.57808056640625,0.08677653445090713,0.059631817042827606,0.023458863899813928,-0.028404414653778076,0.27180639345308444,0.9591174979246244,0.5580422590944158,right,0.008290410041809082,-0.13200308769291177,0.8425258332062512,-9.684755558690428,-0.07526325259564785,0.004744102247059345,0.006142668426036835,1.2907516120694578,0.009662836790084839
1745972675064080600,3.61808056640625,0.08722992580279808,0.04824085533618927,0.02365005426456923,0.02775745838880539,0.2728951886095042,0.95881273593132,0.5603218546342063,right,0.00808650255203247,-0.13157469818152262,0.8469648385670036,-9.684922731950879,-0.0751467719389634,0.015029004774987698,0.0071317702531814575,1.2865870397359132,0.01179569959640503
1745972675104080600,3.65808056640625,0.088793104891842,0.005164925009012222,0.02444303689349848,0.03593401610851288,0.2733556752991543,0.9586662802809145,0.5613675066122701,right,0.003383338451385498,-0.1309796243692771,0.862170810201019,-9.684347562411427,-0.0750880296567044,0.022994589060544968,0.008539669215679169,1.2808014420717955,0.013320490717887878
1745972675144080600,3.69808056640625,0.08991495012686851,-0.04818638041615486,0.02508641781587837,0.02571198344230652,0.27283501989302894,0.9588050370365863,0.5603386758121087,right,0.0003898143768310547,-0.1304988226278575,0.8730898252308368,-9.68398691240549,-0.0749983787281865,0.024150028824806213,0.007962405681610107,1.276126728259027,0.009343266487121582
1745972675184080600,3.73808056640625,0.0904218611922822,-0.07333053648471832,0.025440526922406254,0.015957944095134735,0.2715131063971246,0.9591705689860971,0.5576172791634845,right,-0.00021779537200927734,-0.13043406096601323,0.8780060927145182,-9.683625093355774,-0.07500198939890691,0.010443763807415962,0.005207456648349762,1.275497052053362,0.0006315857172012329
1745972675224081000,3.778080810546875,0.090479226091536,-0.055569835007190704,0.025517496223757763,-0.0075721777975559235,0.2701820495172399,0.9595318722278593,0.5548716152633747,right,-0.0018851161003112793,-0.13082188269876613,0.8785168187156319,-9.683081487998367,-0.07516049718674908,-0.003034869208931923,0.002133116126060486,1.2792678027637303,-0.004748985171318054
1745972675264080600,3.81808056640625,0.09019999628924705,-0.028991280123591423,0.025331536644979145,-0.003594844602048397,0.26964481245321237,0.9596665282632393,0.5537732368572766,right,-0.00141221284866333,-0.13149921060841158,0.8757347137164324,-9.682461310273409,-0.07543328183251491,-0.010094977915287018,0.000008553266525268555,1.2858531725034117,-0.004401311278343201
1745972675304080600,3.85808056640625,0.0899199977733763,-0.0024127252399921417,0.02514556700176726,0.000382488127797842,0.2691074797149252,0.9598008148291263,0.5526746198310021,right,-0.0009396672248840332,-0.13217624366504258,0.8729452291283756,-9.681837040895223,-0.07570603833034102,-0.017155086621642113,-0.0021152570843696594,1.2924348889812827,-0.004053279757499695
1745972675344080600,3.89808056640625,0.08985849715150383,-0.0007659108377993107,0.025048982296296447,-0.001042829710058868,0.2691670965044585,0.9597702515140225,0.5528225135395085,right,-0.0017441511154174805,-0.13262350159007638,0.8722978711355477,-9.681313893803953,-0.07591388728739701,-0.013831470161676407,-0.0013945400714874268,1.2967825627967715,-0.0012141317129135132
1745972675384080600,3.93808056640625,0.08985849715150383,0.0008809035643935204,0.025048982296296447,-0.002468147547915578,0.2691670965044585,0.9597702515140225,0.5528225135395085,right,-0.002495288848876953,-0.13262350159007638,0.8722978711355477,-9.681313893803953,-0.07591388728739701,-0.010507853701710701,-0.0007398352026939392,1.2967825627967715,0.0020683705806732178
1745972675424080600,3.97808056640625,0.08936027969079603,-0.0018612947314977646,0.024706040640532546,-0.013678130693733692,0.2691886317159967,0.9597501840670792,0.5528750715158791,right,-0.0034731626510620117,-0.1333645426792759,0.8673883256535977,-9.680787239581345,-0.07620249929429068,-0.010927285999059677,0.0008962154388427734,1.3039856260433793,0.002524629235267639
1745972675464081000,4.018080810546875,0.08847834746519691,-0.0008123063016682863,0.02419975470822459,-0.025138679891824722,0.2692212874972082,0.9597407181745564,0.5529107367379079,right,-0.0024572014808654785,-0.1339589855976711,0.8587815330889076,-9.680774964621662,-0.07636899798637528,-0.013925740495324135,-0.00011931359767913818,1.3097630404010414,0.0011232942342758179
1745972675504081000,4.058080810546875,0.0874345391881679,0.002768576145172119,0.023584050831065847,-0.025373587384819984,0.2693289246435841,0.9597069221954292,0.5531011372988456,right,0.00037401914596557617,-0.13474120853503346,0.8485865214847028,-9.680642278152703,-0.07660547214658432,-0.024171244353055954,-0.0008471831679344177,1.3173648937068878,0.001087382435798645
1745972675544080600,4.09808056640625,0.08650322305070175,0.009635821916162968,0.02298233960646941,-0.021417243406176567,0.26954603833980173,0.959631728696389,0.5535419374366928,right,0.0023859143257141113,-0.13574386265795635,0.8394558511763811,-9.68010744062364,-0.07696544464349352,-0.027479831129312515,-0.0025225430727005005,1.3271078506946563,0.001623883843421936
1745972675584080600,4.13808056640625,0.08580413442164835,0.008257435634732246,0.022483655551547153,-0.01488018874078989,0.26979561048249123,0.9595405144262342,0.5540706856531242,right,0.0026345252990722656,-0.13678170229394812,0.8325698910549283,-9.679314828941225,-0.07737431017273232,-0.027829769998788834,-0.0016713887453079224,1.3371911455526948,0.004300594329833984
1745972675624080600,4.17808056640625,0.08548933480052778,0.0001732446253299713,0.02216149311463062,0.0005635935813188553,0.26992771131040333,0.9594694786629373,0.5543924356356558,right,0.002329409122467041,-0.13793336833222747,0.8293908226273954,-9.678035310524702,-0.07788700522966766,-0.02780955471098423,-0.001998916268348694,1.348378894521296,0.004358693957328796
1745972675664080600,4.21808056640625,0.08549437738872294,-0.004371323622763157,0.022050134367139748,0.009359341114759445,0.2698627578533517,0.9594571531430218,0.5543104142040921,right,0.0038167834281921387,-0.13878234016108468,0.8293415766581892,-9.676887309533358,-0.07829337917401875,-0.014710535295307636,-0.002366267144680023,1.356624890949577,0.00376090407371521
1745972675704081000,4.258080810546875,0.08604185500594197,-0.0008523429278284311,0.022197241231931956,0.017818227410316467,0.26974929623242805,0.9594453595760596,0.5541737361724467,right,0.0004424452781677246,-0.13965988115369643,0.8345366610832512,-9.675241880413889,-0.07878598523073081,-0.0181339830160141,-0.003726482391357422,1.3651473662316798,0.003177151083946228
1745972675744081000,4.298080810546875,0.08666414844120521,0.003612652188166976,0.022374169185532464,0.021288353949785233,0.2697182617179892,0.9594086540497583,0.5542152395533876,right,0.002572000026702881,-0.1405305478532729,0.8404541414987295,-9.673532738408445,-0.07928732732882451,-0.015878673642873764,-0.0008333846926689148,1.373602036974579,0.0014890432357788086
1745972675784080600,4.33808056640625,0.08766703744327599,0.010847075842320919,0.022741056203079497,0.03095574676990509,0.2698107477525598,0.9593333183777472,0.5545379762107994,right,0.00027811527252197266,-0.14126586486286735,0.8500665309093892,-9.671676296886801,-0.07977834292222012,-0.011129552498459816,0.0020798295736312866,1.3807415334656834,0.0022377967834472656
1745972675824080600,4.37808056640625,0.08830027483335091,0.006955331191420555,0.02298120691910272,0.0156185207888484,0.26992622661675214,0.959272990962974,0.554855163880745,right,-0.001344144344329834,-0.14163498038727765,0.8561458508230745,-9.670627664616703,-0.08004414464163148,-0.009932476095855236,0.004449114203453064,1.3843250910408793,0.003907591104507446
1745972675864080600,4.41808056640625,0.08893366592126124,0.003063586773350835,0.023221352390442963,0.0002812957391142845,0.27004172422424977,0.9592124759960007,0.5551727100210457,right,-0.0029668807983398438,-0.14200388295133817,0.862225536062941,-9.669574356171488,-0.08030993238230234,-0.008735398761928082,0.00681835412979126,1.3879064566589892,0.005577608942985535
1745972675904080600,4.45808056640625,0.08893366592126124,-0.004582123830914497,0.023221352390442963,-0.03350492939352989,0.27004172422424977,0.9592124759960007,0.5551727100210457,right,-0.005768716335296631,-0.14200388295133817,0.862225536062941,-9.669574356171488,-0.08030993238230234,-0.008696995675563812,0.0037942230701446533,1.3879064566589892,0.004305511713027954
1745972675944081000,4.498080810546875,0.0877530964930534,-0.0016843273770064116,0.022558661571572016,-0.023846758529543877,0.2699821590190924,0.9592284965814818,0.5549978914690317,right,-0.0013342499732971191,-0.1427537832633309,0.8507179074902087,-9.669545714598893,-0.08050756164833738,-0.008176983334124088,0.002292737364768982,1.3951860922731458,0.0021346956491470337
1745972675984081000,4.538080810546875,0.08684703558372464,0.000781509093940258,0.02205741077656492,-0.023382462561130524,0.26998261300661325,0.959230398306232,0.5549544927184803,right,0.00028014183044433594,-0.14324975581298866,0.8418962300658226,-9.669622286966442,-0.08062221932687083,-0.011532235890626907,0.0024539679288864136,1.400000360687077,0.002249777317047119
1745972676024080600,4.57808056640625,0.08634084453978992,0.011881339363753796,0.02173028556903833,-0.015189141035079956,0.27018903694909163,0.9591655020377414,0.5553734975959168,right,-0.00014919042587280273,-0.1437384267407056,0.8369423339854926,-9.669364512813091,-0.08079239213566498,-0.010362101718783379,0.0023178979754447937,1.4047433174304664,0.00011457502841949463
1745972676064080600,4.61808056640625,0.08595100022176927,0.01814618706703186,0.02146117483562892,-0.008471095934510231,0.27051114221121564,0.9590683903576456,0.5560377327408852,right,-0.0001525282859802246,-0.144138705530826,0.8331243831325322,-9.669128950491547,-0.08093848971278671,-0.012493188492953777,0.0009838417172431946,1.4086280499093233,0.0012024939060211182
1745972676104080600,4.65808056640625,0.08558725554720531,0.013708808459341526,0.021185998191633346,-0.006473398767411709,0.27087380998892047,0.9589551017261988,0.5567954837170739,right,0.001826941967010498,-0.14464517350382042,0.8295461593195795,-9.668719200646876,-0.08113976427336282,-0.012664441019296646,0.0006030648946762085,1.4135431483492253,0.0025517046451568604
1745972676144080600,4.69808056640625,0.08541276595865471,0.010511461645364761,0.021003858095599622,-0.0041196104139089584,0.27115075313183234,0.9588606748693563,0.5573923934443215,right,0.0017626285552978516,-0.14518120765201867,0.8277942741509526,-9.668107790750264,-0.08137895387302749,-0.013650900684297085,0.0009281784296035767,1.4187448086455463,0.0035952478647232056
1745972676184080600,4.73808056640625,0.08541276595865471,0.0032416940666735172,0.021003858095599622,0.004742177203297615,0.27115075313183234,0.9588606748693563,0.5573923934443215,right,-0.001242518424987793,-0.14518120765201867,0.8277942741509526,-9.668107790750264,-0.08137895387302749,-0.014717173762619495,0.001437172293663025,1.4187448086455463,0.004523754119873047
1745972676224081000,4.778080810546875,0.08576132108444323,0.000032495707273483276,0.021002125299226092,0.0027821080293506384,0.2712556660060733,0.9587807846666414,0.557712405887748,right,-0.0005638003349304199,-0.14630506879679245,0.8310269724618643,-9.666223876699805,-0.08196741792322024,-0.012236103415489197,0.0017226338386535645,1.429649210628122,0.0016728341579437256
1745972676264080600,4.81808056640625,0.08595524472963227,0.0029086803551763296,0.021016284548622803,0.000981727964244783,0.27131707699312263,0.9587396602442241,0.5578901305429614,right,-0.001601099967956543,-0.1468207775776273,0.8328381135370582,-9.665326635599136,-0.08224235404758247,-0.008979166857898235,0.0029816031455993652,1.4346524257428943,0.0012936890125274658
1745972676304080600,4.85808056640625,0.08595524472963227,0.01210616622120142,0.021016284548622803,-0.0019143220270052552,0.27131707699312263,0.9587396602442241,0.5578901305429614,right,0.000644981861114502,-0.1468207775776273,0.8328381135370582,-9.665326635599136,-0.08224235404758247,-0.008906924165785313,0.001377105712890625,1.4346524257428943,-0.00006435811519622803
1745972676344080600,4.89808056640625,0.08598550047363436,0.013665758073329926,0.020921124005641473,-0.010490862652659416,0.27179206278118484,0.9585859210512647,0.5589147952726295,right,-0.0022034645080566406,-0.14730678647057488,0.8330705340534448,-9.664605335587263,-0.08248974322840698,-0.0003414582461118698,-0.0011607557535171509,1.439367033174634,0.0010722577571868896
1745972676384080600,4.93808056640625,0.08565173901197158,0.013565105386078358,0.02072389173641613,0.0025654928758740425,0.27214612873393146,0.9584906584907867,0.5596284346609335,right,-0.0008139610290527344,-0.14736316721242992,0.8298379088077694,-9.664802319464087,-0.08247876199958985,-0.006308692041784525,0.0000683516263961792,1.4399139995329082,0.0036120712757110596
1745972676424080600,4.97808056640625,0.0856471108409706,0.010128458961844444,0.02063823798485028,-0.004039796534925699,0.2724623031444859,0.9583857938301004,0.5603131921621023,right,0.0012880563735961914,-0.1477594990059703,0.8297442391749471,-9.66423650227487,-0.0826747962014317,-0.015819279477000237,-0.0011933371424674988,1.4437584000013768,0.005360826849937439
1745972676464081000,5.018080810546875,0.08564784965631447,-0.0027864743024110794,0.020507900342067335,0.003213339950889349,0.2726011839109957,0.9583142043699138,0.5606567177518581,right,0.003350377082824707,-0.14859544456201126,0.829647866128385,-9.663030049094557,-0.08307826223971886,-0.02341247908771038,-0.0011395663022994995,1.451866449263692,0.005422040820121765
1745972676504081000,5.058080810546875,0.08603331640754447,-0.01282566413283348,0.020565545210443563,0.016702312976121902,0.2724679265178228,0.9583062099537751,0.5604743209186204,right,0.0021683573722839355,-0.14956181558341167,0.8332516627740114,-9.66130746308565,-0.08359110862549132,-0.019684916362166405,-0.00017245858907699585,1.4612380887210368,0.00629366934299469
1745972676544080600,5.09808056640625,0.08654665627130323,-0.02059079334139824,0.02067222577660999,0.02011239156126976,0.27208644712947366,0.9583563963509287,0.5598010371006451,right,0.0023531317710876465,-0.15076500687113709,0.8380584785338491,-9.659119597652554,-0.08422950526887694,-0.025647247210144997,0.0009651035070419312,1.4729045611172913,0.004139691591262817
1745972676584080600,5.13808056640625,0.08744672320925903,-0.010179218836128712,0.020982099805467353,0.02872595377266407,0.2717020848827283,0.9584033964434278,0.5591482555442439,right,0.0016228556632995605,-0.15183631418625776,0.8466136870417743,-9.656783848181366,-0.08485744884801526,-0.016918588429689407,0.0007300302386283875,1.4832904921837151,0.00017406046390533447
1745972676624080600,5.17808056640625,0.0881610246274015,0.0075446320697665215,0.02124183921222614,0.014430182054638863,0.2716574385460597,0.9583766582364153,0.5591573361083221,right,-0.0009222030639648438,-0.1524272334934601,0.8534340345811098,-9.65530208519101,-0.08523719460773332,-0.012694915756583214,0.001416139304637909,1.4890185144416987,0.0026043355464935303
1745972676664080600,5.21808056640625,0.0887094777129676,0.022413527593016624,0.02137700793688151,0.009841784834861755,0.2719602617441529,0.958250721190232,0.5598841045937336,right,-0.0020932555198669434,-0.1531212831989741,0.8586375945735722,-9.653801032978295,-0.0856513977971353,-0.017272690311074257,0.0013576149940490723,1.495745630739629,0.003701120615005493
1745972676704081000,5.258080810546875,0.08917416335430293,0.023906612768769264,0.021484892831866553,0.006455552764236927,0.27249127301884396,0.9580710795589146,0.5610647647759477,right,-0.0010013580322265625,-0.15358108641286652,0.8630621330175549,-9.652714991307258,-0.08594713715868298,-0.008891564793884754,0.002089381217956543,1.5002017333656548,0.004773750901222229
1745972676744081000,5.298080810546875,0.08966072202784697,0.016474636271595955,0.02165228500038229,0.017562106251716614,0.2728795742329666,0.9579412585808766,0.5619326674394318,right,0.0025503039360046387,-0.15378401038800615,0.8677313669376074,-9.651990184164047,-0.0861198454706292,0.006538111716508865,0.0013891905546188354,1.5021683572635054,0.004752129316329956
1745972676784080600,5.33808056640625,0.09032610810636778,0.0022444948554039,0.022006419143756496,0.015327781438827515,0.27297978267735223,0.9579103382529846,0.5621795222497639,right,-0.0003527402877807617,-0.15345445369126845,0.8741980787336826,-9.651903090402483,-0.08605581670162228,0.017880180850625038,-0.0010978654026985168,1.498974529658258,0.005064427852630615
1745972676824080600,5.37808056640625,0.09096500360131181,-0.01164307165890932,0.022378724637631464,0.017253870144486427,0.27281853484366253,0.9579564878325079,0.5618745798810739,right,0.0006954669952392578,-0.15307399340222996,0.8804162225961685,-9.65191010466516,-0.08595774507013897,0.01201367937028408,0.0005854815244674683,1.4952872194476425,0.0037504583597183228
1745972676864080600,5.41808056640625,0.09156443760523551,-0.01644216850399971,0.022740667479093358,0.02303278259932995,0.2724740022048003,0.9580532145711794,0.5611870932511337,right,0.001862645149230957,-0.15274979875984931,0.8862460247281938,-9.651862758392095,-0.08587673649550476,0.010089307092130184,0.002179861068725586,1.4921451220296322,0.0027158111333847046
1745972676904080600,5.45808056640625,0.09243251777538129,-0.020401006564497948,0.0232268148039951,0.023817628622055054,0.2720369197972735,0.9581663972352293,0.5603360616941251,right,0.0010230541229248047,-0.1525078641693963,0.8946575869817286,-9.651448916894196,-0.0858694618610163,0.014032239094376564,0.004091203212738037,1.4898000202082096,-0.00030381977558135986
1745972676944081000,5.498080810546875,0.09313262746908295,-0.01673753932118416,0.02364636843537238,0.010207941755652428,0.27162439913713005,0.9582805948785986,0.5595138528908911,right,-0.0029892921447753906,-0.15215729463420802,0.9014629561476409,-9.651339611300825,-0.08578735484069328,0.009529497474431992,0.005559414625167847,1.4864020483329892,-0.0012823790311813354
1745972676984081000,5.538080810546875,0.0931685974962338,-0.014746320433914661,0.02368898689757735,-0.00622161477804184,0.2712736566895437,0.9583774776663782,0.5587879293334745,right,-0.001846909523010254,-0.15219868222630947,0.9018043899964541,-9.651246087798476,-0.08580343494107814,-0.001140139065682888,0.005233041942119598,1.4868031764797864,-0.0006766319274902344
1745972677024080600,5.57808056640625,0.0931685974962338,-0.010717220604419708,0.02368898689757735,-0.014070741832256317,0.2712736566895437,0.9583774776663782,0.5587879293334745,right,-0.004241943359375,-0.15219868222630947,0.9018043899964541,-9.651246087798476,-0.08580343494107814,-0.005117963068187237,0.002465292811393738,1.4868031764797864,-0.001060187816619873
1745972677064080600,5.61808056640625,0.09264478257865798,-0.0034642410464584827,0.023397766433069164,-0.0030396850779652596,0.27102600150280376,0.9584421176913525,0.558255173909688,right,0.00012564659118652344,-0.15265257704563073,0.8966862432651221,-9.651043843224643,-0.08594321881687718,-0.003135208273306489,0.0027455613017082214,1.491202726612985,0.0009902715682983398
1745972677104080600,5.65808056640625,0.09264478257865798,0.00048564840108156204,0.023397766433069164,0.0007223589345812798,0.27102600150280376,0.9584421176913525,0.558255173909688,right,0.00022965669631958008,-0.15265257704563073,0.8966862432651221,-9.651043843224643,-0.08594321881687718,0.003657254157587886,0.002179346978664398,1.491202726612985,0.003531232476234436
1745972677144080600,5.69808056640625,0.09294547488665328,-0.002602189779281616,0.023601968139963247,0.006593912839889526,0.2709838207169489,0.9584629253845045,0.5581664698412596,right,0.0018769502639770508,-0.1522473001099303,0.899644216287881,-9.651375267136096,-0.08578908857510202,0.02340836450457573,0.0015731006860733032,1.4872744472533463,0.003407403826713562
1745972677184080600,5.73808056640625,0.0934337190644445,-0.007207846734672785,0.024020889152550507,0.014505589380860329,0.27086081427350767,0.9585345101029812,0.55786859297062,right,0.000628352165222168,-0.15100717237690064,0.9045277505457401,-9.652763506624103,-0.08525856549525004,0.044354550540447235,0.0017105713486671448,1.47525243941769,0.004023388028144836
1745972677224081000,5.778080810546875,0.09377457227526467,-0.013908347114920616,0.02442547697875981,0.007934104651212692,0.2705931907542802,0.9586619191005068,0.5572349056045897,right,-0.0018544197082519531,-0.14946244224617322,0.9080301326435058,-9.654711718082428,-0.08455813338393817,0.040411219000816345,0.002118639647960663,1.4602745043858885,0.004303231835365295
1745972677264080600,5.81808056640625,0.09400830780564723,-0.010489903390407562,0.024719823541418825,0.008637532591819763,0.270298294990784,0.9587822647641768,0.5565644232164777,right,-0.000970304012298584,-0.14835086989865684,0.9104385820247233,-9.656109309920668,-0.08404972436971994,0.033226512372493744,0.0009343400597572327,1.4494943133048712,-0.00045809149742126465
1745972677304080600,5.85808056640625,0.09401919666309197,-0.01640624925494194,0.02490553112798386,0.0045526097528636456,0.26994187813870385,0.9589228491739862,0.5557499225841188,right,0.0021077990531921387,-0.14729331146645547,0.9106871499583125,-9.657620299005508,-0.08353507523270967,0.028583217412233353,0.0018418803811073303,1.4392362464018165,0.0009744614362716675
1745972677344080600,5.89808056640625,0.09427768184563447,-0.025623925030231476,0.025179559228630962,0.014129580929875374,0.26945844538934,0.9590818815928103,0.5547116081044409,right,-0.0005230903625488281,-0.14652030627252513,0.9132879070412367,-9.658489483055472,-0.08318700781167362,0.019438279792666435,0.0006191357970237732,1.4317374150790274,-0.0008077174425125122
1745972677384080600,5.93808056640625,0.09436089214866646,-0.048277273774147034,0.025355246731894293,-0.005213817581534386,0.26877999460992935,0.9592910005228508,0.5532668237215835,right,-0.0015066266059875488,-0.1459706366239468,0.9141656397238374,-9.659195585498214,-0.08291685121564146,0.005154079757630825,0.00008271634578704834,1.4264045296184718,0.006411522626876831
1745972677424080600,5.97808056640625,0.09404057424456472,-0.071810781955719,0.025272273224384377,0.007080100476741791,0.2676081701296777,0.959617791857867,0.5508118044274375,right,0.0006722807884216309,-0.14619705731480476,0.9110412240929902,-9.659165774881838,-0.08295123127216315,-0.0038674306124448776,0.0005108341574668884,1.4286013090103864,0.0005970150232315063
1745972677464081000,6.018080810546875,0.09383645404998217,-0.07884334027767181,0.025215103670370515,0.004555108956992626,0.26615003216972405,0.9600048294630135,0.5477975026147986,right,-0.0020332932472229004,-0.1468142931194961,0.9089867757812142,-9.65847194739878,-0.08318158465300665,-0.009201060980558395,0.0008315593004226685,1.4345894435092805,-0.0007251054048538208
1745972677504081000,6.058080810546875,0.09345559871117366,-0.07014407962560654,0.02507068410050041,0.0024718206841498613,0.264683818433518,0.9603945833123395,0.5447542585227748,right,-0.000372469425201416,-0.147463532134446,0.9052211396373808,-9.657888010030984,-0.08340388417445113,-0.008218263275921345,0.0011657923460006714,1.4408875207401812,-0.005395844578742981
1745972677544080600,6.09808056640625,0.09318655558591954,-0.045191749930381775,0.025002667184417182,-0.000881989486515522,0.2635192495853555,0.960709995471171,0.5423260440846034,right,-0.0014185905456542969,-0.14775984671979772,0.9025829000882803,-9.657705639201403,-0.08347999372094944,-0.0031366944313049316,0.0004752129316329956,1.4437617610022424,-0.007320120930671692
1745972677584080600,6.13808056640625,0.0928021106892107,-0.014838697388768196,0.024866255122152372,-0.004419369623064995,0.26288167567827875,0.9608914517974866,0.540969600550891,right,-0.0010251998901367188,-0.14782158657412503,0.8988617606732994,-9.657963413354754,-0.0834420957417008,-0.00004457822069525719,-0.0008081421256065369,1.4443606036782264,-0.006482914090156555
1745972677624080600,6.17808056640625,0.0928021106892107,-0.00012325122952461243,0.024866255122152372,-0.004356274846941233,0.26288167567827875,0.9608914517974866,0.540969600550891,right,0.001407921314239502,-0.14782158657412503,0.8988617606732994,-9.657963413354754,-0.0834420957417008,0.00007382090552709997,-0.00005951523780822754,1.4443606036782264,-0.0042420923709869385
1745972677664080600,6.21808056640625,0.0928021106892107,-0.0003566003288142383,0.024866255122152372,-0.001470537157729268,0.26288167567827875,0.9608914517974866,0.540969600550891,right,0.0007171034812927246,-0.14782158657412503,0.8988617606732994,-9.657963413354754,-0.0834420957417008,-0.004681425169110298,0.0003928244113922119,1.4443606036782264,-0.00020813941955566406
1745972677704081000,6.258080810546875,0.0928021106892107,-0.011668800376355648,0.024866255122152372,0.005198925733566284,0.26288167567827875,0.9608914517974866,0.540969600550891,right,-0.002117156982421875,-0.14782158657412503,0.8988617606732994,-9.657963413354754,-0.0834420957417008,-0.011312028393149376,0.0010957717895507812,1.4443606036782264,0.0006756186485290527
1745972677744081000,6.298080810546875,0.092661717587068,-0.018156375735998154,0.024753843364355956,0.015049931593239307,0.26245968064929814,0.960987294404477,0.5401190866786523,right,0.00141143798828125,-0.14841944818724953,0.8974257365208118,-9.657228084817529,-0.08369981327063222,-0.011475345119833946,0.004703424870967865,1.4501594992153346,0.0021975189447402954
1745972677784080600,6.33808056640625,0.09303447292371458,-0.017608437687158585,0.02481888118472424,0.004144378937780857,0.2620771343760585,0.9610419014446945,0.5394268951967066,right,-0.0028843283653259277,-0.14948396708633024,0.9008815760631114,-9.655350015985965,-0.08425064321035292,-0.027579626068472862,0.0036975517868995667,1.4604831787005066,0.0030605196952819824
1745972677824080600,6.37808056640625,0.09300096100300391,-0.0065234387293457985,0.02464023449025508,-0.0008222423493862152,0.26181316318980297,0.9610620629013963,0.5389657252053408,right,0.0005446076393127441,-0.1508391163784173,0.9003733342800289,-9.65340063548386,-0.08489048498386627,-0.03185545280575752,0.0037093088030815125,1.4736230846501885,-0.000020697712898254395
1745972677864080600,6.41808056640625,0.09303935637697935,0.0029121842235326767,0.024477500073277637,0.0003426999319344759,0.2617540934714082,0.9610242225701643,0.5389378320945838,right,0.0009328722953796387,-0.1521972424350291,0.9005572394795716,-9.651364745742082,-0.08554649694823638,-0.029237866401672363,0.003095768392086029,1.4867892940849066,-0.0014995336532592773
1745972677904080600,6.45808056640625,0.09306967588158624,0.007666036486625671,0.02433195560454437,-0.0022449626121670008,0.26185516769754696,0.9609526054800084,0.5392253051826638,right,-0.00014454126358032227,-0.15329741416278705,0.9006973055373877,-9.649702950009702,-0.08608155989859886,-0.03045765683054924,0.0024873018264770508,1.4974525807879864,0.001372113823890686
1745972677944081000,6.498080810546875,0.0928450547359397,0.006163422949612141,0.024064088777410213,-0.00806848332285881,0.2620519499470608,0.9608628780659361,0.5396852792978816,right,0.0009485483169555664,-0.1543396356439217,0.8983845716156065,-9.64834569018185,-0.08655746030566865,-0.026213359087705612,0.0034957975149154663,1.5075526806503534,0.004097893834114075
1745972677984081000,6.538080810546875,0.0923153391344519,-0.0034115323796868324,0.023722386563553882,-0.020252544432878494,0.2621270940042119,0.9608310440466883,0.5398345638152242,right,0.0009098052978515625,-0.15494002337515383,0.8931899255819619,-9.64791723563671,-0.08677769257941523,-0.0038469210267066956,0.0027383267879486084,1.513370134757459,0.0027035921812057495
1745972678024080600,6.57808056640625,0.09187738979129188,-0.01253307331353426,0.023513028333623013,-0.006797769106924534,0.2620000420541645,0.9608725983342447,0.5395365607461774,right,0.0007353425025939941,-0.15502841994082914,0.8889522880122065,-9.648174425268172,-0.08675916431144771,0.005940411239862442,0.00019270926713943481,1.5142266054563223,0.0021583586931228638
1745972678064080600,6.61808056640625,0.09187738979129188,-0.02224789559841156,0.023513028333623013,-0.012784997001290321,0.2620000420541645,0.9608725983342447,0.5395365607461774,right,-0.00013494491577148438,-0.15502841994082914,0.8889522880122065,-9.648174425268172,-0.08675916431144771,0.011485980823636055,0.0012210533022880554,1.5142266054563223,0.0007217228412628174
1745972678104080600,6.65808056640625,0.0908817518497605,-0.017018334940075874,0.023157432532447834,-0.004615047946572304,0.26125341101865085,0.9611141903698526,0.5378676787361034,right,0.0009002089500427246,-0.1546518034728925,0.879397474007681,-9.649621701467037,-0.08642884784111501,0.010820480063557625,0.0028413981199264526,1.510577435299009,-0.004632160067558289
1745972678144080600,6.69808056640625,0.09069787671848505,-0.00640525296330452,0.023149817239464906,-0.0062937624752521515,0.2609658227165513,0.9612124026704458,0.5372263322268973,right,-0.0020404458045959473,-0.15425554017379473,0.8776772991515696,-9.65037865731418,-0.08620734783963488,0.006967062130570412,0.0013583749532699585,1.506737711005658,-0.0019192099571228027
1745972678184080600,6.73808056640625,0.09069787671848505,0.0007416927255690098,0.023149817239464906,-0.017904696986079216,0.2609658227165513,0.9612124026704458,0.5372263322268973,right,-0.00155562162399292,-0.15425554017379473,0.8776772991515696,-9.65037865731418,-0.08620734783963488,-0.0071811918169260025,-0.0005808919668197632,1.506737711005658,0.0004832744598388672
1745972678224081000,6.778080810546875,0.08985975075544135,-0.0014232206158339977,0.022684609526514275,-0.0134819857776165,0.261044527306237,0.9611934644312844,0.5373433793311938,right,0.00035643577575683594,-0.15468402761918115,0.8695307445097714,-9.650466920119523,-0.08630483857599751,-0.016551420092582703,0.0018317699432373047,1.5108897161185741,0.001893952488899231
1745972678264080600,6.81808056640625,0.08940478940456448,-0.0074565215036273,0.022374366118237798,-0.007182049565017223,0.2609933049642404,0.9611891220882999,0.5372432717499613,right,-0.0009369850158691406,-0.15540060310245926,0.8650431507669388,-9.649780691421032,-0.08658806215736495,-0.0197183545678854,0.002663359045982361,1.5178326671242712,0.0028756409883499146
1745972678304080600,6.85808056640625,0.08912400996708404,-0.011160800233483315,0.022148187711720557,-0.007471629884094,0.2608090976242919,0.9612134852945029,0.5368873181585841,right,-0.0009799003601074219,-0.15619789514865304,0.8622256821934133,-9.648815061259269,-0.08692991865098897,-0.01863078959286213,0.0017589330673217773,1.5255566855050622,0.0015911757946014404
1745972678344080600,6.89808056640625,0.088881612454752,-0.006051243282854557,0.021940691386362853,-0.00011145835742354393,0.2605954826710717,0.9612440020245353,0.5364747008466371,right,0.00019484758377075195,-0.15701286707315562,0.8597761701494455,-9.647782211080193,-0.08728471171273723,-0.016599738970398903,0.0020348727703094482,1.5334510920166968,-0.0019504278898239136
1745972678384080600,6.93808056640625,0.088881612454752,0.0076241763308644295,0.021940691386362853,-0.005599879194051027,0.2605954826710717,0.9612440020245353,0.5364747008466371,right,-0.001481473445892334,-0.15701286707315562,0.8597761701494455,-9.647782211080193,-0.08728471171273723,-0.010017504915595055,0.000667870044708252,1.5334510920166968,-0.0015140324831008911
1745972678424080600,6.97808056640625,0.08872019340052553,0.008931761607527733,0.021730876903414194,-0.014021063223481178,0.26080542554835007,0.9611569726431147,0.5369518884358716,right,-0.0024582743644714355,-0.1578457285228219,0.8581053143277764,-9.646645316004753,-0.08766837727128608,-0.009730447083711624,-0.00018443167209625244,1.541517640224844,-0.00043307244777679443
1745972678464081000,7.018080810546875,0.08872019340052553,0.004727850668132305,0.021730876903414194,0.015298880636692047,0.26080542554835007,0.9611569726431147,0.5369518884358716,right,0.0013214945793151855,-0.1578457285228219,0.8581053143277764,-9.646645316004753,-0.08766837727128608,-0.01918811723589897,0.0011246204376220703,1.541517640224844,0.005245000123977661
1745972678504081000,7.058080810546875,0.08927028047770137,-0.0044366754591465,0.021857664864910042,0.007207300513982773,0.2609864417870806,0.9610597216853222,0.5374364360232429,right,-0.0018094182014465332,-0.15871436632129957,0.8632919962506741,-9.644834467190503,-0.08816203987592439,-0.01290094293653965,0.0013233423233032227,1.5499294947393238,0.006636694073677063
1745972678544080600,7.09808056640625,0.08946103723593858,-0.01596684381365776,0.021869407761836854,0.006972295232117176,0.2607650825646028,0.9610856570374692,0.5370417825408509,right,0.002470672130584717,-0.15944167590774702,0.8650308758072555,-9.643544427379965,-0.0885314142550577,-0.007114028092473745,0.0025921016931533813,1.5569719605967403,0.0033235400915145874
1745972678584080600,7.13808056640625,0.08946103723593858,-0.004596761427819729,0.021869407761836854,0.008013901300728321,0.2607650825646028,0.9610856570374692,0.5370417825408509,right,-0.00020140409469604492,-0.15944167590774702,0.8650308758072555,-9.643544427379965,-0.0885314142550577,0.004329359624534845,0.002491600811481476,1.5569719605967403,0.000783577561378479
1745972678624080600,7.17808056640625,0.08946103723593858,0.007071655243635178,0.021869407761836854,0.008338866755366325,0.2607650825646028,0.9610856570374692,0.5370417825408509,right,-0.0004489421844482422,-0.15944167590774702,0.8650308758072555,-9.643544427379965,-0.0885314142550577,-0.00323685584589839,0.004088081419467926,1.5569719605967403,0.001278311014175415
1745972678664080600,7.21808056640625,0.09039324264861397,0.0102672865614295,0.02225683667043047,0.006958869751542807,0.2607355019132749,0.9610543060067086,0.5370953545825011,right,-0.0007091164588928223,-0.1598762011603329,0.873959082346037,-9.642059157258272,-0.08886193095151776,-0.009169124998152256,0.004471033811569214,1.5611790568977593,0.001474425196647644
1745972678704081000,7.258080810546875,0.09039324264861397,0.001055978238582611,0.02225683667043047,0.00035717664286494255,0.2607355019132749,0.9610543060067086,0.5370953545825011,right,0.0006197094917297363,-0.1598762011603329,0.873959082346037,-9.642059157258272,-0.08886193095151776,-0.0017281579785048962,0.006162591278553009,1.5611790568977593,0.0026099681854248047
1745972678744081000,7.298080810546875,0.09039324264861397,-0.002787831472232938,0.02225683667043047,-0.007843773812055588,0.2607355019132749,0.9610543060067086,0.5370953545825011,right,-0.00118941068649292,-0.1598762011603329,0.873959082346037,-9.642059157258272,-0.08886193095151776,0.00011975178495049477,0.002891950309276581,1.5611790568977593,0.000011965632438659668
1745972678784080600,7.33808056640625,0.09039324264861397,-0.00007985159754753113,0.02225683667043047,-0.0025850539095699787,0.2607355019132749,0.9610543060067086,0.5370953545825011,right,-0.0002300739288330078,-0.1598762011603329,0.873959082346037,-9.642059157258272,-0.08886193095151776,-0.002879874315112829,0.0004468262195587158,1.5611790568977593,0.00017705559730529785
1745972678824080600,7.37808056640625,0.09039324264861397,0.01374371349811554,0.02225683667043047,0.0049127573147416115,0.2607355019132749,0.9610543060067086,0.5370953545825011,right,0.003238499164581299,-0.1598762011603329,0.873959082346037,-9.642059157258272,-0.08886193095151776,-0.005040277726948261,0.0007693395018577576,1.5611790568977593,-0.0005342960357666016
1745972678864080600,7.41808056640625,0.09082241861568142,0.026740029454231262,0.022364408528200062,0.014739206992089748,0.2612321438102458,0.9608940743166281,0.5381937240798851,right,0.0006520748138427734,-0.16024767867541442,0.8780445250287652,-9.641104633012413,-0.08910832432934274,-0.0015250861179083586,0.00015494227409362793,1.5647754739545285,-0.00010764598846435547
1745972678904080600,7.45808056640625,0.09170431466017924,0.03381887450814247,0.02275098618852184,0.019993752241134644,0.26184056491873414,0.9607147053987045,0.5395306556979224,right,-0.0006643533706665039,-0.16008015407654577,0.8865705805074423,-9.640587331140042,-0.08915841382621655,0.005522827617824078,0.0015849024057388306,1.5631535718411207,-0.00008448958396911621
1745972678944081000,7.498080810546875,0.09288138448807794,0.026602698490023613,0.023324560788952182,0.02786942385137081,0.2624033597237678,0.9605529016332136,0.5407792247866515,right,0.000413358211517334,-0.1596058338948267,0.8979862930130212,-9.640274611929058,-0.08909969906597075,0.009871684946119785,0.0005741268396377563,1.5585614217452703,-0.0005145221948623657
1745972678984081000,7.538080810546875,0.09419451180405367,0.02716248668730259,0.02396248708100151,0.025520263239741325,0.26290719475219015,0.9604012499640846,0.5419204315043904,right,-0.0016843676567077637,-0.15917483083126988,0.9107075351592153,-9.639754971969127,-0.08907909244787694,-0.0009999563917517662,0.0007705017924308777,1.554388227713853,-0.00046432018280029297
1745972679024080600,7.57808056640625,0.09491523202311487,0.026230622082948685,0.02423311859343467,0.015213368460536003,0.2633751923552227,0.9602469260619464,0.5429765900974063,right,-0.00003272294998168945,-0.15938442500966518,0.917623963484168,-9.638771221628785,-0.08928706977841444,-0.015127119608223438,0.0015294551849365234,1.5564176877148448,0.0009527802467346191
1745972679064080600,7.61808056640625,0.09542715123886558,0.015665242448449135,0.02436181514386808,0.008403807878494263,0.26376631348646523,0.9601036725021025,0.543878517638758,right,-0.00215071439743042,-0.1599509101432188,0.9224739607986062,-9.63742097606361,-0.08963688029047047,-0.014722405932843685,0.0024619996547698975,1.561902256605774,0.002667829394340515
1745972679104080600,7.65808056640625,0.09571683623944276,0.006834492087364197,0.024425038819508745,-0.00235576368868351,0.26396852788046204,0.9600244138528632,0.5443550209854877,right,-0.0018910765647888184,-0.160352421169642,0.9252057238500565,-9.636528411138057,-0.08987323504405378,-0.004242965020239353,0.002167902886867523,1.5657894733026623,0.0022569000720977783
1745972679144080600,7.69808056640625,0.09571683623944276,0.004854992032051086,0.024425038819508745,-0.012413657270371914,0.26396852788046204,0.9600244138528632,0.5443550209854877,right,-0.0030995607376098633,-0.160352421169642,0.9252057238500565,-9.636528411138057,-0.08987323504405378,0.002092242706567049,0.0001120343804359436,1.5657894733026623,-0.00009031593799591064
1745972679184080600,7.73808056640625,0.09571683623944276,0.007803326938301325,0.024425038819508745,0.0038105743005871773,0.26396852788046204,0.9600244138528632,0.5443550209854877,right,0.001202225685119629,-0.160352421169642,0.9252057238500565,-9.636528411138057,-0.08987323504405378,-0.0021816175431013107,0.0020775198936462402,1.5657894733026623,0.0009405016899108887
1745972679224081000,7.778080810546875,0.09526448233271546,0.011719237081706524,0.02410889538009779,-0.013377037830650806,0.2643775147024984,0.9599042560637162,0.5451963355277989,right,-0.00002294778823852539,-0.16080302852876519,0.9207792857099324,-9.636242579934,-0.0900395145802781,-0.010851235128939152,0.001876331865787506,1.5701514679044484,0.0006734281778335571
1745972679264080600,7.81808056640625,0.09495788345247612,0.01182094868272543,0.023877873930415888,-0.0014510760083794594,0.2646576672931103,0.9598169503155201,0.5457809465593599,right,0.00250321626663208,-0.16122624089834653,0.9177616914544254,-9.635862056183814,-0.09020865372961555,-0.0058527737855911255,0.003148093819618225,1.5742480895683169,-0.0018952339887619019
1745972679304080600,7.85808056640625,0.09495788345247612,0.0077592055313289165,0.023877873930415888,0.0010670083574950695,0.2646576672931103,0.9598169503155201,0.5457809465593599,right,-0.00100785493850708,-0.16122624089834653,0.9177616914544254,-9.635862056183814,-0.09020865372961555,-0.0006051920354366302,0.0024569928646087646,1.5742480895683169,0.0013400465250015259
1745972679344080600,7.89808056640625,0.09514579179933692,0.0007473109290003777,0.023922293720578712,-0.005021329969167709,0.2649712165723916,0.9597212945783562,0.546459822383139,right,-0.00026303529739379883,-0.16133735064529492,0.919555735264346,-9.63551543470323,-0.09029484513583656,-0.008667058311402798,0.0033739060163497925,1.5753236098453403,0.004182741045951843
1745972679384080600,7.93808056640625,0.09514579179933692,-0.004392411094158888,0.023922293720578712,0.0021377718076109886,0.2649712165723916,0.9597212945783562,0.546459822383139,right,0.0004583001136779785,-0.16133735064529492,0.919555735264346,-9.63551543470323,-0.09029484513583656,-0.010198790580034256,0.0013368725776672363,1.5753236098453403,0.002027273178100586
1745972679424080600,7.97808056640625,0.09509663006479172,-0.01167730987071991,0.023812241231719388,-0.0006586220115423203,0.2648328026301194,0.9597307802360203,0.5462169853696502,right,0.0031685829162597656,-0.16205307387984313,0.9189747205059975,-9.634435822772978,-0.09062814734835398,-0.0050789122469723225,0.001894049346446991,1.5822509248904884,0.0021066367626190186
1745972679464081000,8.018080810546875,0.0953019462511352,-0.010181380435824394,0.02387610080426104,0.00534105533733964,0.26461085537314194,0.9597705606423037,0.5458015646835659,right,-0.0005323886871337891,-0.16244634567817662,0.9208935597393662,-9.633626844477654,-0.0908386778773947,-0.0024178014136850834,-0.00018143653869628906,1.58605689304471,0.0014003217220306396
1745972679504081000,8.058080810546874,0.0953019462511352,-0.00914897583425045,0.02387610080426104,0.0006544319912791252,0.26461085537314194,0.9597705606423037,0.5458015646835659,right,-0.0008649826049804688,-0.16244634567817662,0.9208935597393662,-9.633626844477654,-0.0908386778773947,-0.004989060573279858,0.0009611397981643677,1.58605689304471,0.0025198906660079956
1745972679544080600,8.09808056640625,0.09551992732400522,-0.009462368674576283,0.023957266988585774,0.007243328727781773,0.26424599851474123,0.9598485110443663,0.5450908488773974,right,0.00001919269561767578,-0.1628565302766889,0.9229313491772859,-9.632777534171938,-0.09105542138564657,-0.004608480259776115,0.0026864781975746155,1.5900263811975717,0.0006964504718780518
1745972679584080600,8.13808056640625,0.0958577009276067,-0.010642416775226593,0.0240932115359346,0.0051531437784433365,0.2639978226014229,0.9598939102555823,0.5446303528221422,right,-0.0023143887519836426,-0.1632037341600196,0.9261320449147373,-9.631914779862761,-0.09126076655967713,-0.0036354316398501396,0.004155866801738739,1.5933860668890176,0.0007562637329101562
1745972679624080600,8.17808056640625,0.0958577009276067,-0.008982164785265923,0.0240932115359346,-0.008517639711499214,0.2639978226014229,0.9598939102555823,0.5446303528221422,right,-0.003690183162689209,-0.1632037341600196,0.9261320449147373,-9.631914779862761,-0.09126076655967713,-0.003847158281132579,0.003493376076221466,1.5933860668890176,0.0006792247295379639
1745972679664080600,8.21808056640625,0.09553417270109954,-0.008002927526831627,0.023914962104697828,-0.0042299553751945496,0.2637739314392014,0.9599495407134101,0.5441563266801398,right,-0.0012401342391967773,-0.1635324805310036,0.9229658359687775,-9.631692077022791,-0.09136983050162747,-0.002779103349894285,0.0031792595982551575,1.5965670350126921,-0.00019390881061553955
1745972679704081000,8.258080810546875,0.09553417270109954,-0.0070236907340586185,0.023914962104697828,0.00005772896111011505,0.2637739314392014,0.9599495407134101,0.5441563266801398,right,0.0012326836585998535,-0.1635324805310036,0.9229658359687775,-9.631692077022791,-0.09136983050162747,-0.0017110486514866352,0.002542272210121155,1.5965670350126921,-0.000742688775062561
1745972679744081000,8.298080810546875,0.09553417270109954,-0.009202659130096436,0.023914962104697828,-0.0024557902943342924,0.2637739314392014,0.9599495407134101,0.5441563266801398,right,0.0006930828094482422,-0.1635324805310036,0.9229658359687775,-9.631692077022791,-0.09136983050162747,-0.007722513750195503,0.001047678291797638,1.5965670350126921,0.00011904537677764893
1745972679784080600,8.33808056640625,0.09517160708325191,-0.003167677205055952,0.02366296388571504,-0.0008774078451097012,0.2632756413389451,0.960056322340386,0.5431482013363175,right,-0.0017024874687194824,-0.1644483087400531,0.9193342745333909,-9.630566287863253,-0.09174871698836073,-0.013528097420930862,0.0012198835611343384,1.605427802338451,-0.001436680555343628
1745972679824080600,8.37808056640625,0.09511439024803794,0.0009186244569718838,0.023541015170468454,0.004502711817622185,0.2632143076055075,0.9600437902860574,0.5430661841183637,right,0.0004475712776184082,-0.16517401225219816,0.918672376558557,-9.629456865316628,-0.09208780015472137,-0.020903900265693665,0.0033793672919273376,1.6124480563640593,-0.0016021579504013062
1745972679864080600,8.41808056640625,0.09513775642555715,-0.0017001915257424116,0.02345551062425635,0.005816362798213959,0.26320078158684124,0.9600166956399389,0.5430900934668101,right,-0.0006549358367919922,-0.16588023865021512,0.9187889886755496,-9.62829951197505,-0.09242941767088758,-0.0271111112087965,0.0030140578746795654,1.6192790714278815,0.0008374005556106567
1745972679904080600,8.45808056640625,0.09513775642555715,-0.004319007508456707,0.02345551062425635,0.007130013778805733,0.26320078158684124,0.9600166956399389,0.5430900934668101,right,-0.0016394257545471191,-0.16588023865021512,0.9187889886755496,-9.62829951197505,-0.09242941767088758,-0.03331832215189934,0.0026606395840644836,1.6192790714278815,0.003973528742790222
1745972679944081000,8.498080810546876,0.09508682483265371,-0.007933086715638638,0.023206006823414952,-0.007525253109633923,0.2631177065443581,0.959968292067775,0.543031154289952,right,-0.0014857053756713867,-0.1675626877316838,0.9180386086996645,-9.625620063632725,-0.09322781551978904,-0.0316828191280365,0.0032562538981437683,1.6355495304882526,0.004635483026504517
1745972679984081000,8.538080810546875,0.09483146045086842,-0.014805436134338379,0.022956570564851377,-0.001246234867721796,0.2628991639202893,0.9599876516968714,0.5426272974314489,right,0.000375211238861084,-0.16863948710850865,0.9154133016973733,-9.624095630544424,-0.09370527746878914,-0.016229383647441864,0.0034014731645584106,1.6459604498654603,0.0029350072145462036
1745972680024080600,8.57808056640625,0.0946521486813746,-0.012692783027887344,0.022843707118229927,-0.006194639950990677,0.26263329351175296,0.9600480467177324,0.5420833483994478,right,-0.0008971095085144043,-0.1690262484439204,0.913627295063436,-9.623625090423225,-0.09386071405419125,-0.002402612939476967,0.0022151246666908264,1.6496993441328405,0.002861320972442627
1745972680064080600,8.61808056640625,0.09439213349941582,-0.008778223767876625,0.022733102235188766,-0.011232190765440464,0.26242773762804045,0.9601082372644967,0.541633301022983,right,-0.0017327070236206055,-0.16907735169209262,0.911117065808177,-9.623778235158325,-0.09384594114039228,0.0009994127321988344,0.0012127608060836792,1.6501934112600982,0.0008959025144577026
1745972680104080600,8.65808056640625,0.09413211633080579,-0.004863664973527193,0.022622501746968487,-0.01626974157989025,0.2622221329879045,0.9601685365939201,0.541183242864401,right,-0.002568483352661133,-0.1691284081036689,0.9086067634876817,-9.623931379893422,-0.09383118258624289,0.004401438869535923,0.00021041929721832275,1.650686893865466,-0.0010694563388824463
1745972680144080600,8.69808056640625,0.09413211633080579,-0.004206066485494375,0.022622501746968487,0.002740234136581421,0.2622221329879045,0.9601685365939201,0.541183242864401,right,0.0007063746452331543,-0.1691284081036689,0.9086067634876817,-9.623931379893422,-0.09383118258624289,-0.0016627805307507515,0.0003395974636077881,1.650686893865466,-0.0012507140636444092
1745972680184080600,8.73808056640625,0.09413211633080579,-0.0035799203906208277,0.022622501746968487,0.002542410045862198,0.2622221329879045,0.9601685365939201,0.541183242864401,right,-0.003578007221221924,-0.1691284081036689,0.9086067634876817,-9.623931379893422,-0.09383118258624289,-0.004975144751369953,0.0010267943143844604,1.650686893865466,0.0002595484256744385
1745972680224081000,8.778080810546875,0.09401318807924958,-0.004214453976601362,0.02252528034356321,-0.007321873679757118,0.26189746022146443,0.9602371294183466,0.5405323317599847,right,-0.0008245706558227539,-0.1696526398808775,0.9073808018893003,-9.623176177611947,-0.09405937758316119,-0.012895685620605946,0.002071790397167206,1.6557542602576314,-0.0005493313074111938
1745972680264080600,8.81808056640625,0.09401318807924958,-0.004098974168300629,0.02252528034356321,0.006437163800001144,0.26189746022146443,0.9602371294183466,0.5405323317599847,right,0.001396775245666504,-0.1696526398808775,0.9073808018893003,-9.623176177611947,-0.09405937758316119,-0.005117304623126984,0.003027103841304779,1.6557542602576314,-0.0018629580736160278
1745972680304080600,8.85808056640625,0.09401318807924958,0.0012127133086323738,0.02252528034356321,-0.0026254355907440186,0.26189746022146443,0.9602371294183466,0.5405323317599847,right,-0.0028026700019836426,-0.1696526398808775,0.9073808018893003,-9.623176177611947,-0.09405937758316119,-0.011619901284575462,0.0012694299221038818,1.6557542602576314,0.0023491382598876953
1745972680344080600,8.89808056640625,0.0940000778650935,-0.0009059079457074404,0.022372620100994306,-0.004119837656617165,0.2617231650188173,0.9602328192041547,0.5402515707894442,right,0.0005963444709777832,-0.17083705642977373,0.9070699823744595,-9.621229135197401,-0.09462191981874928,-0.016625044867396355,0.0011459887027740479,1.6672015369452535,0.0006745457649230957
1745972680384080600,8.93808056640625,0.09401222415232065,-0.0013917379546910524,0.02229526635141717,-0.0005867774598300457,0.261712062352331,0.9602087702342057,0.5402728391434124,right,0.0006695985794067383,-0.17144703119466792,0.9070911712929606,-9.62020388380289,-0.09491593353037871,-0.009819800034165382,0.00007651001214981079,1.6730960018113255,0.0006868094205856323
1745972680424080600,8.97808056640625,0.09401222415232065,-0.009585210122168064,0.02229526635141717,-0.0037986680399626493,0.261712062352331,0.9602087702342057,0.5402728391434124,right,0.0004863142967224121,-0.17144703119466792,0.9070911712929606,-9.62020388380289,-0.09491593353037871,-0.00892105046659708,0.001429148018360138,1.6730960018113255,0.0016339421272277832
1745972680464081000,9.018080810546875,0.09379851274311636,-0.014817064628005028,0.02210982566937605,0.004397157579660416,0.2614080266055913,0.9602600282932569,0.5396767830691784,right,0.003605663776397705,-0.17227259932573732,0.9049054978169501,-9.619019057932496,-0.09527686039691129,-0.008811318315565586,0.0041376277804374695,1.6810728259094059,0.0009270012378692627
1745972680504081000,9.058080810546874,0.0940432656397767,-0.02390361577272415,0.02221055315591212,0.0056352633982896805,0.2609626889817228,0.9603559248888593,0.538804345804852,right,-0.0014331340789794922,-0.17270685266589453,0.907191124536097,-9.618069209861755,-0.09550719965167326,-0.0013194181956350803,0.00585571676492691,1.685268085642159,-0.0005945265293121338
1745972680544080600,9.09808056640625,0.09399321330760038,-0.030275706201791763,0.022207547010700972,-0.0016358592547476292,0.26038786550564724,0.960501429368538,0.5376211232621023,right,0.000022649765014648438,-0.17297134117589266,0.9066679043795913,-9.617670565932988,-0.09561425544334425,-0.003932983614504337,0.00724773108959198,1.6878233230829238,-0.00044143199920654297
1745972680584080600,9.13808056640625,0.0940602649261849,-0.030056964606046677,0.02225531623824831,-0.017215413972735405,0.25980749779036033,0.9606432732026584,0.5364410203772937,right,-0.00915306806564331,-0.1732765838622304,0.9072643359027802,-9.617096565437317,-0.09575613937105651,0.0007285820320248604,0.002983406186103821,1.6907719437554478,-0.0025195330381393433
1745972680624080600,9.17808056640625,0.09334052760442589,-0.020591218024492264,0.021910561577142676,-0.010345323011279106,0.2593558695863092,0.9607670496394723,0.5354535335962869,right,-0.00008469820022583008,-0.1736230284410649,0.9002876287579535,-9.61716320093274,-0.09581786661855364,-0.01613173633813858,0.0036435797810554504,1.6941183315739035,0.0013366937637329102
1745972680664080600,9.21808056640625,0.0931794237893408,-0.010934597812592983,0.02177762206920592,-0.0022988449782133102,0.25904102770638754,0.9608271157753254,0.534827272901169,right,-0.0002791881561279297,-0.17426415901316092,0.8986370120067149,-9.616224458777904,-0.09609745631968925,-0.012320039793848991,0.002085059881210327,1.7003109026037155,0.000713050365447998
1745972680704081000,9.258080810546875,0.0931794237893408,-0.015618139877915382,0.02177762206920592,-0.012293321080505848,0.25904102770638754,0.9608271157753254,0.534827272901169,right,0.0008909702301025391,-0.17426415901316092,0.8986370120067149,-9.616224458777904,-0.09609745631968925,-0.0001228759065270424,0.0017417371273040771,1.7003109026037155,0.0009835511445999146
1745972680744081000,9.298080810546875,0.09257515150508273,-0.017434705048799515,0.02151833666197035,-0.0035902801901102066,0.2585041161125781,0.9609776592338402,0.5336624759057228,right,0.0003091096878051758,-0.17445119201661488,0.892796615415439,-9.616448915183543,-0.09609632494483358,-0.0019855424761772156,0.0025067999958992004,1.7021172213733196,0.0015189051628112793
1745972680784080600,9.33808056640625,0.09177532869817816,-0.03439473733305931,0.021131622184280472,-0.027895115315914154,0.2579569733104762,0.9611234864244773,0.5324751334982982,right,-0.0023908019065856934,-0.1748982890412121,0.8850350415032356,-9.61640156891048,-0.09619475562929801,-0.01097419299185276,0.0030755624175071716,1.7064350845724343,0.004264384508132935
1745972680824080600,9.37808056640625,0.09073770985149503,-0.018487175926566124,0.020573153574188832,-0.023470887914299965,0.2575108974592373,0.961230939941318,0.5314989167093204,right,0.00031554698944091797,-0.1757030910543248,0.8749317267704755,-9.615943888270854,-0.09643679874432462,-0.01529880054295063,0.004137873649597168,1.7142064492262898,0.0005589872598648071
1745972680864080600,9.41808056640625,0.0895746576923497,-0.01816813088953495,0.0199453165563498,-0.03539299964904785,0.25726391714752006,0.961290722342879,0.5309187056573131,right,-0.001810908317565918,-0.1764338953601873,0.8636349644694477,-9.615704818817973,-0.0966317312499395,-0.01563079282641411,0.0039543285965919495,1.721262359087169,0.0024725645780563354
1745972680904080600,9.45808056640625,0.08804843810060245,0.0012394003570079803,0.019108039399186774,-0.03814903274178505,0.25716949392499105,0.9613101923037667,0.5306295459472761,right,-0.0011017918586730957,-0.17732283825034278,0.8488233989804983,-9.615483285021782,-0.09685897301196895,-0.02285064198076725,0.0022091269493103027,1.7298440172106027,0.0002592504024505615
1745972680944081000,9.498080810546876,0.08673282343543509,0.0191474761813879,0.01838309318873785,-0.03626883402466774,0.2574558048399679,0.9612391674575873,0.5311276641715702,right,-0.00014412403106689453,-0.17784004824302954,0.836094777245447,-9.615699558120966,-0.09694245561260495,-0.005635341629385948,0.00028934329748153687,1.7348362725399433,0.0000340193510055542
1745972680984081000,9.538080810546875,0.08563232443883868,0.025417577475309372,0.01779482013915313,-0.029650423675775528,0.25800392603457106,0.9611133087342643,0.5321619931168173,right,0.0008434057235717773,-0.17791004786405767,0.8255018523648381,-9.61649275432527,-0.09684355784602894,0.0005867327563464642,-0.00164756178855896,1.735511979844421,0.00007270276546478271
1745972681024080600,9.57808056640625,0.0849617460912398,0.023733973503112793,0.017449494581870624,-0.009100494906306267,0.25856341845940617,0.960987582463591,0.5332440393986946,right,0.0032103657722473145,-0.17768976561827773,0.8190854825165123,-9.61742448221743,-0.09666086924267998,0.0034793871454894543,-0.001125335693359375,1.7333857814706861,0.0015998780727386475
1745972681064080600,9.61808056640625,0.0847307422951874,0.015382898971438408,0.017293923955226123,-0.002694683149456978,0.2589810596201451,0.9608790110360158,0.5340919097585137,right,0.002520143985748291,-0.17771689762000106,0.8168598423562944,-9.617566521036624,-0.09665134125553405,-0.007841825485229492,0.0014302656054496765,1.7336476472772657,0.001997426152229309
1745972681104080600,9.65808056640625,0.0847307422951874,0.005884765647351742,0.017293923955226123,0.0023863036185503006,0.2589810596201451,0.9608790110360158,0.5340919097585137,right,0.00001817941665649414,-0.17771689762000106,0.8168598423562944,-9.617566521036624,-0.09665134125553405,-0.019435156136751175,0.0025355294346809387,1.7336476472772657,0.001638859510421753
1745972681144080600,9.69808056640625,0.08480328091145951,0.007760290987789631,0.0170792064321662,0.0005098972469568253,0.25930513568652436,0.9607168771730007,0.5348798202089774,right,-0.0015973448753356934,-0.1793033037477097,0.817323441280052,-9.614754970747232,-0.09742804886074086,-0.03230171650648117,0.0029159635305404663,1.7489577368728815,-0.00019590556621551514
1745972681184080600,9.73808056640625,0.08485478808115328,0.013126743957400322,0.016921106256439944,-0.010432979092001915,0.259558389345005,0.9605941316042577,0.5354893019735444,right,-0.004512190818786621,-0.18045081082494507,0.8176480701245367,-9.61270680604577,-0.09798993486601393,-0.02401672676205635,0.001098036766052246,1.7600293121159076,-0.0016843676567077637
1745972681224081000,9.778080810546875,0.08467628127725678,0.015380874276161194,0.01669410146425778,-0.003198130987584591,0.25993198075343527,0.9604615714203905,0.5363000436881553,right,0.00003999471664428711,-0.1812106301517732,0.8158188088707625,-9.611517304000257,-0.09833770559946839,-0.020099932327866554,-0.0003463476896286011,1.7673592166125773,0.001542314887046814
1745972681264080600,9.81808056640625,0.08467628127725678,0.014391413889825344,0.01669410146425778,-0.0031660054810345173,0.25993198075343527,0.9604615714203905,0.5363000436881553,right,-0.0006694197654724121,-0.1812106301517732,0.8158188088707625,-9.611517304000257,-0.09833770559946839,-0.0030706580728292465,0.00021664053201675415,1.7673592166125773,0.002409040927886963
1745972681304080600,9.85808056640625,0.08491217473469723,0.008125429041683674,0.016726078947458596,0.010794324800372124,0.26047423692496036,0.960301143680869,0.5374655140418817,right,0.0014448761940002441,-0.18138965735198778,0.818059208208695,-9.61100935447812,-0.09846392055555643,0.002480777446180582,0.0013333708047866821,1.769086040405184,0.0026450753211975098
1745972681344080600,9.89808056640625,0.08497733718638696,-0.00012538675218820572,0.016785587673284544,0.00113673135638237,0.2606368323957207,0.9602710784035565,0.5377886507815864,right,-0.0011094212532043457,-0.18106039005919014,0.8187349155131727,-9.611536008700728,-0.09831735001597101,0.00750577449798584,0.003515109419822693,1.7659098945870995,0.0033601373434066772
1745972681384080600,9.93808056640625,0.08497733718638696,0.012291585095226765,0.016785587673284544,0.00943513959646225,0.2606368323957207,0.9602710784035565,0.5377886507815864,right,-0.001129448413848877,-0.18106039005919014,0.8187349155131727,-9.611536008700728,-0.09831735001597101,-0.001960114575922489,0.003216765820980072,1.7659098945870995,0.0005502700805664062
1745972681424080600,9.97808056640625,0.08528142137314129,0.02535049244761467,0.016834896283046397,-0.023295361548662186,0.26117863237641403,0.9601036531649265,0.5389677707984858,right,-0.0053536295890808105,-0.1813485225244484,0.8216141972765326,-9.610779052853584,-0.09850497671344147,-0.019323132932186127,0.0005158782005310059,1.768689296172559,0.00526013970375061
1745972681464081000,10.018080810546875,0.0844606952793343,0.027087263762950897,0.016304522141400768,-0.02500886097550392,0.2617589178038573,0.9599359066519606,0.5401321100691414,right,0.0003132820129394531,-0.18193626874289556,0.8136382499612868,-9.61041255762875,-0.09868884435502219,-0.007274610921740532,0.0014758408069610596,1.7743582817196846,0.0023669004440307617
1745972681504081000,10.058080810546874,0.08374879768645,0.017016075551509857,0.015934430128098087,-0.014978155493736267,0.26230658512752625,0.9598100404611685,0.5411883302798999,right,0.0017181634902954102,-0.18176072482851482,0.8068224324665964,-9.611299861857294,-0.09852000759104065,0.00927920825779438,-0.0008723363280296326,1.7726652140662074,0.007013455033302307
1745972681544080600,10.09808056640625,0.08344672185641985,0.005741138011217117,0.0158505654691273,-0.009840195067226887,0.2625608440381936,0.9597759895805322,0.5416456578809941,right,0.0014098286628723145,-0.18114091069217592,0.8040105168510228,-9.612636078897118,-0.0981871875279876,0.01922135427594185,-0.0014636442065238953,1.7666865780480205,0.005500704050064087
1745972681584080600,10.13808056640625,0.08344672185641985,-0.005659075453877449,0.0158505654691273,0.004050302319228649,0.2625608440381936,0.9597759895805322,0.5416456578809941,right,0.0016632676124572754,-0.18114091069217592,0.8040105168510228,-9.612636078897118,-0.0981871875279876,0.025298845022916794,-0.0019874945282936096,1.7666865780480205,-0.0019695311784744263
1745972681624080600,10.17808056640625,0.08377147129088593,0.011181876063346863,0.016196807028388542,0.015933644026517868,0.2625548911602999,0.959835177313348,0.5415737260078094,right,-0.0010320544242858887,-0.17975570851594821,0.8073361541423946,-9.614803486064076,-0.09756587885617646,0.0181843563914299,-0.000015914440155029297,1.753322946345061,-0.0014431476593017578
1745972681664080600,10.21808056640625,0.08433678785085857,0.026673145592212677,0.016529532208921786,0.00918943714350462,0.26286116358844114,0.9597712050346878,0.542223180960355,right,0.0010970234870910645,-0.17906621900915923,0.812873110807687,-9.615548166951536,-0.09731524770123653,0.020550362765789032,0.0017432793974876404,1.7466699181966483,-0.004767745733261108
1745972681704081000,10.258080810546875,0.08510558788338134,0.02133682370185852,0.016948986712399288,0.012226235121488571,0.2633593572966085,0.9596526883518408,0.5432882958888533,right,0.0018007755279541016,-0.17830949589080491,0.8203773489579558,-9.616234395650029,-0.09706296733854566,0.016491925343871117,0.0022591501474380493,1.739367193967849,-0.0030714720487594604
1745972681744081000,10.298080810546875,0.08603994455083744,0.015406477265059948,0.017416056007779387,0.015395005233585835,0.2637300754791374,0.9595505847771904,0.5441257705012615,right,-0.0025284886360168457,-0.17787098260976786,0.8294275013759732,-9.616222705212236,-0.09698333126768148,0.0011380109935998917,0.0018908008933067322,1.7351348170951009,-0.0010717660188674927
1745972681784080600,10.33808056640625,0.08659174286051546,0.004799157381057739,0.017621702006362816,0.01309312041848898,0.26389150000320316,0.9594808694181098,0.5445377339099348,right,-0.0014341473579406738,-0.17815924617457496,0.8346903172750025,-9.615265258356928,-0.0971977127387345,-0.016252167522907257,0.003967270255088806,1.737917141290009,-0.0008086860179901123
1745972681824080600,10.37808056640625,0.08659174286051546,0.0012231261935085058,0.017621702006362816,-0.0037259170785546303,0.26389150000320316,0.9594808694181098,0.5445377339099348,right,-0.003159940242767334,-0.17815924617457496,0.8346903172750025,-9.615265258356928,-0.0971977127387345,-0.012952759861946106,0.004337511956691742,1.737917141290009,0.0017971247434616089
1745972681864080600,10.41808056640625,0.08678003483019037,0.0007374901906587183,0.017545657952508592,-0.015954604372382164,0.2639154574178493,0.9594159039890595,0.5446868877675625,right,-0.003798842430114746,-0.17933188266195527,0.8363235445000231,-9.613070963183045,-0.09778519951373306,-0.016626806929707527,0.0014525726437568665,1.7492334850743412,0.003795832395553589
1745972681904080600,10.45808056640625,0.08678003483019037,-0.0019384855404496193,0.017545657952508592,-0.01332895364612341,0.2639154574178493,0.9594159039890595,0.5446868877675625,right,-0.0012072920799255371,-0.17933188266195527,0.8363235445000231,-9.613070963183045,-0.09778519951373306,-0.00934934988617897,0.0016148611903190613,1.7492334850743412,0.0008062869310379028
1745972681944081000,10.498080810546876,0.08642032569169024,-0.00007587391883134842,0.017284520340879118,0.006858580745756626,0.26396801264479125,0.9593811305931103,0.5448015911061299,right,0.0038976669311523438,-0.17994327552540382,0.8327730854768306,-9.612303485941887,-0.09803136631047825,0.0038952575996518135,0.0038477033376693726,1.755132772246003,-0.0032900869846343994
1745972681984081000,10.538080810546875,0.08642032569169024,-0.019437391310930252,0.017284520340879118,-0.007968379184603691,0.26396801264479125,0.9593811305931103,0.5448015911061299,right,-0.001469254493713379,-0.17994327552540382,0.8327730854768306,-9.612303485941887,-0.09803136631047825,-0.001931280829012394,0.00044401735067367554,1.755132772246003,-0.0010720938444137573
1745972682024080600,10.57808056640625,0.08649189866679104,-0.018842823803424835,0.01736460547923059,-0.004543514922261238,0.263547446098877,0.9594962289779378,0.5439306739150793,right,-0.004177749156951904,-0.17992068992859542,0.8334645018070935,-9.612283612197636,-0.09802244830228558,-0.0036992663517594337,-0.0016819536685943604,1.7549148917116224,-0.0026475191116333008
1745972682064080600,10.61808056640625,0.08586038903803939,-0.015555295161902905,0.017047790977785023,0.007404971867799759,0.26314879230796245,0.9596001816917963,0.5430635756720014,right,0.002080261707305908,-0.1803368637501161,0.8273314058795571,-9.612079614058135,-0.09813107549654719,-0.020427167415618896,-0.00017455965280532837,1.758930118702352,0.001061663031578064
1745972682104080600,10.65808056640625,0.08593655532396141,-0.009663676843047142,0.016927389782388176,0.0025565344840288162,0.2629077444205412,0.9596034452368213,0.5426581318301761,right,0.0020492076873779297,-0.18164480885179338,0.8278653666257858,-9.609716392058134,-0.0987638435501802,-0.03987996652722359,0.00007051229476928711,1.7715471698217093,0.000785142183303833
1745972682144080600,10.69808056640625,0.08615025188824894,-0.008330794051289558,0.01685455933474075,0.010325838811695576,0.26273327553697357,0.9595811601466232,0.5424114619937003,right,0.0023856163024902344,-0.18303243499429445,0.8297065375130623,-9.607080782857537,-0.09945416961059357,-0.032912492752075195,0.0012551173567771912,1.784929506225139,0.003132075071334839
1745972682184080600,10.73808056640625,0.08685167294665126,-0.0051147351041436195,0.017065935847128767,0.021037086844444275,0.26261514094195,0.9595522490940757,0.5423045475841278,right,-0.002071678638458252,-0.18399788904380474,0.8362951221231371,-9.604774844002723,-0.10000756947927128,-0.014199135825037956,0.001727469265460968,1.7942383095793426,0.002810567617416382
1745972682224081000,10.778080810546875,0.08710484085712933,-0.005820632446557283,0.017131232440056727,-0.0037165507674217224,0.2624671488507568,0.9595629938263845,0.5420575686285405,right,-0.004001617431640625,-0.184505089339258,0.8386473843377084,-9.603654900062084,-0.10028149173055828,-0.0060114189982414246,0.004044279456138611,1.7991281274475157,0.0008867383003234863
1745972682264080600,10.81808056640625,0.08710484085712933,0.0011385292746126652,0.017131232440056727,0.0038703205063939095,0.2624671488507568,0.9595629938263845,0.5420575686285405,right,0.0012306571006774902,-0.184505089339258,0.8386473843377084,-9.603654900062084,-0.10028149173055828,0.004077417775988579,0.0038962289690971375,1.7991281274475157,-0.004563808441162109
1745972682304080600,10.85808056640625,0.08677036109091998,0.01391657069325447,0.017030431573927137,-0.006281367503106594,0.26265121039558387,0.9595465340200203,0.5423678515682105,right,0.001886129379272461,-0.1839485260261786,0.8355217996630817,-9.60493149586916,-0.09997380026830265,0.012539388611912727,0.005298063158988953,1.7937625087611375,-0.00006498396396636963
1745972682344080600,10.89808056640625,0.08690758242200357,0.016721349209547043,0.017093639237551174,-0.005698727443814278,0.2630222724254087,0.959454447511927,0.5431373325055523,right,-0.0026260018348693848,-0.18368370608100645,0.8368809591870755,-9.605289223265647,-0.099871628979442,0.0015972573310136795,0.001333668828010559,1.7912091710165141,0.0016304999589920044
1745972682384080600,10.93808056640625,0.08690758242200357,0.0012482302263379097,0.017093639237551174,-0.011191261932253838,0.2630222724254087,0.959454447511927,0.5431373325055523,right,0.0005677938461303711,-0.18368370608100645,0.8368809591870755,-9.605289223265647,-0.099871628979442,-0.00396971870213747,0.0009890571236610413,1.7912091710165141,0.005701318383216858
1745972682424080600,10.97808056640625,0.08639358493686775,-0.014081623405218124,0.01681885668355336,0.0014861822128295898,0.2631173387817685,0.9594325224364758,0.5432923803988327,right,0.002270519733428955,-0.18383486455239298,0.8319204141702502,-9.605448213219642,-0.09987769655678473,-0.009283184073865414,0.001342684030532837,1.7926666763484478,0.0035541504621505737
1745972682464081000,11.018080810546875,0.08619720355721497,-0.03135477006435394,0.016699974767297333,0.002336234785616398,0.2626693908501175,0.9595348259326933,0.5423740914748111,right,0.00023746490478515625,-0.1843566379475457,0.8299534249462187,-9.604678397890925,-0.10009394699713146,-0.014305217191576958,0.002565421164035797,1.7976970717310905,0.004453420639038086
1745972682504081000,11.058080810546874,0.08635283939004218,-0.030073899775743484,0.016730982382094122,0.018141645938158035,0.26202797103068565,0.9596689014933424,0.5411081216286712,right,0.0008422732353210449,-0.1851502813953164,0.8313249324951321,-9.603124738708138,-0.10048372877109712,-0.01180739514529705,0.0037292689085006714,1.8053475864842532,-0.0011655688285827637
1745972682544080600,11.09808056640625,0.08693344804387518,-0.024826476350426674,0.017001360892751737,0.02072613127529621,0.2614356777873827,0.9597943616275871,0.5399683526490298,right,-0.0019759535789489746,-0.1856370954694056,0.8368240413680672,-9.601763971748948,-0.1007831743641027,-0.0034810900688171387,0.0022512078285217285,1.81003968982324,-0.004138335585594177
1745972682584080600,11.13808056640625,0.08721679280119468,-0.012804694473743439,0.017178563924984618,0.002730242908000946,0.2610412681250608,0.9598958402905003,0.5391756306878869,right,-0.001698613166809082,-0.1856276666300464,0.8395460867431014,-9.601543022474646,-0.10080889698498542,0.0032709059305489063,0.002071067690849304,1.8099487966693937,-0.0010176748037338257
1745972682624080600,11.17808056640625,0.08721679280119468,0.000046912580728530884,0.017178563924984618,0.0020425026305019855,0.2610412681250608,0.9598958402905003,0.5391756306878869,right,0.0008115172386169434,-0.1856276666300464,0.8395460867431014,-9.601543022474646,-0.10080889698498542,0.0017225808696821332,0.002334378659725189,1.8099487966693937,-0.0008152425289154053
1745972682664080600,11.21808056640625,0.08721679280119468,0.0037911650724709034,0.017178563924984618,-0.008184010162949562,0.2610412681250608,0.9598958402905003,0.5391756306878869,right,-0.0023342370986938477,-0.1856276666300464,0.8395460867431014,-9.601543022474646,-0.10080889698498542,0.0035475846379995346,0.00188542902469635,1.8099487966693937,0.0021659284830093384
1745972682704081000,11.258080810546875,0.08721679280119468,-0.005406793672591448,0.017178563924984618,-0.011875906027853489,0.2610412681250608,0.9598958402905003,0.5391756306878869,right,-0.003444492816925049,-0.1856276666300464,0.8395460867431014,-9.601543022474646,-0.10080889698498542,0.0069375671446323395,-0.0004332214593887329,1.8099487966693937,-0.0010702311992645264
1745972682744081000,11.298080810546875,0.08620919244427547,-0.01158857811242342,0.01687818926759884,-0.00036143697798252106,0.26071782772448265,0.9600559729297966,0.5383241785876511,right,0.004705548286437988,-0.18458164247063727,0.8300337236408144,-9.604265140914917,-0.10016925771413829,0.013964835554361343,0.0011960193514823914,1.799866086333245,0.001686185598373413
1745972682784080600,11.33808056640625,0.08600550055737086,-0.009640773758292198,0.016777041905063534,-0.0009739623055793345,0.26054341742099113,0.9601000114996617,0.5379508916744915,right,0.004585981369018555,-0.1847461660686709,0.8280519752390683,-9.604138884186744,-0.10021837224838695,0.004841596819460392,0.002172715961933136,1.801452040350437,0.00033164024353027344
1745972682824080600,11.37808056640625,0.08600550055737086,-0.007692968938499689,0.016777041905063534,-0.001586487633176148,0.26054341742099113,0.9601000114996617,0.5379508916744915,right,0.00447922945022583,-0.1847461660686709,0.8280519752390683,-9.604138884186744,-0.10021837224838695,-0.004281640984117985,0.0029473304748535156,1.801452040350437,-0.0008611828088760376
1745972682864080600,11.41808056640625,0.08600550055737086,-0.0008444096893072128,0.016777041905063534,0.008201032876968384,0.26054341742099113,0.9601000114996617,0.5379508916744915,right,-0.00034230947494506836,-0.1847461660686709,0.8280519752390683,-9.604138884186744,-0.10021837224838695,0.016435924917459488,0.0007934644818305969,1.801452040350437,-0.001885831356048584
1745972682904080600,11.45808056640625,0.08596572637242403,-0.007167742121964693,0.016823054295171683,-0.018234312534332275,0.2602231108673233,0.9601986478500513,0.5372638548297279,right,-0.003950655460357666,-0.1845170716978335,0.8277053537584841,-9.604582536301017,-0.10009768282751952,0.002143094316124916,0.004053458571434021,1.7992435705207288,0.0005419552326202393
1745972682944081000,11.498080810546876,0.08596572637242403,-0.0045759836211800575,0.016823054295171683,-0.006869739852845669,0.2602231108673233,0.9601986478500513,0.5372638548297279,right,0.0019684433937072754,-0.1845170716978335,0.8277053537584841,-9.604582536301017,-0.10009768282751952,0.0033114610705524683,0.0026335641741752625,1.7992435705207288,-0.0018080472946166992
1745972682984081000,11.538080810546875,0.08477323072381186,-0.019848737865686417,0.016320083286797262,-0.024224016815423965,0.2600386939464308,0.9602899330136616,0.5367337270804617,right,0.000171661376953125,-0.1841952107413258,0.8163003818426281,-9.606139702615142,-0.09978399085771687,0.006777376867830753,0.003490850329399109,1.7961407821998,0.0016928613185882568
1745972683024080600,11.57808056640625,0.0840477445753927,-0.033411841839551926,0.0159999728068701,-0.02264590933918953,0.25955670957748084,0.960427079997024,0.5356671970450911,right,-0.000775754451751709,-0.18438193443551165,0.8093028511054814,-9.606394554159044,-0.09977060412260694,-0.005877981893718243,-0.00006842613220214844,1.7979408173590898,0.003441169857978821
1745972683064080600,11.61808056640625,0.0832305886269616,-0.03846750408411026,0.015601524778575869,-0.03444559872150421,0.25895605900140467,0.9605813878592959,0.534367277755226,right,-0.002909839153289795,-0.18491363809968775,0.8013730810195208,-9.606098786082864,-0.09990921423617356,-0.009269967675209045,0.0005027949810028076,1.8030664898097515,0.003113865852355957
1745972683104080600,11.65808056640625,0.08241404069236388,-0.02889292687177658,0.015209106888608223,-0.024852756410837173,0.25842473197235377,0.9607207829304367,0.5332053515229291,right,-0.003968477249145508,-0.18535170316071928,0.7934638422649354,-9.605962007960677,-0.10000462469789788,0.0006431648507714272,0.0023730844259262085,1.8072890759408473,0.0030215084552764893
1745972683144080600,11.69808056640625,0.08261627702216173,-0.008797239512205124,0.0153148998942781,0.011367637664079666,0.2582132581064117,0.9607691112540344,0.5327922313902707,right,-0.0006427168846130371,-0.18544219784616195,0.7953930567618459,-9.60563818283379,-0.10007096708699872,0.0005136682302691042,0.0027248263359069824,1.8081611826002597,0.0010215342044830322
1745972683184080600,11.73808056640625,0.08261627702216173,-0.012097085826098919,0.0153148998942781,0.003709099255502224,0.2582132581064117,0.9607691112540344,0.5327922313902707,right,-0.00009822845458984375,-0.18544219784616195,0.7953930567618459,-9.60563818283379,-0.10007096708699872,-0.0030152115505188704,0.004531554877758026,1.8081611826002597,0.002215087413787842
1745972683224081000,11.778080810546875,0.08321910817994882,-0.013026244007050991,0.015652281584558517,0.013719159178435802,0.25767689658884035,0.9608986077201314,0.5317410424069802,right,-0.0013968944549560547,-0.18547874521823476,0.8011779968388378,-9.605091070345043,-0.10015809659828279,0.007133237086236477,0.004678957164287567,1.8085135031692683,0.0009018033742904663
1745972683264080600,11.81808056640625,0.08321910817994882,-0.00788263138383627,0.015652281584558517,-0.0005637509748339653,0.25767689658884035,0.9608986077201314,0.5317410424069802,right,-0.003314375877380371,-0.18547874521823476,0.8011779968388378,-9.605091070345043,-0.10015809659828279,0.01341656967997551,0.0042754411697387695,1.8085135031692683,-0.0017499178647994995
1745972683304080600,11.85808056640625,0.08321658716755026,0.0026622023433446884,0.015795229131286996,-0.009356558322906494,0.25739414823583134,0.9610147308422903,0.5310958590484589,right,0.0002097487449645996,-0.18463395161712107,0.8012804343000054,-9.606612580823898,-0.09974764794514311,0.010194300673902035,0.0022442564368247986,1.800370382593572,-0.00008599460124969482
1745972683344080600,11.89808056640625,0.08321658716755026,0.008835318498313427,0.015795229131286996,-0.009287344291806221,0.25739414823583134,0.9610147308422903,0.5310958590484589,right,-0.00410771369934082,-0.18463395161712107,0.8012804343000054,-9.606612580823898,-0.09974764794514311,-0.0011170580983161926,0.0003815963864326477,1.800370382593572,-0.00016576051712036133
1745972683384080600,11.93808056640625,0.08321658716755026,0.0015446669422090054,0.015795229131286996,-0.005231044255197048,0.25739414823583134,0.9610147308422903,0.5310958590484589,right,0.0017148852348327637,-0.18463395161712107,0.8012804343000054,-9.606612580823898,-0.09974764794514311,-0.0062291319482028484,-0.00034011155366897583,1.800370382593572,0.0004623681306838989
1745972683424080600,11.97808056640625,0.08321658716755026,-0.014663685113191605,0.015795229131286996,0.0009284131228923798,0.25739414823583134,0.9610147308422903,0.5310958590484589,right,0.0058629512786865234,-0.18463395161712107,0.8012804343000054,-9.606612580823898,-0.09974764794514311,-0.0011139027774333954,-0.0005689114332199097,1.800370382593572,0.002003192901611328
1745972683464081000,12.018080810546875,0.08321658716755026,-0.026171505451202393,0.015795229131286996,0.02531949058175087,0.25739414823583134,0.9610147308422903,0.5310958590484589,right,0.0004171133041381836,-0.18463395161712107,0.8012804343000054,-9.606612580823898,-0.09974764794514311,-0.016864150762557983,-0.0015007257461547852,1.800370382593572,0.0013965815305709839
1745972683504081000,12.058080810546874,0.08340905759867769,-0.02237233892083168,0.015831660043617052,0.0043204165995121,0.2564790967147963,0.961202326294993,0.5292858249188425,right,-0.0006494522094726562,-0.18574285791214631,0.8029626152332872,-9.60446270931363,-0.10028983448031416,-0.011426898650825024,0.0013230666518211365,1.8110590959988533,-0.00440998375415802
1745972683544080600,12.09808056640625,0.08357602197029677,0.0008958149701356888,0.015867787102894916,0.01101941242814064,0.25615203001373604,0.9612584808904617,0.5286610522935812,right,-0.001353621482849121,-0.18631519623946852,0.8044795226022601,-9.603293665534258,-0.10058078223831945,-0.005746960639953613,0.003222048282623291,1.8165749368108808,-0.01034592092037201
1745972683584080600,12.13808056640625,0.08357602197029677,0.020204981788992882,0.015867787102894916,-0.011059705168008804,0.25615203001373604,0.9612584808904617,0.5286610522935812,right,-0.006555438041687012,-0.18631519623946852,0.8044795226022601,-9.603293665534258,-0.10058078223831945,-0.013144135475158691,0.0036583468317985535,1.8165749368108808,-0.0012790858745574951
1745972683624080600,12.17808056640625,0.08350599189064717,0.03441252559423447,0.015651580701359576,-0.01969158463180065,0.25709209129044563,0.960979088891651,0.5306517415006018,right,-0.0002861618995666504,-0.1869382996059686,0.8037124837525188,-9.602220483344793,-0.10088627796836548,-0.028652027249336243,0.004434913396835327,1.8225794379226863,0.0021122395992279053
1745972683664080600,12.21808056640625,0.0835146978377879,0.015709390863776207,0.015522151249099588,-0.013043245300650597,0.2576329625804111,0.9608067404923704,0.5318163726328978,right,-0.00046181678771972656,-0.18750291343344044,0.8037100725997239,-9.601186464121938,-0.10116716846528032,-0.004250694066286087,0.002790309488773346,1.8280195831499992,0.0009489208459854126
1745972683704081000,12.258080810546875,0.0835146978377879,-0.005324702709913254,0.015522151249099588,-0.0037297261878848076,0.2576329625804111,0.9608067404923704,0.5318163726328978,right,0.0008552074432373047,-0.18750291343344044,0.8037100725997239,-9.601186464121938,-0.10116716846528032,-0.0060486262664198875,0.0018439292907714844,1.8280195831499992,0.0035961419343948364
1745972683744081000,12.298080810546875,0.0835146978377879,0.00786130502820015,0.015522151249099588,0.005421744659543037,0.2576329625804111,0.9608067404923704,0.5318163726328978,right,-0.00011610984802246094,-0.18750291343344044,0.8037100725997239,-9.601186464121938,-0.10116716846528032,-0.0006262725219130516,0.0011760517954826355,1.8280195831499992,-0.0007228702306747437
1745972683784080600,12.33808056640625,0.08349547298434731,0.03326974809169769,0.015399079180545438,-0.0018447274342179298,0.2581696201191016,0.9606426277233141,0.532959901256497,right,0.0008721351623535156,-0.18792432301108136,0.8034611393399537,-9.60043301540613,-0.10137553197559798,-0.010038604028522968,0.0033403486013412476,1.8320796721957624,-0.0003351569175720215
1745972683824080600,12.37808056640625,0.08410377509338907,0.06006476283073425,0.015587240517620775,0.011960863135755062,0.25914620348789447,0.960367586497201,0.535056473881675,right,-0.001107931137084961,-0.1879067861423016,0.8093036548230796,-9.599974750244616,-0.10146202818779498,0.0018083024770021439,0.002867192029953003,1.8319107453696428,0.000215187668800354
1745972683864080600,12.41808056640625,0.0850420451292105,0.056281764060258865,0.01596193459237863,0.0010742461308836937,0.2603322408924039,0.9600456631010891,0.537598850604442,right,-0.004124581813812256,-0.18750902511114836,0.818372511941567,-9.599936171799898,-0.10141339291058782,0.007090301718562841,0.002954743802547455,1.8280784737303852,0.004548847675323486
1745972683904080600,12.45808056640625,0.0851718291804988,0.018972598016262054,0.015981302109840695,-0.011904992163181305,0.2611101636878074,0.9598455947569734,0.5392134934033787,right,-0.0011962652206420898,-0.18721913007357574,0.8196635016001761,-9.600357612082362,-0.10130436816516238,0.0030660913325846195,0.0019996166229248047,1.825285335880518,0.0028757452964782715
1745972683944081000,12.498080810546876,0.0851718291804988,0.006998887285590172,0.015981302109840695,-0.0011353464797139168,0.2611101636878074,0.9598455947569734,0.5392134934033787,right,0.00596773624420166,-0.18721913007357574,0.8196635016001761,-9.600357612082362,-0.10130436816516238,0.0015076458221301436,0.0005845800042152405,1.825285335880518,-0.0003319382667541504
1745972683984081000,12.538080810546875,0.08406146243684912,-0.006454102694988251,0.015410682043408628,-0.011186058633029461,0.26119035986261635,0.9598354244306111,0.5392808321129953,right,0.004940509796142578,-0.18747451955477645,0.8089639014746993,-9.600797172543405,-0.10128220998769322,-0.007655448745936155,0.00004400312900543213,1.827746026905626,-0.0007172226905822754
1745972684024080600,12.57808056640625,0.08388802369979517,0.005720016546547413,0.01524041402464035,0.009512142278254032,0.2611476140223526,0.9598182905789735,0.5392190503575495,right,0.004098176956176758,-0.18814551218431028,0.8071957958236337,-9.599712884438038,-0.10158040006595649,-0.022938352078199387,0.0010533854365348816,1.8342105467446148,-0.0011017173528671265
1745972684064080600,12.61808056640625,0.0844218414613898,0.012294145300984383,0.01533506730014081,0.0042029921896755695,0.261333563850772,0.9597071173979373,0.539731840552159,right,-0.0006349086761474609,-0.18915264551929725,0.812164012690261,-9.59743500263393,-0.10213629429806606,-0.018101181834936142,-0.00031000375747680664,1.843911856547743,0.0006045550107955933
1745972684104080600,12.65808056640625,0.0846801379220252,0.013006092980504036,0.015368705009620225,0.0019186274148523808,0.2615231427886634,0.9596255920509497,0.5401885512774045,right,-0.005574345588684082,-0.1896501506619984,0.8145652286130934,-9.596309797996282,-0.10241175078689832,0.005567068234086037,0.0009414330124855042,1.8487034747384488,-0.0025621801614761353
1745972684144080600,12.69808056640625,0.08466574246929089,0.009998483583331108,0.015404104372402395,0.007582296617329121,0.2617696459191115,0.9595829049375516,0.5406667647574529,right,-0.0009575486183166504,-0.18915441248954862,0.8145045114018022,-9.597233342581987,-0.10217622152592852,0.0054143574088811874,0.0045911818742752075,1.8439289538130164,0.004410535097122192
1745972684184080600,12.73808056640625,0.08466574246929089,0.005771222058683634,0.015404104372402395,-0.008135941810905933,0.2617696459191115,0.9595829049375516,0.5406667647574529,right,-0.004694461822509766,-0.18915441248954862,0.8145045114018022,-9.597233342581987,-0.10217622152592852,0.0016457962337881327,0.0024218708276748657,1.8439289538130164,0.0035256296396255493
1745972684224081000,12.778080810546875,0.08434798031505789,0.0015762271359562874,0.015289993353405598,-0.01716945320367813,0.26205490242113033,0.9595355097269491,0.5411943786662685,right,0.0020303726196289062,-0.1886702402954428,0.8115299525704235,-9.598380174529552,-0.10190687690758322,0.022656913846731186,0.0014081671833992004,1.8392653459161519,-0.0031630098819732666
1745972684264066600,12.818066650390625,0.08412019881521948,0.009262197650969028,0.0153277421324378,-0.0012533966219052672,0.26217504374309286,0.959563295354276,0.541342498850747,right,0,-0.18752425698489428,0.8095201471179724,-9.60065922537744,-0.10132954877356722,0.03119497373700142,0,1.828225334855169,0
1745972684304066600,12.858066650390626,0.08398313666020092,0.006984014064073563,0.01528826882903669,-0.0004787463112734258,0.2623487479153068,0.9595340939854595,0.5416685036061512,right,0.0017833113670349121,-0.18720710725266992,0.8082529036611318,-9.6013472076416,-0.10116224480724004,0.013830773532390594,0.00035134702920913696,1.8251694544158874,-0.0017085522413253784
1745972684344066600,12.898066650390625,0.08399597759051143,0.006477370858192444,0.015303542917281166,0.00327460840344429,0.2624784133236597,0.9595063826682949,0.541928927593462,right,0.0014142990112304688,-0.18704205880819688,0.8084014452863484,-9.601637130498885,-0.10108690523746518,0.008320189081132412,0.0004879310727119446,1.8235792626149951,-0.0017829835414886475
1745972684384066600,12.938066650390626,0.08399597759051143,0.005970727652311325,0.015303542917281166,0.007027963176369667,0.2624784133236597,0.9595063826682949,0.541928927593462,right,0.0010157227516174316,-0.18704205880819688,0.8084014452863484,-9.601637130498885,-0.10108690523746518,0.0028096046298742294,0.0006396621465682983,1.8235792626149951,-0.0020195692777633667
1745972684424066600,12.978066650390625,0.08422616365508939,0.005657773930579424,0.015419215564145506,0.0069799600169062614,0.2626658207208411,0.9594592861996557,0.5423309417110559,right,0.0002709031105041504,-0.18685284932896387,0.8106406025152653,-9.601794366887212,-0.10102963936048331,-0.003498747479170561,0.0016965344548225403,1.8217559927105902,-0.0005449205636978149
1745972684464066600,13.018066650390624,0.08422616365508939,0.004657043144106865,0.015419215564145506,0.005252446047961712,0.2626658207208411,0.9594592861996557,0.5423309417110559,right,0.000017702579498291016,-0.18685284932896387,0.8106406025152653,-9.601794366887212,-0.10102963936048331,-0.005167065188288689,0.0024572908878326416,1.8217559927105902,-0.0011774450540542603
1745972684504066600,13.058066650390625,0.08465276756129536,0.003470088355243206,0.015578843586495637,0.002380260033532977,0.26285380440545925,0.9593905012968907,0.5427790077258758,right,-0.0005697011947631836,-0.1870183081345376,0.8147111398898065,-9.601146716633439,-0.10116836788554823,-0.005442640278488398,0.002658650279045105,1.8233504222951828,-0.0004706829786300659
1745972684544066300,13.09806640625,0.08484065602390221,0.002664475003257394,0.015617125138159165,0.0006554452702403069,0.2629684606432746,0.9593416276683603,0.5430570242959949,right,-0.0005962848663330078,-0.18729756602403916,0.8164719390172511,-9.600486206898093,-0.10132888226285904,-0.00866980291903019,0.0031621307134628296,1.8260411226838826,0.00038164854049682617
