time,seconds_elapsed,roll,rotationRateZ,quaternionY,rotationRateY,quaternionZ,quaternionW,yaw,devicelocation,accelerationZ,pitch,gravityX,gravityZ,quaternionX,rotationRateX,accelerationX,gravityY,accelerationY
1745972489628668200,0.414668212890625,0.0720158845521777,-0.042183902114629745,0.03586592782030667,0.04628784582018852,2.219006703547031e-17,0.998112315286157,0.0035939446955140547,right,0.004070598632097244,-0.09968411036126452,0.7021213372159749,-9.732673494163155,-0.04985365807064097,0.07748415321111679,0.005435402970761061,0.9759490189418196,-0.01420710701495409
1745972489668668200,0.454668212890625,0.07715756798715949,-0.04711193963885307,0.03849548338674188,0.05712432041764259,-0.0011213613727898931,0.9981682794724098,0.0013595840891396339,right,0.002137601375579834,-0.09336783377141547,0.7526143108084797,-9.734886494037509,-0.046658416026226994,0.07302802056074142,0.0020617321133613586,0.9142959881052374,-0.006971202790737152
1745972489708668200,0.494668212890625,0.0801392785991492,-0.058856766670942307,0.040043023972075834,0.03865702450275421,-0.002285130031045501,0.9982268835848486,-0.001044003204542546,right,-0.009530842304229736,-0.08810142350917513,0.7820121816631406,-9.737263744562863,-0.043980226495625115,0.026749998331069946,-0.0027208328247070312,0.8628625918574631,0.004441350698471069
1745972489748668200,0.534668212890625,0.080134685105013,-0.06038688123226166,0.04010468595339329,0.017733579501509666,-0.003746260994340039,0.9982118856004843,-0.003952140803621784,right,-0.004718303680419922,-0.08858949953213364,0.781933636534214,-9.736846395933627,-0.044165564691881404,0.001121610403060913,-0.003752291202545166,0.8676303177159279,0.0012331828474998474
1745972489788668200,0.574668212890625,0.08012863396917531,-0.06191699206829071,0.040166250265646214,-0.0031898673623800278,-0.005207413091730521,0.9981946102239311,-0.006860466923157434,right,0.0000940561294555664,-0.08907752965738824,0.7818406975537538,-9.736427878260612,-0.04435079532912996,-0.02450677938759327,-0.004782281816005707,0.8723973859872668,-0.001974917948246002
1745972489828668200,0.614668212890625,0.07893823175494298,-0.05239114910364151,0.03963433093396193,-0.007282001432031393,-0.006556760356833894,0.9981699606166208,-0.009546401908983579,right,0.006569623947143555,-0.09087202344519778,0.7701251983840018,-9.735775551831722,-0.045196342801721835,-0.024014417082071304,-0.003907889127731323,0.8899242017842829,-0.0028969794511795044
1745972489868668200,0.654668212890625,0.07822080950024482,-0.04559135437011719,0.03931514962114933,-0.008693026378750801,-0.007380105760392458,0.9981588282811313,-0.01119541093407543,right,0.004462182521820068,-0.09172518866337284,0.7630807597652077,-9.735565123951435,-0.04559210340836019,-0.036587972193956375,-0.003957986831665039,0.8982560498651116,-0.0008741021156311035
1745972489908668200,0.694668212890625,0.07756419192697306,-0.03556680679321289,0.039026675878805074,0.0007204599678516388,-0.008179374216752107,0.9981318975529789,-0.01277088452069187,right,0.0024042129516601562,-0.09317925298771515,0.7565860639836639,-9.73475146948099,-0.04628949740486935,-0.05136493593454361,-0.002245597541332245,0.9124546710874885,-0.0018633604049682617
1745972489948668200,0.734668212890625,0.07743763713739799,-0.011966723948717117,0.03899534655506342,0.018737323582172394,-0.00878245616889452,0.998076595159878,-0.01389919150677253,right,-0.002252638339996338,-0.09541785197504808,0.7551941712338477,-9.732786306887865,-0.04738523014765015,-0.055422376841306686,-0.0026831328868865967,0.9343102368038148,-0.004832178354263306
1745972489988668200,0.774668212890625,0.07772014333975344,0.0037567634135484695,0.039139851013116976,0.01765984110534191,-0.008811378111571405,0.9980342664137924,-0.013884971518590078,right,-0.0021385550498962402,-0.09694234340495603,0.7578321915872395,-9.731141462290287,-0.04814505114520099,-0.062062740325927734,-0.0010133981704711914,0.9491913603976369,-0.003305763006210327
1745972490028668200,0.814668212890625,0.07827226391175655,0.020627615973353386,0.039389672626988004,0.008323121815919876,-0.0082520855721645,0.9979913493591782,-0.012678502246660058,right,-0.002215743064880371,-0.0984621719364519,0.7630912080939859,-9.729272161287069,-0.048924802823601406,-0.05134693905711174,-0.000013582408428192139,0.9640246993269771,-0.002158157527446747
1745972490068668200,0.854668212890625,0.07882630650661378,0.03749846667051315,0.03963945701522484,-0.0010135984048247337,-0.007692799698418157,0.9979473778118325,-0.01147103550954043,right,-0.0022956132888793945,-0.09998133333658979,0.7683652760393918,-9.727376556798815,-0.049704507783351386,-0.040631137788295746,0.0009846985340118408,0.978849270427972,-0.0010096505284309387
1745972490108668200,0.894668212890625,0.0788825837565953,0.035371579229831696,0.03963118932049027,-0.008226480334997177,-0.006956984367066037,0.9979334109561625,-0.009964872393670424,right,-0.0003045201301574707,-0.10071341730029892,0.7688560552310199,-9.726616093820333,-0.050099443579740034,-0.021070696413517,0.0019983425736427307,0.9859924932461231,0.0019892677664756775
1745972490148668200,0.934668212890625,0.07880581434870614,0.016674138605594635,0.03955754647723218,-0.008071523159742355,-0.006250421892064885,0.9979318959828644,-0.008540685101554814,right,0.0006905794143676758,-0.10101935900063412,0.7680855823151767,-9.726374101758003,-0.05028054957938805,-0.017372848466038704,0.0012067705392837524,0.9889775004062801,0.009559817612171173
1745972490188668200,0.974668212890625,0.07905825763878489,0.009800583124160767,0.039673571866201775,0.007578585296869278,-0.006059106498811139,0.9979094881311255,-0.008115537079172458,right,0.002263486385345459,-0.10175653894648949,0.7704830719109624,-9.725450557172298,-0.050656023271688035,-0.022726111114025116,0.0011759325861930847,0.9961696038674562,0.007112160325050354
1745972490228668200,1.014668212890625,0.07937899035744723,0.014949934557080269,0.03981936199076121,0.001110029872506857,-0.005791797266114092,0.9978598895165696,-0.007494357806804127,right,-0.0003059506416320801,-0.10350653532018299,0.7734628914393484,-9.72345032326579,-0.051540583361527725,-0.020127616822719574,-0.0002628639340400696,1.013240930981934,0.006270676851272583
1745972490268668200,1.054668212890625,0.07970088736741522,0.02009928598999977,0.03996512042479854,-0.005358525086194277,-0.005524482994915469,0.9978094890193713,-0.006872500636003178,right,-0.002878546714782715,-0.10525634770815517,0.7764504558827727,-9.72141852517724,-0.05242510176874418,-0.017529120668768883,-0.0017024502158164978,1.0303072896603493,0.005429700016975403
1745972490308668200,1.094668212890625,0.07933343315735605,0.01672825776040554,0.039759682117769334,-0.020389409735798836,-0.0051066129159490995,0.9977894528075726,-0.006009874617734491,right,-0.0009171366691589355,-0.1063787353581973,0.7727860881563275,-9.720544080430269,-0.053003234264286256,-0.023114964365959167,-0.0032135918736457825,1.0412526081752032,0.00973924994468689
1745972490348668200,1.134668212890625,0.07836891014445845,-0.00541912205517292,0.039267269210177834,-0.02974211797118187,-0.004885289092164692,0.9977781856202995,-0.005571646378948662,right,-0.0036759376525878906,-0.1075525898846171,0.7633138378687202,-9.720059511783719,-0.053599935285775085,-0.016082575544714928,-0.005265876650810242,1.052698423558101,0.00914369523525238
1745972490388668200,1.174668212890625,0.07705768520063556,-0.025623394176363945,0.03864830374321652,-0.015172185376286507,-0.005507277240343041,0.9977929119958499,-0.006878272192392447,right,-0.0006175637245178223,-0.10782704393908114,0.7505457609061151,-9.72076386066079,-0.05371481662254527,0.003520159050822258,-0.003429509699344635,1.05537429170385,0.007250368595123291
1745972490428668200,1.214668212890625,0.07574605959996603,-0.04582766443490982,0.038029307618210634,-0.000602254644036293,-0.006129260350019868,0.9978068364887578,-0.00818529593725097,right,0.0024393796920776367,-0.10809979079545301,0.7377733000293374,-9.721452427446842,-0.053829655335653454,0.023122893646359444,-0.0015927106142044067,1.0580334279105066,0.005358748137950897
1745972490468668200,1.254668212890625,0.07533777626808597,-0.050958048552274704,0.03787337059417141,-0.0012148721143603325,-0.007004177539220532,0.9978099917857668,-0.009962722601180213,right,0.00006145238876342773,-0.10805358562128385,0.7338077573992311,-9.721801971536875,-0.05377421599750325,0.010560227558016777,-0.002428382635116577,1.057582980729267,0.005037397146224976
1745972490508668200,1.294668212890625,0.07450166706213251,-0.05418258532881737,0.03752499481240202,-0.023786965757608414,-0.008246327728072067,0.9978005432307225,-0.012476200057815827,right,-0.001616835594177246,-0.1086306038434286,0.7256335110329091,-9.721801971536875,-0.05401790597955329,-0.002463843673467636,-0.0012648403644561768,1.0632084193956106,0.002504967153072357
1745972490548668200,1.334668212890625,0.07359843760658853,-0.05897350609302521,0.03712488573311395,-0.014334137551486492,-0.009143795656404682,0.997798709904373,-0.014309694570999645,right,0.0021573305130004883,-0.10902244027838982,0.7168214782197028,-9.722036949336529,-0.05418310891819493,-0.0020414208993315697,-0.0004727020859718323,1.0670282699447124,0.0023261234164237976
1745972490588668200,1.374668212890625,0.07286735753279751,-0.06587173789739609,0.036835023407293624,-0.002064320258796215,-0.010482211266158128,0.99778507223412,-0.017013938575038624,right,0.00022482872009277344,-0.10952746556445164,0.7096743829440325,-9.722019413679838,-0.054388659512160376,-0.005235063843429089,-0.0006689354777336121,1.0719513324953616,0.002056531608104706
1745972490628668200,1.414668212890625,0.07248252306355006,-0.05834360048174858,0.03670384783282541,0.000058859121054410934,-0.011569959306586334,0.997770621572469,-0.019202912066572375,right,0.0020348429679870605,-0.10987249798417117,0.7059061164516955,-9.721922383046149,-0.05452267391675208,-0.001871716696768999,0.00007450580596923828,1.0753145983833818,-0.0009110197424888611
1745972490668668200,1.454668212890625,0.07253459167138603,-0.044381603598594666,0.03679550885027071,0.011005720123648643,-0.012741934784160983,0.9977413401379381,-0.021530940328104285,right,-0.00013577938079833984,-0.11038622029479682,0.7063721995934844,-9.721333769503236,-0.05473587307400583,-0.009638164192438126,0.00017195940017700195,1.0803219782166182,-0.001209169626235962
1745972490708668200,1.494668212890625,0.0729182660748,-0.02819972299039364,0.03702157241591166,0.021745245903730392,-0.013351081142865226,0.9977126887648543,-0.022713169901718715,right,0.00029075145721435547,-0.11088234678915464,0.7100628708049654,-9.720525960251688,-0.054959066453711805,-0.016744768247008324,0.0002506375312805176,1.085157581679523,-0.0009018704295158386
1745972490748668200,1.534668212890625,0.07360355213164842,-0.009075906127691269,0.037386467419885286,0.020258335396647453,-0.013744879998296154,0.9976776460394476,-0.023442278630209226,right,-0.0007030963897705078,-0.11150618286307924,0.7166741056382656,-9.719360423603653,-0.055252070051340085,-0.013935727998614311,0.0004987716674804688,1.091237559180334,-0.001972980797290802
1745972490788668200,1.574668212890625,0.07488531645567584,0.013431370258331299,0.03802726153072141,0.033818989992141724,-0.013777711701383148,0.997641996021258,-0.023422062626531497,right,0.0006820559501647949,-0.11191503219305046,0.7290980453383177,-9.71798796620667,-0.055447595154938335,-0.00450699869543314,0.000951714813709259,1.0952219526413827,-0.00027264654636383057
1745972490828668200,1.614668212890625,0.07608135449993865,0.02163197472691536,0.03860747355657717,0.03601715341210365,-0.013529269354515304,0.9976286707043364,-0.022865198160497754,right,-0.000037550926208496094,-0.11170992640220308,0.7407376297276467,-9.71733271716833,-0.05534778255736754,0.005186227150261402,0.0024454891681671143,1.0932231800395995,0.0005516484379768372
1745972490868668200,1.654668212890625,0.07774316662019504,0.014816421084105968,0.0394124046993862,0.029832230880856514,-0.013173101479085526,0.9976155437732122,-0.022078060987225256,right,-0.003042936325073242,-0.11121089149002084,0.7569272786367685,-9.716631290900708,-0.05510310385339026,0.008148670196533203,0.004850737750530243,1.0883596656564622,0.002952978014945984
1745972490908668200,1.694668212890625,0.07900553046676617,0.005612808279693127,0.04002484664438358,0.014731589704751968,-0.012931715138876672,0.9976111103701841,-0.021548343524375,right,-0.0028232336044311523,-0.11059581990663393,0.7692452737443148,-9.716333184736966,-0.0547985678882222,0.012477993033826351,0.006634652614593506,1.0823648822210727,0.004776135087013245
1745972490948668200,1.734668212890625,0.07900553046676617,0.0021717885974794626,0.04002484664438358,0.008624459616839886,-0.012931715138876672,0.9976111103701841,-0.021548343524375,right,-0.0017967820167541504,-0.11059581990663393,0.7692452737443148,-9.716333184736966,-0.0547985678882222,0.010366784408688545,0.006896592676639557,1.0823648822210727,0.002911783754825592
1745972490988668200,1.774668212890625,0.07938948249609726,0.0012537362053990364,0.040211330818790546,-0.012502479366958141,-0.01289119526507665,0.9976232829228805,-0.021473340265875548,right,-0.0036774277687072754,-0.10989752234609883,0.7730356059379875,-9.716788527289033,-0.054449259353050276,0.017016813158988953,0.003938540816307068,1.0755585632070899,0.0005217418074607849
1745972491028668200,1.814668212890625,0.07938948249609726,-0.004679573699831963,0.040211330818790546,-0.015508261509239674,-0.01289119526507665,0.9976232829228805,-0.021473340265875548,right,-0.001012265682220459,-0.10989752234609883,0.7730356059379875,-9.716788527289033,-0.054449259353050276,0.009567340835928917,0.0023732855916023254,1.0755585632070899,0.00168648362159729
1745972491068668200,1.854668212890625,0.07904035406362916,-0.0034282407723367214,0.04003830599292832,-0.0038534440100193024,-0.012943614927413145,0.9976484110079888,-0.021624498219475624,right,0.00034672021865844727,-0.10920393058015501,0.7697018584053963,-9.7177991656363,-0.0541024904467506,0.012461665086448193,0.000886775553226471,1.0687974715743214,0.0015101656317710876
1745972491108668200,1.894668212890625,0.07905441689742022,-0.0005738413892686367,0.04004654022870874,0.0018842252902686596,-0.013008285698287101,0.997665921462603,-0.021780107488929244,right,0.000021278858184814453,-0.10851789339953546,0.769896211933717,-9.718516958516835,-0.05375705230122244,0.01692911982536316,0.0009047463536262512,1.0621095913082361,0.0007292181253433228
1745972491148668200,1.934668212890625,0.07935790845637108,0.005277316085994244,0.04019261732820043,0.0020092411432415247,-0.012968682141515534,0.997682904173936,-0.021716884625149306,right,-0.0012099146842956543,-0.10768643402677469,0.7729154136244207,-9.719159348073601,-0.05334156528103591,0.018776187673211098,0.0003951936960220337,1.0540033686768262,0.0013839751482009888
1745972491188668200,1.974668212890625,0.07935790845637108,0.0045099444687366486,0.04019261732820043,0.00036343163810670376,-0.012968682141515534,0.997682904173936,-0.021716884625149306,right,-0.000996232032775879,-0.10768643402677469,0.7729154136244207,-9.719159348073601,-0.05334156528103591,0.01932957023382187,0.0024719759821891785,1.0540033686768262,0.002535775303840637
1745972491228668200,2.014668212890625,0.07939595533096665,0.0010319279972463846,0.04019877413072944,-0.0021055301185697317,-0.012805899122749346,0.9977176384081796,-0.02143766876742442,right,-0.00011658668518066406,-0.1064310151791808,0.7733895339421928,-9.720441789099574,-0.05272064361759589,0.027192678302526474,0.002586260437965393,1.041762384328246,0.001860305666923523
1745972491268668200,2.054668212890625,0.07931180011613434,-0.009069602005183697,0.04015926939163706,-0.00421617366373539,-0.012906683216379774,0.9977415898012993,-0.021678977673886966,right,-0.0009911060333251953,-0.10554026130352256,0.7726447069242596,-9.721427877527475,-0.05227194821038617,0.028969626873731613,0.0020435750484466553,1.0330760967865587,0.0011203885078430176
1745972491308668200,2.094668212890625,0.0789893142871802,-0.012542881071567535,0.040008027174575043,-0.00962032563984394,-0.013136700945541003,0.9977664659180603,-0.022188861151550773,right,-0.0015329718589782715,-0.10472058583078199,0.7695761861991137,-9.722517426329851,-0.051854890891717034,0.022738851606845856,0.0011703073978424072,1.025082175423205,-0.0005154237151145935
1745972491348668200,2.134668212890625,0.07830040674859791,-0.013531717471778393,0.039678290739913136,-0.014734238386154175,-0.013422306715962366,0.9977890655037422,-0.022816288354597827,right,0.0001944899559020996,-0.10422441578916856,0.7629178242884576,-9.723550861030816,-0.05159942107896492,0.00263957679271698,0.0008577331900596619,1.020242991763726,-0.0009492188692092896
1745972491388668200,2.174668212890625,0.07747807463429947,-0.009615221992135048,0.039286084134902824,-0.014130325987935066,-0.013737233802787999,0.9977962311908783,-0.02348342261956231,right,0.001528620719909668,-0.10439836286419743,0.7549078285731374,-9.723998020276428,-0.051678618724871554,-0.010489573702216148,0.0015707612037658691,1.0219395665485411,-0.0035054534673690796
1745972491428668200,2.214668212890625,0.07727871850274037,-0.00480996398255229,0.03919253918996507,-0.006710359826683998,-0.013802275224901572,0.9977838868390633,-0.0236018718319609,right,-0.0004849433898925781,-0.10498312909322476,0.7529230114314704,-9.723550861030816,-0.05196941931276912,-0.02095375955104828,0.0006320476531982422,1.027642746626213,-0.0019571855664253235
1745972491468668200,2.254668212890625,0.07698873041247682,-0.004031038377434015,0.0390539956726388,-0.008423484861850739,-0.013843832691744126,0.9977648006708688,-0.023665625070319593,right,-0.00006324052810668945,-0.1058976006807595,0.7500306509908288,-9.722827807453275,-0.05242641835783898,-0.02559497579932213,0.0015681758522987366,1.0365608701623976,0.0009656250476837158
1745972491508668200,2.294668212890625,0.07665631899920973,-0.009217048063874245,0.03890005947886927,-0.004426394589245319,-0.013966560749479008,0.997735847336765,-0.023881431468895174,right,0.0001418590545654297,-0.10716153786976725,0.746697707175836,-9.721762224048376,-0.053055102632147466,-0.019762348383665085,0.002023547887802124,1.0488855872716754,0.00238751620054245
1745972491548668200,2.334668212890625,0.07650388044042107,-0.011804606765508652,0.038838613872871464,-0.0044908681884408,-0.014187165619991914,0.9977180108823162,-0.024307006908426108,right,0.0002983212471008301,-0.10781923764254099,0.7451628257587551,-9.721186469987034,-0.05337602339420663,-0.00962163507938385,0.001813344657421112,1.0552981577277183,0.0016463100910186768
1745972491588668200,2.374668212890625,0.07650388044042107,-0.012200449593365192,0.038838613872871464,-0.010985532775521278,-0.014187165619991914,0.9977180108823162,-0.024307006908426108,right,-0.0021134018898010254,-0.10781923764254099,0.7451628257587551,-9.721186469987034,-0.05337602339420663,-0.000041179358959198,0.0022425130009651184,1.0552981577277183,0.003221370279788971
1745972491628668200,2.414668212890625,0.07584478888806197,-0.011310627683997154,0.038534875420350535,-0.020257946103811264,-0.014606496113008514,0.9977138121317782,-0.02516810157682739,right,-0.002175569534301758,-0.10821477543687741,0.7387238787524402,-9.721258366179466,-0.05356143800463896,0.004357261583209038,0.0012378841638565063,1.0591544678296894,0.0006292685866355896
1745972491668668200,2.454668212890625,0.07527482801312774,-0.006592524237930775,0.0382621716973113,-0.011982914060354233,-0.014800953379702634,0.9977194043468207,-0.025585387720583292,right,-0.0005216002464294434,-0.10829905524108908,0.733176254562661,-9.721588621047138,-0.05359966175162481,-0.0009469129145145416,0.000708259642124176,1.0599761594761163,-0.00009476393461227417
1745972491708668200,2.494668212890625,0.07490774725209186,-0.008798792958259583,0.03808612952692592,-0.011602841317653656,-0.014912093369284927,0.9977210940374672,-0.02582307821965395,right,-0.0006397366523742676,-0.10843007679957539,0.72959722703211,-9.72171838490665,-0.05366321522996406,-0.0031656441278755665,0.00033170729875564575,1.0612534859355538,0.0012885183095932007
1745972491748668200,2.534668212890625,0.07490774725209186,-0.01100506167858839,0.03808612952692592,-0.011222769506275654,-0.014912093369284927,0.9977210940374672,-0.02582307821965395,right,-0.0007711052894592285,-0.10843007679957539,0.72959722703211,-9.72171838490665,-0.05366321522996406,-0.005384375341236591,-0.0004098042845726013,1.0612534859355538,0.002802051603794098
1745972491788668200,2.574668212890625,0.07423262095768443,-0.01868930459022522,0.03777291966138435,-0.0021523497998714447,-0.015303913417984979,0.9977187428604242,-0.02663279251056325,right,0.00004267692565917969,-0.10876024252198417,0.7230076195087284,-9.721859254682064,-0.05381767460390398,-0.004558910615742207,0.0007904022932052612,1.0644722287863493,0.0026651397347450256
1745972491828668200,2.614668212890625,0.07400614671869248,-0.019899914041161537,0.037680899086448144,-0.001690021948888898,-0.015683801134221673,0.9977162185521344,-0.027405476292928378,right,-0.000660240650177002,-0.10878900612901608,0.7208036066584289,-9.721991941151023,-0.05381920451971769,0.00796567089855671,-0.0000388026237487793,1.0647526531629263,0.00022411346435546875
1745972491868668200,2.654668212890625,0.07380717704494409,-0.017321230843663216,0.03760571565584239,-0.002198851900175214,-0.016159950683983695,0.9977223313492997,-0.028384106072578057,right,-0.0008183717727661133,-0.10841783708566018,0.7188982844937593,-9.722528532245754,-0.05361719750743922,0.01803511381149292,-0.0016842633485794067,1.0611341704048216,-0.0014487802982330322
1745972491908668200,2.694668212890625,0.07370445909165847,-0.01526590995490551,0.03756763439576193,-0.00014407234266400337,-0.016450424329503183,0.997732752011531,-0.028989680995738957,right,-0.0003075599670410156,-0.10792507429427002,0.7179380611594766,-9.723122991007566,-0.05336081915499475,0.015830907970666885,-0.0012805536389350891,1.0563300580587238,-0.0008492991328239441
1745972491948668200,2.734668212890625,0.0735781887384816,-0.015098599717020988,0.03752219634519271,0.0034444129560142756,-0.016811694966558304,0.9977386473732915,-0.02973342148870051,right,0.00015980005264282227,-0.10756952586150464,0.7167378185242415,-9.723587101387977,-0.053170522773623934,0.003569892607629299,-0.002163209021091461,1.0528635509919375,-0.0008894652128219604
1745972491988668200,2.774668212890625,0.07350124324530637,-0.01686166040599346,0.03750605166078991,-0.001953503815457225,-0.017212102463729125,0.9977294370430303,-0.03053511160365665,right,-0.0009875297546386719,-0.10770976419899005,0.7159788168504834,-9.723495331451296,-0.05322610576172496,-0.007767894305288792,-0.003315575420856476,1.0542308207571507,-0.00167836993932724
1745972492028668200,2.814668212890625,0.07344524296599794,-0.015879979357123375,0.03749346738874685,-0.0012150859693065286,-0.017456099773432345,0.9977157644489609,-0.031013204087025528,right,-0.001703500747680664,-0.10809977382067308,0.7154040857024491,-9.723124160051345,-0.053412197522072435,-0.00941446702927351,-0.0027390271425247192,1.0580332817800342,-0.0027971863746643066
1745972492068668200,2.854668212890625,0.07344524296599794,-0.007504330947995186,0.03749346738874685,0.003530530259013176,-0.017456099773432345,0.9977157644489609,-0.031013204087025528,right,-0.0005419254302978516,-0.10809977382067308,0.7154040857024491,-9.723124160051345,-0.053412197522072435,-0.014539510011672974,-0.0010559409856796265,1.0580332817800342,-0.000566236674785614
1745972492108668200,2.894668212890625,0.07353152301199674,-0.0005139699205756187,0.037550010974065025,0.0018617811147123575,-0.01763422925218361,0.9976922048922463,-0.0313405870974112,right,-0.0011968016624450684,-0.10879760831912717,0.7161885871436446,-9.722323949584364,-0.05375343502547137,-0.01532020140439272,-0.0015330389142036438,1.0648364589888601,-0.0010063424706459045
1745972492148668200,2.934668212890625,0.07333546325773324,0.009188275784254074,0.03745390978760495,-0.0022990156430751085,-0.017577731246153246,0.9976758747548518,-0.031210436740506383,right,0.00031244754791259766,-0.10956381604835129,0.7142224016372114,-9.721647657757996,-0.05413984437338043,-0.020121030509471893,-0.00014094263315200806,1.072305698890984,0.000680387020111084
1745972492188668200,2.974668212890625,0.0732737715473278,0.011267149820923805,0.03741554187578722,0.0021451974753290415,-0.01734368751839171,0.9976568455667465,-0.03071301369937494,right,-0.000551760196685791,-0.11044608096072044,0.7135531240735202,-9.72074457143843,-0.0545898263225664,-0.023204512894153595,-0.0012425854802131653,1.0809054041277617,0.00583377480506897
1745972492228668200,3.014668212890625,0.07329963323310672,0.011504892259836197,0.037419706692044495,-0.0038142523262649775,-0.017090952271160822,0.9976350938953236,-0.03017169258618928,right,-0.0012322068214416504,-0.11137410328346102,0.7137307456627487,-9.71972107360959,-0.05506267719321591,-0.02014336921274662,-0.00017749518156051636,1.089950295848772,0.002811901271343231
1745972492268668200,3.054668212890625,0.07334039555708491,0.018273521214723587,0.0374270785168451,-0.003792613511905074,-0.016789972065224496,0.9976201359955795,-0.029541196179996693,right,-0.0020708441734313965,-0.11206732635278138,0.7140713757939636,-9.71893606071174,-0.055419940529338164,-0.01758592762053013,-0.00031270086765289307,1.0967061267845333,0.0011574998497962952
1745972492308668200,3.094668212890625,0.07299398254493973,0.01934596709907055,0.03722973632587457,-0.011361422017216682,-0.016293170577708783,0.9976208296733898,-0.02854683363819342,right,0.0007064342498779297,-0.11256138661601114,0.7106650014165788,-9.718641461679338,-0.0556878222639806,-0.009984077885746956,0.002023659646511078,1.1015206874594092,0.003031589090824127
1745972492348668200,3.134668212890625,0.07289140472280727,0.018630744889378548,0.037161637045233856,-0.009426658041775227,-0.01596382650369514,0.9976206749606235,-0.02788293592565982,right,-0.00006204843521118164,-0.11282400702307285,0.7096469834804534,-9.718425188580154,-0.05583199973157211,-0.007443809881806374,0.0013102144002914429,1.1040797973576932,0.0019828975200653076
1745972492388668200,3.174668212890625,0.07278898210219041,0.017915522679686546,0.03709352477292785,-0.007491894066333771,-0.01563440993048063,0.9976202637363805,-0.02721890191966719,right,-0.0008307099342346191,-0.11308665376878596,0.7086304999142885,-9.718208330959081,-0.055976158797445726,-0.004903541412204504,0.0005966350436210632,1.1066390533864499,0.0009341910481452942
1745972492428668200,3.214668212890625,0.07235220365845235,0.007553338538855314,0.0368528790850163,-0.007678676396608353,-0.015127186909103611,0.9976045681467914,-0.026187228892328888,right,-0.00031113624572753906,-0.11419615657666816,0.7042964892979711,-9.717286539939046,-0.056552044951240714,-0.018864033743739128,0.0018048286437988281,1.117449347344786,0.0006828531622886658
1745972492468668200,3.254668212890625,0.07251180396686469,0.010253275744616985,0.036919342999320426,-0.0014967666938900948,-0.014846457778409611,0.99758599179567,-0.025590599082705844,right,-0.0016197562217712402,-0.11489329856502731,0.7057907464437186,-9.716394559535384,-0.05690960433055182,-0.0126720629632473,0.0012068450450897217,1.1242411994419992,0.0018070042133331299
1745972492508668200,3.294668212890625,0.07251180396686469,0.0022297846153378487,0.036919342999320426,-0.001582360710017383,-0.014846457778409611,0.99758599179567,-0.025590599082705844,right,-0.000279843807220459,-0.11489329856502731,0.7057907464437186,-9.716394559535384,-0.05690960433055182,-0.004632057622075081,0.0016679763793945312,1.1242411994419992,0.0014559701085090637
1745972492548668200,3.334668212890625,0.07251180396686469,-0.005793707445263863,0.036919342999320426,-0.0016679547261446714,-0.014846457778409611,0.99758599179567,-0.025590599082705844,right,0.0010601282119750977,-0.11489329856502731,0.7057907464437186,-9.716394559535384,-0.05690960433055182,0.0034079477190971375,0.002129100263118744,1.1242411994419992,0.0011049434542655945
1745972492588668200,3.374668212890625,0.07251180396686469,-0.009432138875126839,0.036919342999320426,-0.006854246370494366,-0.014846457778409611,0.99758599179567,-0.025590599082705844,right,0.00008219480514526367,-0.11489329856502731,0.7057907464437186,-9.716394559535384,-0.05690960433055182,0.0008060834370553493,0.00004417449235916138,1.1242411994419992,0.0004661083221435547
1745972492628668200,3.414668212890625,0.07264841016509252,-0.005856822244822979,0.037006800824919035,0.012835136614739895,-0.015131533663951494,0.9975581051240758,-0.026128153058406465,right,0.004116654396057129,-0.11562917789626005,0.7070578437700867,-9.71547043042779,-0.05726571103430784,-0.0032541202381253242,0.000995442271232605,1.1314098489623516,-0.0038976669311523438
1745972492668668200,3.454668212890625,0.07264841016509252,-0.0018976395949721336,0.037006800824919035,0.0035352660343050957,-0.015131533663951494,0.9975581051240758,-0.026128153058406465,right,-0.003001272678375244,-0.11562917789626005,0.7070578437700867,-9.71547043042779,-0.05726571103430784,-0.007532906252890825,0.00014452636241912842,1.1314098489623516,-0.00357731431722641
1745972492708668200,3.494668212890625,0.07324768647995678,-0.00013342290185391903,0.03731409793592677,0.019354168325662613,-0.01525396229418044,0.9975301505259547,-0.02632039847171212,right,0.0011003613471984863,-0.11615347992221481,0.7128364271715283,-9.714452193295955,-0.057519112076737045,-0.014768419787287712,0.001525290310382843,1.1365169628430156,-0.0010031238198280334
1745972492748668200,3.534668212890625,0.07306345664344081,-0.015915626659989357,0.03723643056542674,-0.003299195319414139,-0.015438109872820701,0.9975096544814419,-0.02667437349468689,right,0.00023412704467773438,-0.11687624413087942,0.7109866345863789,-9.713761288422345,-0.05787443546614256,-0.0201403945684433,0.0030315518379211426,1.1435567983519286,0.00026522576808929443
1745972492788668200,3.574668212890625,0.0735011051768774,0.015619376674294472,0.03743874904344839,0.004057921934872866,-0.015193276390863184,0.9975122340129562,-0.02616638774658947,right,0.0008234977722167969,-0.11664586254975794,0.7152570784471929,-9.713711604061722,-0.057765651917918236,-0.008047075942158699,0.003389135003089905,1.1413128918826578,0.0011137649416923523
1745972492828668200,3.614668212890625,0.0735011051768774,0.04715438187122345,0.03743874904344839,0.01141503918915987,-0.015193276390863184,0.9975122340129562,-0.02616638774658947,right,0.0014179348945617676,-0.11664586254975794,0.7152570784471929,-9.713711604061722,-0.057765651917918236,0.0040462426841259,0.00418216735124588,1.1413128918826578,0.0017334818840026855
1745972492868668200,3.654668212890625,0.0745508435326954,0.043775152415037155,0.03788858720303548,0.00967288576066494,-0.013962774555887887,0.9975161466134483,-0.0236451421300665,right,-0.002228856086730957,-0.11646252815989928,0.7254691142514348,-9.713163907051086,-0.05771403991251493,-0.014261012896895409,0.00267907977104187,1.1395272505749017,0.009501352906227112
1745972492908668200,3.694668212890625,0.07492026119051601,0.0036479420959949493,0.038043817505851014,-0.005897706374526024,-0.013432116179319479,0.9974972134002714,-0.02253530199347562,right,-0.003266453742980957,-0.11712807535634767,0.7290003571175039,-9.712136902090906,-0.05806453713422701,-0.018236443400382996,0.004572823643684387,1.1460095252662896,0.009545139968395233
1745972492948668200,3.734668212890625,0.07486408534794198,-0.0005766269750893116,0.03801945432377494,0.0011445744894444942,-0.013462449073105698,0.9974827124043054,-0.022580342893746202,right,0.00017827749252319336,-0.11764586262807239,0.7284102822698653,-9.711585113427043,-0.05832231397726846,0.003422582522034645,0.0026504620909690857,1.1510523417390883,0.0016901791095733643
1745972492988668200,3.774668212890625,0.07486408534794198,0.004158179275691509,0.03801945432377494,-0.005094157066196203,-0.013462449073105698,0.9974827124043054,-0.022580342893746202,right,0.0008591413497924805,-0.11764586262807239,0.7284102822698653,-9.711585113427043,-0.05832231397726846,0.01071420218795538,0.0022184327244758606,1.1510523417390883,0.0021975338459014893
1745972493028668200,3.814668212890625,0.07486408534794198,0.017639342695474625,0.03801945432377494,-0.003058631205931306,-0.013462449073105698,0.9974827124043054,-0.022580342893746202,right,-0.00238877534866333,-0.11764586262807239,0.7284102822698653,-9.711585113427043,-0.05832231397726846,0.004071836359798908,0.0012528151273727417,1.1510523417390883,0.0007601305842399597
1745972493068668200,3.854668212890625,0.07464987885607124,0.015607433393597603,0.03787219263848483,-0.014843886718153954,-0.012800984136026788,0.9975150153620723,-0.021291231477698947,right,-0.0025089383125305176,-0.11697531770332573,0.7263873981401324,-9.712508073490858,-0.05801372866615636,0.00345437484793365,0.0017720609903335571,1.144521770926565,0.0027720630168914795
1745972493108668200,3.894668212890625,0.07409797233141657,0.009900122880935669,0.03759087456704965,-0.008680419996380806,-0.012692896583176554,0.9975330442165542,-0.021114717988590756,right,-0.0012551546096801758,-0.11675307887494334,0.7210456717859953,-9.713160984441638,-0.05790972895134318,0.006680283695459366,0.0013226866722106934,1.1423572133038193,0.00007393956184387207
1745972493148668200,3.934668212890625,0.07372479294002572,0.008508775383234024,0.03739845028610129,-0.006436202675104141,-0.012585221597189479,0.9975476324373657,-0.02092831498078607,right,0.0007372498512268066,-0.1165377431644022,0.7174389525309205,-9.713674779182671,-0.05780816817358067,0.0035984243731945753,0.0015265941619873047,1.1402598026331514,-0.0018640533089637756
1745972493188668200,3.974668212890625,0.07372479294002572,0.011024887673556805,0.03739845028610129,-0.0008399598300457001,-0.012585221597189479,0.9975476324373657,-0.02092831498078607,right,0.0006250739097595215,-0.1165377431644022,0.7174389525309205,-9.713674779182671,-0.05780816817358067,-0.0020274196285754442,0.0015305951237678528,1.1402598026331514,-0.001742251217365265
1745972493228668200,4.014668212890625,0.07373043403500351,0.008795324712991714,0.03738313978643202,-0.0007948438869789243,-0.012266776006500108,0.9975481092592448,-0.0202853209790391,right,-0.0006862878799438477,-0.1166537760244655,0.7174840337816626,-9.713538585582375,-0.0578780316112697,-0.008700883947312832,0.002493917942047119,1.1413899757068604,-0.0002880692481994629
1745972493268668200,4.054668212890625,0.07373043403500351,0.0009790724143385887,0.03738313978643202,-0.005374069791287184,-0.012266776006500108,0.9975481092592448,-0.0202853209790391,right,-0.0016466975212097168,-0.1166537760244655,0.7174840337816626,-9.713538585582375,-0.0578780316112697,-0.01268058456480503,0.003145851194858551,1.1413899757068604,-0.00018616020679473877
1745972493308668200,4.094668212890625,0.07342031056650265,0.0007941549411043525,0.03722174255468039,-0.007240830920636654,-0.012115023666923866,0.9975396436009114,-0.019979280083551525,right,-0.0005538463592529297,-0.1172011876560763,0.7144256691243499,-9.71313585000038,-0.05815867727077972,-0.006817398127168417,0.002405203878879547,1.1467216190584004,-0.000911027193069458
1745972493348668200,4.134668212890625,0.07318665298537241,0.0003884325851686299,0.03710081084742856,-0.007553228177130222,-0.01201962353108457,0.9975369955011467,-0.019791700772951053,right,-0.0012292861938476562,-0.11747686488507515,0.7121329550772905,-9.71298679691851,-0.058301077316086414,-0.0020590568892657757,0.0011242851614952087,1.1494064742282033,-0.002308070659637451
1745972493388668200,4.174668212890625,0.07318665298537241,0.002106956671923399,0.03710081084742856,0.0013035396113991737,-0.01201962353108457,0.9975369955011467,-0.019791700772951053,right,0.0009284615516662598,-0.11747686488507515,0.7121329550772905,-9.71298679691851,-0.058301077316086414,-0.0013233828358352184,0.0014138147234916687,1.1494064742282033,-0.0005153492093086243
1745972493428668200,4.214668212890625,0.07318665298537241,0.00045696645975112915,0.03710081084742856,0.004331574775278568,-0.01201962353108457,0.9975369955011467,-0.019791700772951053,right,0.00004380941390991211,-0.11747686488507515,0.7121329550772905,-9.71298679691851,-0.058301077316086414,-0.007257705554366112,0.0008410364389419556,1.1494064742282033,0.0008936226367950439
1745972493468668200,4.254668212890625,0.07328843253750833,0.0006864645984023809,0.03715231715073599,0.004293483216315508,-0.012009673731935741,0.9975195310969664,-0.019746488545696377,right,0.00015366077423095703,-0.11801220372659169,0.7130763734072446,-9.712299399176239,-0.05856832508703574,-0.010837819427251816,0.0012820959091186523,1.1546200441580265,0.0005894377827644348
1745972493508668200,4.294668212890625,0.07339024808923005,0.0009159627952612936,0.037203819811806635,0.0042553916573524475,-0.011999683781799154,0.9975020226404109,-0.019701140680920524,right,0.0002632737159729004,-0.1185475337822395,0.7140197917371988,-9.71160907882452,-0.05883556609671987,-0.01441793330013752,0.0017231479287147522,1.1598331756964326,0.0002852827310562134
1745972493548668200,4.334668212890625,0.07349883576257936,0.006183181423693895,0.03725461217620032,-0.0007965154945850372,-0.011916024828948695,0.9974818181492627,-0.019503512818942498,right,0.0000508427619934082,-0.1191965785580099,0.7150189588423818,-9.710778473219275,-0.059162317085757005,-0.0157454963773489,0.0013127177953720093,1.1661531724981964,0.000295393168926239
1745972493588668200,4.374668212890625,0.07348856045969276,0.012230356223881245,0.0372308909550087,-0.00031404555193148553,-0.011584444983855418,0.9974734589707559,-0.0188242256288743,right,0.0010257363319396973,-0.11961267411400109,0.7148834958944469,-9.7103009188354,-0.05938256218898985,-0.011232844553887844,0.0020456984639167786,1.1702046398460864,0.0003410130739212036
1745972493628668200,4.414668212890625,0.07347859426991882,0.018277529627084732,0.03720717042213544,0.00016842433251440525,-0.011252865138762138,0.9974650997922492,-0.018144914680450052,right,0.0020003318786621094,-0.12002881350684115,0.7147508824907243,-9.709821610885857,-0.05960280666486351,-0.006720193196088076,0.0027784034609794617,1.1742563263896852,0.0003866255283355713
1745972493668668200,4.454668212890625,0.07360117678305346,0.021308811381459236,0.03724268691883427,-0.0003179284103680402,-0.01082218767924588,0.9974628659161188,-0.017268273188528947,right,0.00012689828872680664,-0.1201878537729014,0.715927378924191,-9.709547470119595,-0.05969776790595695,0.0000012693926692008972,0.00241069495677948,1.175804724875465,-0.00020151585340499878
1745972493708668200,4.494668212890625,0.0735891608272447,0.028672577813267708,0.03720408348973859,-0.006249480880796909,-0.010283546373865707,0.9974750803008673,-0.016196619129249915,right,0.0003300905227661133,-0.11997735020267558,0.7158288869857787,-9.709802906185388,-0.05961278775617703,0.00407413300126791,0.0018121078610420227,1.1737552449997515,-0.00025982409715652466
1745972493748668200,4.534668212890625,0.07345683446299595,0.03254801034927368,0.0370994173701205,-0.006379850674420595,-0.009637346319935552,0.9974893572496053,-0.014915462433110122,right,0.000778496265411377,-0.11979551777041789,0.7145596707675606,-9.710110364699363,-0.05954655672958248,-0.0012039733119308949,0.0014603883028030396,1.1719848743263632,0.00006366521120071411
1745972493788668200,4.574668212890625,0.07339198417850933,0.031119294464588165,0.03702521578378947,-0.006259729620069265,-0.00893401054934209,0.997496514575449,-0.013508475846664723,right,0.0003006458282470703,-0.1198134507383667,0.7139284601919352,-9.71013549914062,-0.05958187743782992,-0.005483569111675024,0.0011811628937721252,1.172159500240907,0.00018728524446487427
1745972493828668200,4.614668212890625,0.07340393446375743,0.027692493051290512,0.03699256469587932,-0.0016997018828988075,-0.00828590081372639,0.9974973703514523,-0.012202804393337284,right,0.0013839006423950195,-0.11996442217496288,0.7140314821749926,-9.709950205701588,-0.059681286054638544,-0.005270758643746376,0.001727461814880371,1.1736293535977602,0.0004736855626106262
1745972493868668200,4.654668212890625,0.07356390626040012,0.015910618007183075,0.0370430140062861,0.0006658805068582296,-0.007798357637347007,0.9974922063764265,-0.01120813287465146,right,-0.00026351213455200195,-0.12017197064983037,0.7155668750487267,-9.70959306282699,-0.0598025675584923,-0.004793936386704445,0.0019170790910720825,1.175650118835643,0.0013373345136642456
1745972493908668200,4.694668212890625,0.07365255134711764,0.0005181152373552322,0.037075680172855986,-0.0016732437070459127,-0.007606468250073084,0.997484918880078,-0.010809388462514667,right,-0.0008764266967773438,-0.1204098159560785,0.7164069791346788,-9.709250532999635,-0.05992824242952805,-0.00610777921974659,0.0028902217745780945,1.1779657023016363,0.0024259909987449646
1745972493948668200,4.734668212890625,0.07352731245890862,-0.012810070998966694,0.03702118504491265,-0.0047426121309399605,-0.007731162392758613,0.9974727225048111,-0.011050545245819082,right,-0.0006648898124694824,-0.12085934802493167,0.7151520106375217,-9.70881097253859,-0.060148460618232716,-0.010312912985682487,0.002589993178844452,1.182342090754956,0.0023230984807014465
1745972493988668200,4.774668212890625,0.0732706585447557,-0.0274074524641037,0.03691600125612799,-0.015377975068986416,-0.008094561541515959,0.9974563546939625,-0.011772853918763935,right,-0.0037190914154052734,-0.12146011644732645,0.7126080983083695,-9.708283733794092,-0.06043575597421302,-0.012835124507546425,0.0016212835907936096,1.1881903783917427,0.003127172589302063
1745972494028668200,4.814668212890625,0.07249017901125178,-0.04082167521119118,0.03656714264521455,-0.01883404701948166,-0.008723720168627838,0.9974410772060102,-0.013053198968155608,right,-0.0010175108909606934,-0.12225358682176393,0.7049622597303241,-9.707893857693671,-0.06081125070832279,-0.015707530081272125,0.0001962706446647644,1.1959139583811162,0.002067655324935913
1745972494068668200,4.854668212890625,0.07174799755415691,-0.045802030712366104,0.036261560380677134,-0.004683979786932468,-0.009744518242928352,0.9974264358095798,-0.015123752482640883,right,0.00013369321823120117,-0.12286087756050086,0.6977048359479755,-9.707688105988503,-0.06107985021035338,-0.014019528403878212,-0.0006113722920417786,1.2018247898600996,0.0018579065799713135
1745972494108668200,4.894668212890625,0.07100448151459351,-0.05078238248825073,0.03595593234434429,0.009466086514294147,-0.010765294536063619,0.9974104432579537,-0.01719489264349637,right,0.001284182071685791,-0.12346661173549696,0.6904350641407072,-9.707476509064435,-0.06134837045927999,-0.012331526726484299,-0.0014177486300468445,1.2077200584437697,0.0016497746109962463
1745972494148668200,4.934668212890625,0.07088258641136458,-0.04363957792520523,0.035958520396403106,0.014724278822541237,-0.011772782145948495,0.9973871264649808,-0.019206720745563295,right,0.0007807612419128418,-0.12392217962553802,0.6892126827389001,-9.707010645118356,-0.06154008980203873,-0.007200487889349461,-0.0016309767961502075,1.21215351084657,0.00047991424798965454
1745972494188668200,4.974668212890625,0.07124312054787378,-0.02361382357776165,0.036182986836690925,0.01947864331305027,-0.012491614765562549,0.9973614897650603,-0.020613908233263423,right,-0.0006847977638244629,-0.12426556881087397,0.6926826969370246,-9.706345459207892,-0.06168376877964649,-0.004801431205123663,-0.0006091073155403137,1.2154950763594359,-0.0008397176861763
1745972494228668200,5.014668212890625,0.07180867139055087,-0.0021528787910938263,0.03648342672625205,0.018667278811335564,-0.012797165066208123,0.9973415556150548,-0.021184840510344635,right,-0.0017459988594055176,-0.12445884129577268,0.6981551369987428,-9.705717682698369,-0.06176620696801238,-0.0038459687493741512,-0.00005687028169631958,1.2173757755395025,-0.0018339455127716064
1745972494268668200,5.054668212890625,0.07237110165258878,0.022507643327116966,0.03675043991954223,0.013220313936471939,-0.012597232306720179,0.9973339376378727,-0.020749037179020872,right,-0.001791536808013916,-0.12445983546236987,0.7036137677308172,-9.705322545900941,-0.061771114428443366,-0.0003441569861024618,0.0017433539032936096,1.2173854932159185,-0.0018020495772361755
1745972494308668200,5.094668212890625,0.07291859705688701,0.041938938200473785,0.036980850326321466,0.001822110265493393,-0.011932409663791745,0.9973367193481396,-0.019387120658340903,right,-0.002796947956085205,-0.12431487312868462,0.7089400773201138,-9.705111533498764,-0.06172056999099379,0.0023034519981592894,0.002083919942378998,1.2159748957656322,-0.002339564263820648
1745972494348668200,5.134668212890625,0.07331553806926482,0.047184016555547714,0.037120562247893826,0.00264022802002728,-0.01101175816826379,0.9973471826866099,-0.01752452102203699,right,-0.002018868923187256,-0.12408830241820917,0.7128126079045236,-9.705103934714197,-0.06163980522912366,-0.0003081641625612974,0.0027352645993232727,1.2137700791977346,-0.0001616254448890686
1745972494388668200,5.174668212890625,0.0736136277622891,0.03656739741563797,0.03721421774011967,-0.0024352718610316515,-0.010137098941708405,0.9973575829937377,-0.01575988461192239,right,-0.0018374919891357422,-0.12387472562844401,0.7157245498284697,-9.705149527421593,-0.061564514954123774,0.00020508846500888467,0.0016972795128822327,1.2116916654884815,0.0015721023082733154
1745972494428668200,5.214668212890625,0.07378159657522236,0.01922018639743328,0.03726078192433897,-0.0003616549074649811,-0.009541088816431675,0.9973622450346131,-0.014556571757341846,right,-0.0004871487617492676,-0.12381342243271484,0.7173601882062852,-9.705103350192308,-0.06155552315631727,-0.002050301991403103,0.0019175708293914795,1.2110950878348201,0.004161141812801361
1745972494468668200,5.254668212890625,0.0740064475664248,-0.004951067268848419,0.03736376976029233,0.009309317916631699,-0.00939754662784129,0.9973559740351143,-0.014250652912670799,right,0.002015352249145508,-0.12392818806640778,0.7195321254178881,-9.704802905941008,-0.061617396566223566,-0.002203041687607765,0.0019326657056808472,1.2122119630355388,0.00498402863740921
1745972494508668200,5.294668212890625,0.07448099836033295,-0.02921561896800995,0.03762414409752702,0.020029142498970032,-0.009792675328377649,0.9973386713992928,-0.015008148768933744,right,0.00186997652053833,-0.12407889017006819,0.7241238371223211,-9.70427800528407,-0.06167607808303872,0.002245622221380472,0.0017001181840896606,1.213678455391526,0.0037799030542373657
1745972494548668200,5.334668212890625,0.07528329571846828,-0.04558910056948662,0.03807256634379895,0.025902044028043747,-0.010598398505529561,0.9973144868764051,-0.01657300163647218,right,0.0003731846809387207,-0.12411422624745735,0.7319060884963721,-9.703651397818327,-0.061659991455813204,0.0065857600420713425,0.0018269270658493042,1.2140223734583704,0.0017633289098739624
1745972494588668200,5.374668212890625,0.0760578796129918,-0.04721798002719879,0.03851920919765569,0.025291040539741516,-0.01160043126596346,0.9972896093903711,-0.01853556673401163,right,-0.0006215572357177734,-0.1240888886646053,0.7394245013024657,-9.703111884114145,-0.0616054750729242,0.007579099386930466,0.002383500337600708,1.213775778286159,-0.0024634376168251038
1745972494628668200,5.414668212890625,0.07680078328616431,-0.0363035649061203,0.0389447649127915,0.02018127217888832,-0.012517737720476036,0.9972657427588325,-0.020330993986993083,right,-0.0010156035423278809,-0.12404432972808574,0.7466369168993086,-9.702613871464132,-0.0615440081883068,0.005093011073768139,0.0023988932371139526,1.2133422091744839,-0.005326882004737854
1745972494668668200,5.454668212890625,0.07746041208775083,-0.018184905871748924,0.03930984324078828,0.01680869422852993,-0.013123530079772733,0.9972448259007155,-0.02150467834963868,right,-0.0019986629486083984,-0.1240583477781597,0.7530356049604714,-9.702102414810657,-0.06152381145679255,-0.0034295422956347466,0.002317555248737335,1.2134786219704896,-0.005192302167415619
1745972494708668200,5.494668212890625,0.07799426308055432,-0.005289018154144287,0.03959233945493342,0.010453060269355774,-0.013383075113289256,0.9972179502974877,-0.021976001917522713,right,-0.0015523433685302734,-0.12448286688026296,0.7581747214145957,-9.70118471544385,-0.06172265747922879,-0.019416198134422302,0.0026009678840637207,1.2176095842953771,-0.0023454055190086365
1745972494748668200,5.534668212890625,0.07843154765730724,-0.0007063043303787708,0.03981505189793671,0.0014226902276277542,-0.01343151288598472,0.9971833186984551,-0.022014547007792446,right,-0.003964841365814209,-0.12530095820477732,0.7623385630957782,-9.699856097188592,-0.06212688413182111,-0.019785547628998756,0.0013120472431182861,1.2255698225848377,-0.0029953941702842712
1745972494788668200,5.574668212890625,0.078485722611633,0.0024780803360044956,0.0398422164011443,0.0015645318198949099,-0.013407981799991414,0.9971648453050891,-0.02194209551803074,right,-0.0024811625480651855,-0.12586823425188517,0.7628093954779207,-9.699119599607586,-0.06241081374146718,-0.013578571379184723,0.0018956288695335388,1.2310891705282032,-0.000608690083026886
1745972494828668200,5.614668212890625,0.078485722611633,-0.0022671669721603394,0.0398422164011443,-0.005978219211101532,-0.013407981799991414,0.9971648453050891,-0.02194209551803074,right,-0.0031824707984924316,-0.12586823425188517,0.7628093954779207,-9.699119599607586,-0.06241081374146718,-0.00586160970851779,0.0016526058316230774,1.2310891705282032,0.0014387071132659912
1745972494868668200,5.654668212890625,0.07790222135904813,-0.004912813194096088,0.039554545470114756,-0.01645321026444435,-0.013429396274285549,0.99716798929532,-0.02201188967720274,right,-0.00022524595260620117,-0.12612108552630066,0.7571255776878446,-9.699252870598436,-0.06253941525216496,-0.0021740985102951527,0.0015052855014801025,1.2335491309009492,0.002456456422805786
1745972494908668200,5.694668212890625,0.07735093289590533,-0.0052640680223703384,0.03928562488538106,-0.011304768733680248,-0.013496217495305144,0.9971709587411371,-0.022172285162197013,right,0.0019764304161071777,-0.12633695979385706,0.7517577670443802,-9.699403092724085,-0.06264760028461179,-0.004751949571073055,0.0008319690823554993,1.2356491719201206,0.0035044997930526733
1745972494948668200,5.734668212890625,0.07735093289590533,-0.004922492429614067,0.03928562488538106,-0.00013780593872070312,-0.013496217495305144,0.9971709587411371,-0.022172285162197013,right,0.000012636184692382812,-0.12633695979385706,0.7517577670443802,-9.699403092724085,-0.06264760028461179,-0.012110169976949692,0.00024333596229553223,1.2356491719201206,0.006672084331512451
1745972494988668200,5.774668212890625,0.07738908599758236,-0.01032144296914339,0.039319952654568224,-0.0004026631359010935,-0.013692737615679343,0.9971374923005929,-0.02252807489571901,right,-0.0018769502639770508,-0.12728341548407046,0.7520370954424143,-9.698203653806447,-0.06311226450180572,-0.011364060454070568,-0.0009520947933197021,1.244856268465519,0.007026389241218567
1745972495028668200,5.814668212890625,0.0773359994597067,-0.014551796019077301,0.03931516033822219,0.0070885345339775085,-0.014015656237754625,0.9971233415388909,-0.023166248169543033,right,0.0035747885704040527,-0.127622886927024,0.7514895445622504,-9.697821961012481,-0.06326933842538578,0.0071799373254179955,0.001150466501712799,1.2481583787508308,0.005756646394729614
1745972495068668200,5.854668212890625,0.07778514060566696,-0.020861176773905754,0.03956540183299344,0.015413268469274044,-0.014467136808993706,0.9971209699315802,-0.0240585939457898,right,0.0007858872413635254,-0.12722267687486025,0.7558839070636779,-9.697980366444588,-0.0630490010961881,0.027960091829299927,0.001631900668144226,1.244265462965518,0.002291545271873474
1745972495108668200,5.894668212890625,0.07822373473237046,-0.021120240911841393,0.03981214220733683,0.00919097475707531,-0.014982994252964,0.9971351669364111,-0.025102419096765482,right,-0.0014145970344543457,-0.12626138756905392,0.7602304849006235,-9.698836106491088,-0.06254576792201114,0.028246775269508362,0.00295189768075943,1.2349139895133674,0.00025676190853118896
1745972495148668400,5.93466845703125,0.07820301753300676,-0.016416940838098526,0.03982588867077169,-0.002306407317519188,-0.015409742915093474,0.997150256127036,-0.025985462543924746,right,-0.000748753547668457,-0.12558809251081343,0.7600942913003266,-9.699678402534127,-0.062192634277386305,0.014298045076429844,0.0030307918787002563,1.2283635449565946,-0.003205239772796631
1745972495188668200,5.974668212890625,0.07810383355597561,-0.006775150075554848,0.03978738319802744,-0.0034613381139934063,-0.01560759074412817,0.9971609840999904,-0.026403027826689292,right,-0.0011631250381469727,-0.12520755539937375,0.7591686278227716,-9.700219085282086,-0.06199535394252593,0.006511290092021227,0.0027229636907577515,1.2246610371768474,-0.004163704812526703
1745972495228668200,6.014668212890625,0.07810383355597561,-0.005573286209255457,0.03978738319802744,-0.004135144874453545,-0.01560759074412817,0.9971609840999904,-0.026403027826689292,right,-0.0011958479881286621,-0.12520755539937375,0.7591686278227716,-9.700219085282086,-0.06199535394252593,0.00012677302584052086,0.0025925412774086,1.2246610371768474,-0.002012789249420166
1745972495268668200,6.054668212890625,0.07810383355597561,-0.007131059654057026,0.03978738319802744,-0.00041665579192340374,-0.01560759074412817,0.9971609840999904,-0.026403027826689292,right,-0.002106904983520508,-0.12520755539937375,0.7591686278227716,-9.700219085282086,-0.06199535394252593,-0.00010193233902100474,0.003488309681415558,1.2246610371768474,-0.0007813200354576111
1745972495308668200,6.094668212890625,0.0779850740890463,-0.0076945023611187935,0.03974512665563218,-0.001813954091630876,-0.01589911547108725,0.9971687531699678,-0.027007423309108467,right,-0.001312553882598877,-0.12488526079504611,0.7580473687078804,-9.700702484884857,-0.061823569724345315,-0.0002517861721571535,0.0035791173577308655,1.2215250772386788,0.0002900660037994385
1745972495348668200,6.134668212890625,0.0779850740890463,-0.005997596308588982,0.03974512665563218,-0.004776502028107643,-0.01589911547108725,0.9971687531699678,-0.027007423309108467,right,-0.0015172958374023438,-0.12488526079504611,0.7580473687078804,-9.700702484884857,-0.061823569724345315,-0.002568429335951805,0.0026872381567955017,1.2215250772386788,-0.0003072768449783325
1745972495388668200,6.174668212890625,0.0779850740890463,0.003064315766096115,0.03974512665563218,-0.006139073986560106,-0.01589911547108725,0.9971687531699678,-0.027007423309108467,right,-0.0022704601287841797,-0.12488526079504611,0.7580473687078804,-9.700702484884857,-0.061823569724345315,0.001114102778956294,0.002093084156513214,1.2215250772386788,-0.00222758948802948
1745972495428668200,6.214668212890625,0.0779850740890463,-0.0012843930162489414,0.03974512665563218,-0.005485848058015108,-0.01589911547108725,0.9971687531699678,-0.027007423309108467,right,-0.0014368891716003418,-0.12488526079504611,0.7580473687078804,-9.700702484884857,-0.061823569724345315,0.004298792220652103,0.0024983584880828857,1.2215250772386788,0.00003504753112792969
1745972495468668200,6.254668212890625,0.07752690607112438,-0.015308219939470291,0.039529757582896265,-0.008692823350429535,-0.016146853293305344,0.997195462919855,-0.027559489125027443,right,-0.0012497305870056152,-0.12417903571044477,0.7536693728193641,-9.701906015455723,-0.06146416363433598,0.011632276698946953,0.004597201943397522,1.214652999512106,0.0011651292443275452
1745972495508668200,6.294668212890625,0.07724804317550273,-0.02370486967265606,0.039415970768641326,0.0060432059690356255,-0.016581191315421517,0.997207022077951,-0.02846406236111071,right,0.001288294792175293,-0.12374825764708344,0.7510041721981018,-9.702636667817831,-0.06123379097065601,0.0025498466566205025,0.004900351166725159,1.2104609546497465,-0.00010576844215393066
1745972495548668200,6.334668212890625,0.07687815712454411,-0.033600419759750366,0.0392722696205121,0.002792956307530403,-0.01721605804805427,0.9971969455342935,-0.029752285890934885,right,0.0015270709991455078,-0.12395544412364215,0.7473959185730665,-9.702663555824756,-0.06131488511596218,-0.008305411785840988,0.003767453134059906,1.212477189842984,-0.0007240846753120422
1745972495588668200,6.374668212890625,0.07664695152510888,-0.02709733322262764,0.039197407840725965,-0.004730420187115669,-0.017808439645115238,0.9971704286531723,-0.03092981724726838,right,0.0003339052200317383,-0.12461835381210158,0.7450909295663237,-9.702032856705785,-0.061624353762599546,-0.019551120698451996,0.0020314007997512817,1.218927973417565,-0.0014122575521469116
1745972495628668200,6.414668212890625,0.07647806196803264,-0.02182777225971222,0.03914843320755123,-0.008147661574184895,-0.018294490764540313,0.9971376772171336,-0.03188272654924548,right,-0.0020570755004882812,-0.12548755574450243,0.7433711200363934,-9.701098206204176,-0.06204061472530399,-0.019857678562402725,0.0008303150534629822,1.227385347574204,-0.0014673322439193726
1745972495668668200,6.454668212890625,0.0762646421313943,-0.016147905960679054,0.03907051606734751,-0.0015184376388788223,-0.018679906337932935,0.9971123721646947,-0.03264276723354297,right,-0.0014817118644714355,-0.1261955097371623,0.7412342541381717,-9.700388012108206,-0.06238071168862818,-0.01428501307964325,0.001431889832019806,1.234273061261326,-0.0007161200046539307
1745972495708668200,6.494668212890625,0.07604823375143936,-0.013152498751878738,0.03898377611956799,-0.009836200624704361,-0.018969292514722704,0.9970970896676594,-0.03322035104965833,right,-0.0014194846153259277,-0.12663900306940987,0.7390933696519583,-9.700001058617234,-0.06259259615176595,-0.005605073645710945,0.0010162442922592163,1.238587563459575,-0.0017843097448349
1745972495748668200,6.534668212890625,0.07604823375143936,-0.00413645152002573,0.03898377611956799,-0.0015978571027517319,-0.018969292514722704,0.9970970896676594,-0.03322035104965833,right,-0.0012177824974060059,-0.12663900306940987,0.7390933696519583,-9.700001058617234,-0.06259259615176595,-0.0009521981701254845,-0.0005405470728874207,1.238587563459575,-0.0017865300178527832
1745972495788668200,6.574668212890625,0.07604823375143936,0.001977148000150919,0.03898377611956799,-0.0030112708918750286,-0.018969292514722704,0.9970970896676594,-0.03322035104965833,right,-0.0006483793258666992,-0.12663900306940987,0.7390933696519583,-9.700001058617234,-0.06259259615176595,-0.00014801404904574156,0.00017687678337097168,1.238587563459575,-0.000665128231048584
1745972495828668200,6.614668212890625,0.07604823375143936,0.0034039136953651905,0.03898377611956799,-0.0004428657703101635,-0.018969292514722704,0.9970970896676594,-0.03322035104965833,right,0.000012814998626708984,-0.12663900306940987,0.7390933696519583,-9.700001058617234,-0.06259259615176595,-0.006756187882274389,0.0005175918340682983,1.238587563459575,0.0004096031188964844
1745972495868668200,6.654668212890625,0.07611501905338741,0.0010911079589277506,0.03901757235921832,0.0034351844806224108,-0.0189365722050301,0.9970820721804793,-0.033133653010376865,right,0.0001232624053955078,-0.12709481728594244,0.7396981306120752,-9.699387895154953,-0.06282091338307601,-0.011182950809597969,0.001667223870754242,1.2430217465147375,0.001060187816619873
1745972495908668200,6.694668212890625,0.07616642481833799,-0.0027726017870008945,0.039048097786576065,0.00043943384662270546,-0.01895713735164489,0.997060747614913,-0.03314836045380735,right,0.00034248828887939453,-0.1277239270011666,0.7401371065512299,-9.698568395465612,-0.06313379677475284,-0.013226649723947048,0.0014330819249153137,1.2491411061778663,0.00031022727489471436
1745972495948668200,6.734668212890625,0.07625547218225354,-0.0014891752507537603,0.03910031964532702,0.0027375987265259027,-0.019030149979256016,0.9970393637623598,-0.033267927845531835,right,0.00027251243591308594,-0.12829697934774392,0.7409460848465561,-9.6977868896991,-0.06341632024137721,-0.010309740900993347,0.0023244470357894897,1.2547148146569729,0.0003017336130142212
1745972495988668200,6.774668212890625,0.07625547218225354,-0.0003314780769869685,0.03910031964532702,0.003437891136854887,-0.019030149979256016,0.9970393637623598,-0.033267927845531835,right,-0.0001538395881652832,-0.12829697934774392,0.7409460848465561,-9.6977868896991,-0.06341632024137721,-0.007630445994436741,0.0032168999314308167,1.2547148146569729,0.0011903047561645508
1745972496028668200,6.814668212890625,0.07625547218225354,-0.0011290994007140398,0.03910031964532702,0.0019141534576192498,-0.019030149979256016,0.9970393637623598,-0.033267927845531835,right,-0.00015491247177124023,-0.12829697934774392,0.7409460848465561,-9.6977868896991,-0.06341632024137721,-0.007164974696934223,0.0026739314198493958,1.2547148146569729,0.0014004409313201904
1745972496068668200,6.854668212890625,0.07654255617183892,-0.0017290891846641898,0.03925342956261791,-0.0019702166318893433,-0.019123544545099992,0.9970069839108444,-0.03340789326568444,right,-0.0006142258644104004,-0.129079416027467,0.7436548323486,-9.696592126956581,-0.06380092841178288,-0.009355836547911167,0.002273380756378174,1.26232455900833,0.0005903542041778564
1745972496108668200,6.894668212890625,0.07653886683487578,-0.0029163029976189137,0.039259766359244434,-0.0012760013341903687,-0.01919588468298423,0.996986454933188,-0.03353105361509533,right,-0.00044983625411987305,-0.1296759248431235,0.7435613819114864,-9.695842185372113,-0.06409592763966197,-0.010178692638874054,0.0025089606642723083,1.2681253542415798,-0.0008356422185897827
1745972496148668400,6.93466845703125,0.07653886683487578,-0.0014857797650620341,0.039259766359244434,-0.00024003093130886555,-0.01919588468298423,0.996986454933188,-0.03353105361509533,right,0.002176821231842041,-0.1296759248431235,0.7435613819114864,-9.695842185372113,-0.06409592763966197,-0.0035848570987582207,0.002918928861618042,1.2681253542415798,0.00016005337238311768
1745972496188668200,6.974668212890625,0.07653886683487578,-0.0013104763347655535,0.039259766359244434,-0.00042062043212354183,-0.01919588468298423,0.996986454933188,-0.03353105361509533,right,0.000027000904083251953,-0.1296759248431235,0.7435613819114864,-9.695842185372113,-0.06409592763966197,-0.007352642714977264,0.002461083233356476,1.2681253542415798,0.0016618072986602783
1745972496228668200,7.014668212890625,0.07653886683487578,0.003437564941123128,0.039259766359244434,-0.0049410415813326836,-0.01919588468298423,0.996986454933188,-0.03353105361509533,right,0.00029593706130981445,-0.1296759248431235,0.7435613819114864,-9.695842185372113,-0.06409592763966197,-0.007922731339931488,0.0022144541144371033,1.2681253542415798,0.001396864652633667
1745972496268668200,7.054668212890625,0.0765299456078059,0.0053053502924740314,0.03925524249115385,0.0015806779265403748,-0.01912376874667319,0.9969629879780447,-0.03335822638792411,right,-0.000038504600524902344,-0.13044838483236817,0.743399761608988,-9.694869540947675,-0.06448449745795848,-0.004183089826256037,0.0020019859075546265,1.2756366066545248,0.0009634047746658325
1745972496308668200,7.094668212890625,0.0765299456078059,0.003919404465705156,0.03925524249115385,-0.0052167377434670925,-0.01912376874667319,0.9969629879780447,-0.03335822638792411,right,-0.0013401508331298828,-0.13044838483236817,0.743399761608988,-9.694869540947675,-0.06448449745795848,-0.009994425810873508,0.0018658190965652466,1.2756366066545248,0.0024413615465164185
1745972496348668200,7.134668212890625,0.07630061696141684,0.0040559894405305386,0.03913682825454222,-0.004608897492289543,-0.018975885546391177,0.9969420439695824,-0.03304446266915533,right,0.0012829303741455078,-0.13130933355590754,0.7410924345146864,-9.693940735664963,-0.06492203093716852,-0.013693553395569324,0.0014863014221191406,1.284007398506254,0.00010013580322265625
1745972496388668200,7.174668212890625,0.07603283735855623,0.005169857293367386,0.038997232912756634,-0.00548351276665926,-0.018826381015034085,0.9969324166968805,-0.03274220113933008,right,0.0024587512016296387,-0.13184446306966494,0.7384442580934614,-9.693452659887075,-0.06519723135620666,-0.00670997891575098,0.0010744556784629822,1.2892099355854094,-0.00022368133068084717
1745972496428668200,7.214668212890625,0.07603283735855623,0.0035473587922751904,0.038997232912756634,-0.003962669055908918,-0.018826381015034085,0.9969324166968805,-0.03274220113933008,right,0.0011184215545654297,-0.13184446306966494,0.7384442580934614,-9.693452659887075,-0.06519723135620666,-0.005620988551527262,0.0003238394856452942,1.2892099355854094,0.0009217411279678345
1745972496468668200,7.254668212890625,0.07603283735855623,0.001924860174767673,0.038997232912756634,-0.002441825345158577,-0.018826381015034085,0.9969324166968805,-0.03274220113933008,right,-0.0002219676971435547,-0.13184446306966494,0.7384442580934614,-9.693452659887075,-0.06519723135620666,-0.004531998187303543,-0.0004267692565917969,1.2892099355854094,0.002067163586616516
1745972496508668200,7.294668212890625,0.07602434816210109,-0.0018276869086548686,0.03898190089154908,-0.0019148042192682624,-0.018620515496767475,0.9969226251949421,-0.032314272638695095,right,-0.0004767775535583496,-0.1322634019073387,0.7383208509095013,-9.69291957592368,-0.06541449770145144,-0.004511597100645304,-0.0003691837191581726,1.2932825918518005,0.0012639164924621582
1745972496548668200,7.334668212890625,0.07602434816210109,-0.0048414673656225204,0.03898190089154908,-0.0020953738130629063,-0.018620515496767475,0.9969226251949421,-0.032314272638695095,right,-0.0010960102081298828,-0.1322634019073387,0.7383208509095013,-9.69291957592368,-0.06541449770145144,-0.005752534605562687,0.0004261285066604614,1.2932825918518005,0.0019733011722564697
1745972496588668200,7.374668212890625,0.07597188756294747,-0.007183301728218794,0.03896413600584176,-0.006189440842717886,-0.018689024058150264,0.9969001044305026,-0.032430329102254574,right,-0.0017105937004089355,-0.13293566329859263,0.7377462658919394,-9.692088970318435,-0.06574784562887907,-0.008619114756584167,0.0004014745354652405,1.2998172543175517,0.0013523846864700317
1745972496628668200,7.414668212890625,0.07597188756294747,0.0011988473124802113,0.03896413600584176,-0.006553176324814558,-0.018689024058150264,0.9969001044305026,-0.032430329102254574,right,-0.0004277825355529785,-0.13293566329859263,0.7377462658919394,-9.692088970318435,-0.06574784562887907,-0.0006356779485940933,0.0006517320871353149,1.2998172543175517,0.0008190721273422241
1745972496668668200,7.454668212890625,0.07597188756294747,0.0058480678126215935,0.03896413600584176,-0.00774812838062644,-0.018689024058150264,0.9969001044305026,-0.032430329102254574,right,-0.0011135339736938477,-0.13293566329859263,0.7377462658919394,-9.692088970318435,-0.06574784562887907,0.0022435642313212156,0.0006013959646224976,1.2998172543175517,0.0016580671072006226
1745972496708668200,7.494668212890625,0.07597188756294747,0.011379444971680641,0.03896413600584176,0.0021097329445183277,-0.018689024058150264,0.9969001044305026,-0.032430329102254574,right,0.0005671381950378418,-0.13293566329859263,0.7377462658919394,-9.692088970318435,-0.06574784562887907,0.002972197253257036,0.000636175274848938,1.2998172543175517,0.0014537274837493896
1745972496748668200,7.534668212890625,0.0761077900676426,0.013404306955635548,0.03900185135465491,0.0020806994289159775,-0.01823964141481314,0.9969063705265029,-0.03152043465054355,right,-0.00021797418594360352,-0.13291865404264044,0.7390650934055447,-9.692010644385219,-0.06575585070155604,0.002353282645344734,0.0006110668182373047,1.299651980753243,0.001158684492111206
1745972496788668200,7.574668212890625,0.07624568286048417,0.013539044186472893,0.039047672242772086,0.005698567721992731,-0.017896168565337843,0.9969097382005019,-0.030821935448984934,right,-0.00018405914306640625,-0.13292751371777523,0.7404006528582423,-9.691897247138618,-0.06577264798473109,0.0007391188992187381,0.001025766134262085,1.2997380516014991,-0.00005307793617248535
1745972496828668200,7.614668212890625,0.0763404677690344,0.014359968714416027,0.039075018520106676,0.005126259755343199,-0.017606523445980928,0.9969169500161345,-0.030238881401191776,right,0.0015673041343688965,-0.1328123177091677,0.7413307002499699,-9.691976157593727,-0.06572576728147,0.0008807474514469504,0.0026500746607780457,1.2986183999218046,-0.0005165040493011475
1745972496868668200,7.654668212890625,0.07671695308648754,0.019838601350784302,0.03923706646373634,0.004075134173035622,-0.017232229891262905,0.9969171176103887,-0.029464089426461636,right,0.00012928247451782227,-0.13278728584455005,0.7449820623643696,-9.69172890483439,-0.06572518181118817,-0.0014325258089229465,0.002252921462059021,1.2983750926852224,-0.0002706944942474365
1745972496908668200,7.694668212890625,0.07673782882852738,0.018507856875658035,0.03922283436987195,-0.007170441560447216,-0.016848567492306035,0.9969182434568453,-0.02868734749632988,right,0.00009036064147949219,-0.13293873239780415,0.7451692554995417,-9.691517307910322,-0.0658157363628403,-0.0053471531718969345,0.0029788464307785034,1.2998470649339258,0.0009553581476211548
1745972496948668200,7.734668212890625,0.0767868049782376,0.01322002150118351,0.03922203559681278,-0.003935523331165314,-0.016457931819752972,0.9969187086747078,-0.027894630974179664,right,-0.0010764598846435547,-0.13309342737286772,0.7456284705091267,-9.69127999202311,-0.06590798921702724,-0.00471872603520751,0.002751275897026062,1.3013507474951445,0.0025416165590286255
1745972496988668200,7.774668212890625,0.0766058096402997,0.005870412103831768,0.03911757880874107,-0.00864516943693161,-0.016223853450475063,0.9969195503427041,-0.027429685947711217,right,-0.0015870332717895508,-0.13328888997629054,0.7438549580305814,-9.691160749557614,-0.06601600792362487,-0.005607083905488253,0.0026516392827033997,1.3032505897670983,0.0032358318567276
1745972497028668200,7.814668212890625,0.0766058096402997,0.002555403159931302,0.03911757880874107,-0.005244945175945759,-0.016223853450475063,0.9969195503427041,-0.027429685947711217,right,0.0003777146339416504,-0.13328888997629054,0.7438549580305814,-9.691160749557614,-0.06601600792362487,-0.001949417870491743,0.0014424622058868408,1.3032505897670983,0.0021868646144866943
1745972497068668200,7.854668212890625,0.07607728270587219,-0.004230871796607971,0.038851104274812996,-0.012976428493857384,-0.016155904415196497,0.9969281736511676,-0.027325622834952257,right,-0.00022029876708984375,-0.1333627755093243,0.7387254861876368,-9.691456517633796,-0.0660591492180295,0.006527651567012072,0.0004447326064109802,1.3039688210390508,0.001302078366279602
1745972497108668200,7.894668212890625,0.07607728270587219,-0.0059793870896101,0.038851104274812996,-0.003715609200298786,-0.016155904415196497,0.9969281736511676,-0.027325622834952257,right,0.0003306269645690918,-0.1333627755093243,0.7387254861876368,-9.691456517633796,-0.0660591492180295,0.008569416590034962,-0.0005140230059623718,1.3039688210390508,-0.0000979304313659668
1745972497148668400,7.93466845703125,0.07573194983947751,-0.005264861509203911,0.038690099657098465,-0.003260986180976033,-0.016331655360768044,0.9969413797522735,-0.0277116719932041,right,-0.00024330615997314453,-0.13307651101331214,0.7354068631589412,-9.69208312509954,-0.0659117633835628,0.006173919420689344,-0.00015829503536224365,1.3011863507136703,-0.00043286383152008057
1745972497188668200,7.974668212890625,0.07573194983947751,-0.001503996318206191,0.038690099657098465,-0.0006295086350291967,-0.016331655360768044,0.9969413797522735,-0.0277116719932041,right,0.0006518959999084473,-0.13307651101331214,0.7354068631589412,-9.69208312509954,-0.0659117633835628,0.002542643342167139,0.000675886869430542,1.3011863507136703,-0.0024094432592391968
1745972497228668200,8.014668212890625,0.07573194983947751,0.005730185657739639,0.038690099657098465,0.005642898380756378,-0.016331655360768044,0.9969413797522735,-0.0277116719932041,right,-0.0008707642555236816,-0.13307651101331214,0.7354068631589412,-9.69208312509954,-0.0659117633835628,-0.00097487005405128,0.0006150826811790466,1.3011863507136703,-0.002208307385444641
1745972497268668200,8.054668212890626,0.07573194983947751,0.007413440849632025,0.038690099657098465,0.002778926631435752,-0.016331655360768044,0.9969413797522735,-0.0277116719932041,right,-0.000994563102722168,-0.13307651101331214,0.7354068631589412,-9.69208312509954,-0.0659117633835628,-0.006811558268964291,0.002387508749961853,1.3011863507136703,-0.0014435648918151855
1745972497308668200,8.094668212890625,0.07573194983947751,0.008804837241768837,0.038690099657098465,0.0018658314365893602,-0.016331655360768044,0.9969413797522735,-0.0277116719932041,right,-0.0009458065032958984,-0.13307651101331214,0.7354068631589412,-9.69208312509954,-0.0659117633835628,-0.0033887678291648626,0.0029418841004371643,1.3011863507136703,-0.0019591450691223145
1745972497348668200,8.134668212890626,0.07603513115043285,0.007601981051266193,0.0388198749418948,-0.0019292898941785097,-0.01600670530989147,0.996934720089492,-0.027032793626949537,right,-0.0011506080627441406,-0.13326332287459638,0.7383267691936344,-9.691617261153459,-0.06601559459333713,-0.004651995375752449,0.0034150853753089905,1.3030021679639816,-0.0005388557910919189
1745972497388668200,8.174668212890625,0.07603513115043285,0.004146781750023365,0.0388198749418948,-0.005562013015151024,-0.01600670530989147,0.996934720089492,-0.027032793626949537,right,-0.00042688846588134766,-0.13326332287459638,0.7383267691936344,-9.691617261153459,-0.06601559459333713,-0.006218732334673405,0.0038084089756011963,1.3030021679639816,0.0003212839365005493
1745972497428668200,8.214668212890626,0.07603513115043285,0.0021262681111693382,0.0388198749418948,-0.007573759648948908,-0.01600670530989147,0.996934720089492,-0.027032793626949537,right,-0.0015804171562194824,-0.13326332287459638,0.7383267691936344,-9.691617261153459,-0.06601559459333713,-0.0032562208361923695,0.0033929049968719482,1.3030021679639816,-0.00022360682487487793
1745972497468668200,8.254668212890625,0.07603513115043285,-0.002640987280756235,0.0388198749418948,-0.00788147933781147,-0.01600670530989147,0.996934720089492,-0.027032793626949537,right,-0.0004367232322692871,-0.13326332287459638,0.7383267691936344,-9.691617261153459,-0.06601559459333713,-0.0028345503378659487,0.00221899151802063,1.3030021679639816,0.0009665340185165405
1745972497508668200,8.294668212890626,0.07554495876946322,-0.008466720581054688,0.03857347921544458,-0.015090970322489738,-0.015942299324523037,0.9969360817548594,-0.026926164262918887,right,-0.0004903674125671387,-0.13353119362371457,0.7335497640501707,-9.691629536113142,-0.06615510596208375,0.008626642636954784,0.0009894594550132751,1.305605774591118,-0.0016586482524871826
1745972497548668200,8.334668212890625,0.07554495876946322,-0.004921535030007362,0.03857347921544458,-0.0016611600294709206,-0.015942299324523037,0.9969360817548594,-0.026926164262918887,right,0.00015670061111450195,-0.13353119362371457,0.7335497640501707,-9.691629536113142,-0.06615510596208375,0.005451062228530645,0.00047311931848526,1.305605774591118,-0.0011734813451766968
1745972497588668200,8.374668212890626,0.07554495876946322,-0.0016934152226895094,0.03857347921544458,-0.004643474705517292,-0.015942299324523037,0.9969360817548594,-0.026926164262918887,right,-0.0008912086486816406,-0.13353119362371457,0.7335497640501707,-9.691629536113142,-0.06615510596208375,-0.009480256587266922,0.0007717087864875793,1.305605774591118,0.0006504952907562256
1745972497628668200,8.414668212890625,0.075463462752961,-0.0020557106472551823,0.0385415741812676,0.0018958831205964088,-0.016025409043105766,0.9969125920141754,-0.027072206193102362,right,0.00022596120834350586,-0.13423945294488143,0.7326900784809142,-9.690765028238296,-0.06650600922505859,-0.017544042319059372,0.0017517134547233582,1.3124892504945396,-0.0000871121883392334
1745972497668668200,8.454668212890626,0.07548143575149456,-0.003252930473536253,0.03855809286478523,-0.004003188107162714,-0.016087980296784637,0.996884353380947,-0.027167033931101932,right,-0.0025290250778198242,-0.13504021176368244,0.7327846979618072,-9.689700613877177,-0.06690320329520287,-0.021857598796486855,0.001961149275302887,1.3202708442814648,0.0003730952739715576
1745972497708668200,8.494668212890625,0.07518691351634016,0.002815340645611286,0.03841457654215557,-0.009097805246710777,-0.016065721534464384,0.9968575427176843,-0.027106627113951256,right,-0.00125044584274292,-0.1360082142233292,0.7298345429193228,-9.688636784037946,-0.06738925157922725,-0.0289157684892416,0.001884952187538147,1.3296766782693563,0.000509902834892273
1745972497748668200,8.534668212890624,0.07481133095163378,0.009879420511424541,0.038222692452663264,-0.013469983823597431,-0.01592404142638315,0.9968338482880692,-0.02681247325646335,right,-0.0013163089752197266,-0.13697487734828087,0.7260991557832807,-9.68762380760312,-0.06787973573757206,-0.01837066188454628,0.0009286403656005859,1.3390683376014232,-0.0005796551704406738
1745972497788668200,8.574668212890625,0.07433917912605988,0.014517797157168388,0.037970019686663775,-0.01152128353714943,-0.015624335152254889,0.9968305522303071,-0.02622552310713739,right,-0.0002499818801879883,-0.1374652050902079,0.7214762452229857,-9.687309919348358,-0.06813904411325385,-0.010072809644043446,0.00060223788022995,1.3438316064804792,0.0010869503021240234
1745972497828668200,8.614668212890624,0.0740516039631083,0.010237287729978561,0.03780784156996435,-0.008801901713013649,-0.015325156526360581,0.9968322592833442,-0.025636184297275533,right,-0.0006771683692932129,-0.13770701116906833,0.7186663023687899,-9.687192430448532,-0.06827295772295094,-0.0034332480281591415,0.0006193220615386963,1.3461805076941846,0.002686634659767151
1745972497868668200,8.654668212890625,0.0740516039631083,0.0027207843959331512,0.03780784156996435,-0.00833533052355051,-0.015325156526360581,0.9968322592833442,-0.025636184297275533,right,0.0004892945289611816,-0.13770701116906833,0.7186663023687899,-9.687192430448532,-0.06827295772295094,-0.0001677917316555977,-0.00019966065883636475,1.3461805076941846,0.001982659101486206
1745972497908668200,8.694668212890624,0.0740516039631083,0.0006706239655613899,0.03780784156996435,-0.00022197235375642776,-0.015325156526360581,0.9968322592833442,-0.025636184297275533,right,0.001661062240600586,-0.13770701116906833,0.7186663023687899,-9.687192430448532,-0.06827295772295094,0.007223707623779774,0.00030697137117385864,1.3461805076941846,0.0010334402322769165
1745972497948668200,8.734668212890625,0.0740516039631083,-0.0006207058904692531,0.03780784156996435,0.0032017717603594065,-0.015325156526360581,0.9968322592833442,-0.025636184297275533,right,0.000568687915802002,-0.13770701116906833,0.7186663023687899,-9.687192430448532,-0.06827295772295094,0.007831784896552563,0.0005494430661201477,1.3461805076941846,0.00040109455585479736
1745972497988668200,8.774668212890624,0.0740516039631083,-0.0025674912612885237,0.03780784156996435,0.004204726777970791,-0.015325156526360581,0.9968322592833442,-0.025636184297275533,right,0.0004105567932128906,-0.13770701116906833,0.7186663023687899,-9.687192430448532,-0.06827295772295094,0.0067799147218465805,0.0015653446316719055,1.3461805076941846,-0.00018867850303649902
1745972498028668200,8.814668212890625,0.07422441185170772,-0.00374567206017673,0.037893583938126744,0.005335988011211157,-0.015353729089941603,0.9968457344473848,-0.02569973206561315,right,-0.00010132789611816406,-0.13720887796795841,0.7203899843562394,-9.68773603580594,-0.06802213254943039,0.00846916064620018,0.0025058165192604065,1.3413415432304143,-0.0003084242343902588
1745972498068668200,8.854668212890624,0.07422441185170772,-0.004741506651043892,0.037893583938126744,0.002066340297460556,-0.015353729089941603,0.9968457344473848,-0.02569973206561315,right,-0.0006469488143920898,-0.13720887796795841,0.7203899843562394,-9.68773603580594,-0.06802213254943039,0.0030430415645241737,0.002348579466342926,1.3413415432304143,-0.00044909119606018066
1745972498108668200,8.894668212890625,0.07422441185170772,-0.0018618665635585785,0.037893583938126744,-0.0017266524955630302,-0.015353729089941603,0.9968457344473848,-0.02569973206561315,right,-0.0008605122566223145,-0.13720887796795841,0.7203899843562394,-9.68773603580594,-0.06802213254943039,-0.00393920810893178,0.0025678426027297974,1.3413415432304143,-0.001178145408630371
1745972498148668400,8.93466845703125,0.07422441185170772,0.0009342567063868046,0.037893583938126744,-0.0016962506342679262,-0.015353729089941603,0.9968457344473848,-0.02569973206561315,right,-0.0009286403656005859,-0.13720887796795841,0.7203899843562394,-9.68773603580594,-0.06802213254943039,-0.0071151964366436005,0.0023479238152503967,1.3413415432304143,-0.0005430877208709717
1745972498188668200,8.974668212890625,0.07422441185170772,0.0011203472968190908,0.037893583938126744,0.0009343782439827919,-0.015353729089941603,0.9968457344473848,-0.02569973206561315,right,-0.00031006336212158203,-0.13720887796795841,0.7203899843562394,-9.68773603580594,-0.06802213254943039,-0.008255798369646072,0.003253363072872162,1.3413415432304143,0.001070067286491394
1745972498228668200,9.014668212890625,0.07422441185170772,0.002117609605193138,0.037893583938126744,-0.00804381724447012,-0.015353729089941603,0.9968457344473848,-0.02569973206561315,right,-0.0014812946319580078,-0.13720887796795841,0.7203899843562394,-9.68773603580594,-0.06802213254943039,0.004567884840071201,0.002708524465560913,1.3413415432304143,-0.0002449303865432739
1745972498268668200,9.054668212890626,0.07422441185170772,0.0020413915626704693,0.037893583938126744,-0.003231401089578867,-0.015353729089941603,0.9968457344473848,-0.02569973206561315,right,-0.0031704306602478027,-0.13720887796795841,0.7203899843562394,-9.68773603580594,-0.06802213254943039,-0.00039280345663428307,0.0017647668719291687,1.3413415432304143,0.0009692460298538208
1745972498308668200,9.094668212890625,0.07422441185170772,0.004590869881212711,0.037893583938126744,-0.005328313447535038,-0.015353729089941603,0.9968457344473848,-0.02569973206561315,right,-0.0015498995780944824,-0.13720887796795841,0.7203899843562394,-9.68773603580594,-0.06802213254943039,-0.001866777427494526,0.0024757981300354004,1.3413415432304143,0.0010954290628433228
1745972498348668200,9.134668212890626,0.07422441185170772,0.005533343646675348,0.037893583938126744,-0.002045812550932169,-0.015353729089941603,0.9968457344473848,-0.02569973206561315,right,0.00001245737075805664,-0.13720887796795841,0.7203899843562394,-9.68773603580594,-0.06802213254943039,0.0022566132247447968,0.002590194344520569,1.3413415432304143,0.00025241076946258545
1745972498388668200,9.174668212890625,0.07422441185170772,0.002081991406157613,0.037893583938126744,-0.0066549996845424175,-0.015353729089941603,0.9968457344473848,-0.02569973206561315,right,-0.00016993284225463867,-0.13720887796795841,0.7203899843562394,-9.68773603580594,-0.06802213254943039,0.004064264241605997,0.0016506314277648926,1.3413415432304143,0.0020390450954437256
1745972498428668200,9.214668212890626,0.07422441185170772,-0.0005729852709919214,0.037893583938126744,-0.004715397953987122,-0.015353729089941603,0.9968457344473848,-0.02569973206561315,right,-0.0003371238708496094,-0.13720887796795841,0.7203899843562394,-9.68773603580594,-0.06802213254943039,0.0008567802142351866,0.0022419989109039307,1.3413415432304143,0.0014625489711761475
1745972498468668200,9.254668212890625,0.07422441185170772,-0.004458398558199406,0.037893583938126744,-0.01182946190237999,-0.015353729089941603,0.9968457344473848,-0.02569973206561315,right,-0.0012469291687011719,-0.13720887796795841,0.7203899843562394,-9.68773603580594,-0.06802213254943039,0.004168299958109856,0.00047066807746887207,1.3413415432304143,-0.0006822198629379272
1745972498508668200,9.294668212890626,0.07422441185170772,-0.0058437855914235115,0.037893583938126744,0.0019382871687412262,-0.015353729089941603,0.9968457344473848,-0.02569973206561315,right,0.000891566276550293,-0.13720887796795841,0.7203899843562394,-9.68773603580594,-0.06802213254943039,-0.0012419014237821102,-0.0007172375917434692,1.3413415432304143,-0.0008323490619659424
1745972498548668200,9.334668212890625,0.07422441185170772,-0.007288066670298576,0.037893583938126744,0.0060446616262197495,-0.015353729089941603,0.9968457344473848,-0.02569973206561315,right,0.000016391277313232422,-0.13720887796795841,0.7203899843562394,-9.68773603580594,-0.06802213254943039,-0.008035525679588318,-0.00006446987390518188,1.3413415432304143,-0.000422745943069458
1745972498588668200,9.374668212890626,0.07462098693633121,-0.004524566698819399,0.03809816695668363,0.009916399605572224,-0.015421461626997106,0.9968090011945835,-0.02577852670032414,right,0.0008142590522766113,-0.13803313301500778,0.72414911769405,-9.686343704664706,-0.06842843705775477,-0.017155256122350693,0.00035696476697921753,1.3493483240753412,-0.000908583402633667
1745972498628668200,9.414668212890625,0.0750915429312569,-0.002333606593310833,0.03833739944640679,0.012662707827985287,-0.015462207309687195,0.9967728318208149,-0.025799451807505352,right,-0.0015650391578674316,-0.13881110233824182,0.7286280166737735,-9.684951958045362,-0.06881216301412453,-0.017366372048854828,0.00152520090341568,1.356904584673792,0.00009381771087646484
1745972498668668200,9.454668212890626,0.07545081666288174,-0.0010156183270737529,0.03851893650272317,0.004421507939696312,-0.015475971333621634,0.9967443992173675,-0.025779438960530265,right,-0.00393444299697876,-0.1394306316213341,0.7320440356623381,-9.683849549761414,-0.06911855164362696,-0.011775716207921505,0.003031007945537567,1.3629213607452808,0.0004145801067352295
1745972498708668200,9.494668212890625,0.07545081666288174,0.0018288778373971581,0.03851893650272317,-0.00474433321505785,-0.015475971333621634,0.9967443992173675,-0.025779438960530265,right,-0.0015324950218200684,-0.1394306316213341,0.7320440356623381,-9.683849549761414,-0.06911855164362696,-0.0009621111676096916,0.0035368353128433228,1.3629213607452808,0.0007359087467193604
1745972498748668200,9.534668212890624,0.07545081666288174,0.0028021109756082296,0.03851893650272317,-0.0034102965146303177,-0.015475971333621634,0.9967443992173675,-0.025779438960530265,right,-0.000503242015838623,-0.1394306316213341,0.7320440356623381,-9.683849549761414,-0.06911855164362696,0.0029458310455083847,0.0031670555472373962,1.3629213607452808,0.0004412531852722168
1745972498788668200,9.574668212890625,0.07545081666288174,-0.000061787199229002,0.03851893650272317,-0.006158875301480293,-0.015475971333621634,0.9967443992173675,-0.025779438960530265,right,-0.0007413625717163086,-0.1394306316213341,0.7320440356623381,-9.683849549761414,-0.06911855164362696,0.005070811603218317,0.0017650648951530457,1.3629213607452808,-0.00025548040866851807
1745972498828668200,9.614668212890624,0.07545081666288174,-0.0003967460652347654,0.03851893650272317,-0.0017504249699413776,-0.015475971333621634,0.9967443992173675,-0.025779438960530265,right,0.00017529726028442383,-0.1394306316213341,0.7320440356623381,-9.683849549761414,-0.06911855164362696,0.00422680051997304,0.0025415197014808655,1.3629213607452808,-0.0006252676248550415
1745972498868668200,9.654668212890625,0.07545081666288174,-0.004127995576709509,0.03851893650272317,-0.007474986370652914,-0.015475971333621634,0.9967443992173675,-0.025779438960530265,right,-0.00016993284225463867,-0.1394306316213341,0.7320440356623381,-9.683849549761414,-0.06911855164362696,-0.0029540290124714375,0.0018115341663360596,1.3629213607452808,-0.000109061598777771
1745972498908668200,9.694668212890624,0.07545081666288174,-0.007906617596745491,0.03851893650272317,-0.020466553047299385,-0.015475971333621634,0.9967443992173675,-0.025779438960530265,right,-0.0041904449462890625,-0.1394306316213341,0.7320440356623381,-9.683849549761414,-0.06911855164362696,-0.003912354353815317,0.0008660182356834412,1.3629213607452808,-0.004123121500015259
1745972498948668200,9.734668212890625,0.0746078740300053,-0.003230656962841749,0.03810889802362095,-0.005769810639321804,-0.015586569520683921,0.996755050713949,-0.026056354528137947,right,-0.0008596181869506836,-0.13952549550637247,0.723871177535504,-9.684334118407964,-0.0691670751690978,-0.007389377802610397,0.0004722028970718384,1.363842567243427,-0.0016097873449325562
1745972498988668200,9.774668212890624,0.07425312164965392,-0.00023925467394292355,0.03793667268291334,-0.0052254702895879745,-0.015617845551300132,0.9967475129144064,-0.026129493113050295,right,-0.0008445382118225098,-0.13991847545626204,0.7203958295751363,-9.684055301466584,-0.06936431106791419,-0.014322854578495026,0.00028124451637268066,1.3676589106611907,0.0006997734308242798
1745972499028668200,9.814668212890625,0.07425312164965392,0.0003959660534746945,0.03793667268291334,-0.003906405530869961,-0.015617845551300132,0.9967475129144064,-0.026129493113050295,right,0.0008533596992492676,-0.13991847545626204,0.7203958295751363,-9.684055301466584,-0.06936431106791419,-0.013797436840832233,0.0004636496305465698,1.3676589106611907,0.0014291703701019287
1745972499068668200,9.854668212890624,0.07407073137821726,-0.002371974289417267,0.03784991329199437,-0.000033518532291054726,-0.01562594128764787,0.9967230368888956,-0.02612982826898199,right,0.00006192922592163086,-0.14070998597027495,0.7185491787951439,-9.683103699830173,-0.06976022058642797,-0.011451722122728825,0.0010468289256095886,1.3753446428582072,0.003486335277557373
1745972499108668200,9.894668212890625,0.0739429325946211,-0.009236009791493416,0.037796845035644754,-0.004305741749703884,-0.015736080285767385,0.9967007994935079,-0.026336344504540088,right,-0.0006660819053649902,-0.1413597581463523,0.7172455488506704,-9.682302320319414,-0.07008115734841869,-0.009556195698678493,0.001611262559890747,1.381653533744067,0.003100842237472534
1745972499148668400,9.93466845703125,0.0739429325946211,-0.006957118399441242,0.037796845035644754,-0.005034065339714289,-0.015736080285767385,0.9967007994935079,-0.026336344504540088,right,-0.0012179017066955566,-0.1413597581463523,0.7172455488506704,-9.682302320319414,-0.07008115734841869,-0.0032378407195210457,0.001518435776233673,1.381653533744067,0.002005651593208313
1745972499188668200,9.974668212890625,0.07357729728407897,-0.0024954862892627716,0.03763148906063774,-0.003218687605112791,-0.01594128731204233,0.9966911099449958,-0.026760479074257066,right,0.0003413558006286621,-0.14173194871674358,0.713667398102954,-9.682050391384958,-0.07026154726631813,0.0029547610320150852,0.0009912773966789246,1.385266901935637,0.000042498111724853516
1745972499228668200,10.014668212890625,0.07357729728407897,0.003390082623809576,0.03763148906063774,-0.007844408974051476,-0.01594128731204233,0.9966911099449958,-0.026760479074257066,right,-0.0015513300895690918,-0.14173194871674358,0.713667398102954,-9.682050391384958,-0.07026154726631813,0.007892612367868423,0.0002466365694999695,1.385266901935637,-0.0010203123092651367
1745972499268668200,10.054668212890626,0.07305320222275219,0.008119330741465092,0.037359427811682,-0.014246420934796333,-0.01578930882994404,0.9967157545775355,-0.026505290303005934,right,-0.0011190176010131836,-0.14137165153499548,0.7086294039357454,-9.682920159956812,-0.0700909233704972,0.006723957601934671,0.0007203146815299988,1.38176897681728,-0.000634506344795227
1745972499308668200,10.094668212890625,0.0725963221778814,0.010055668652057648,0.03711623608754354,-0.016043636947870255,-0.015575843032932812,0.9967416007614888,-0.026123408812207448,right,-0.0013627409934997559,-0.1409669293559703,0.7042459281545131,-9.68379986540079,-0.06989990421612169,0.011094742454588413,0.0009762346744537354,1.3778395284138618,-0.0009004473686218262
1745972499348668200,10.134668212890626,0.07183673542292773,0.007804971653968096,0.03672178409229753,-0.023164046928286552,-0.01534918818617537,0.9967752742707424,-0.025738495382791323,right,-0.0013263225555419922,-0.1404928948882932,0.6969367741849273,-9.684982353183626,-0.06967662346416632,0.006839052774012089,0.0024092644453048706,1.3732367107935248,0.0007661730051040649
1745972499388668200,10.174668212890625,0.07081630349120113,0.004435519687831402,0.03620366580914987,-0.023694094270467758,-0.015187847035537647,0.9968025651240904,-0.025492700273802665,right,-0.00038892030715942383,-0.14030207431146519,0.6870720905136316,-9.685949736911057,-0.06959377938309483,0.003987453877925873,0.0028091520071029663,1.3713837764032184,0.0004794299602508545
1745972499428668200,10.214668212890626,0.07016124949495844,0.0001906934194266796,0.03587135486895603,-0.010445106774568558,-0.015079539063919924,0.9968144237248806,-0.02531987079656912,right,0.0018303990364074707,-0.14033885549984498,0.6807235982697457,-9.686347211796045,-0.06962018027893564,-0.004661763086915016,0.0018405839800834656,1.3717410654082893,0.0008759349584579468
1745972499468668200,10.254668212890625,0.07016124949495844,-0.008380737155675888,0.03587135486895603,-0.002755319233983755,-0.015079539063919924,0.9968144237248806,-0.02531987079656912,right,0.0010756850242614746,-0.14033885549984498,0.6807235982697457,-9.686347211796045,-0.06962018027893564,-0.013875721022486687,0.0012715309858322144,1.3717410654082893,0.0005410313606262207
1745972499508668200,10.294668212890626,0.0700056893267273,-0.014222932979464531,0.03581568653636145,0.0025236052460968494,-0.015334079692945883,0.996780818675426,-0.025809926689825645,right,0.001250624656677246,-0.14126291397512894,0.6791278535109013,-9.685184597757457,-0.07007315793455575,-0.018658116459846497,0.0008894875645637512,1.3807131841540337,-0.000548243522644043
1745972499548668200,10.334668212890625,0.07013993212526899,-0.013090354390442371,0.035909056833545464,0.007083684206008911,-0.01566726610578501,0.9967444865130131,-0.02644130421998957,right,-0.0011841058731079102,-0.1420743303834665,0.6803492850646377,-9.683972299358247,-0.07046522779149285,-0.015674162656068802,0.0006237849593162537,1.3885907856613398,-0.0018986910581588745
1745972499588668200,10.374668212890626,0.07040339160898267,0.00006527453660964966,0.0360566977054467,0.0083051398396492,-0.015868400178199335,0.9967134278374833,-0.02680368008182047,right,-0.0012992620468139648,-0.14273364256095528,0.6828359873138368,-9.682877489858866,-0.07078522186941372,-0.013443055562675,0.0014517679810523987,1.394991008092463,-0.004789367318153381
1745972499628668200,10.414668212890625,0.07040339160898267,0.006817014422267675,0.0360566977054467,0.006828326731920242,-0.015868400178199335,0.9967134278374833,-0.02680368008182047,right,-0.001278698444366455,-0.14273364256095528,0.6828359873138368,-9.682877489858866,-0.07078522186941372,-0.014878894202411175,0.0008556172251701355,1.394991008092463,-0.0026993602514266968
1745972499668668200,10.454668212890626,0.07040339160898267,0.013568753376603127,0.0360566977054467,0.005351513624191284,-0.015868400178199335,0.9967134278374833,-0.02680368008182047,right,-0.0012581348419189453,-0.14273364256095528,0.6828359873138368,-9.682877489858866,-0.07078522186941372,-0.016314733773469925,0.0002594664692878723,1.394991008092463,-0.0006093680858612061
1745972499708668200,10.494668212890625,0.07045402855683679,0.010488196276128292,0.036058063419161415,-0.0047489553689956665,-0.015493185444360801,0.9966924989118232,-0.02602234961318895,right,-0.0017033219337463379,-0.14345724470454893,0.683255089508742,-9.681833533763886,-0.07115955247752691,-0.015939155593514442,0.0016832128167152405,1.402014623118937,0.002085655927658081
1745972499748668200,10.534668212890624,0.07032363739655932,0.0057549867779016495,0.03598009426098457,-0.005208264570683241,-0.015264875838121236,0.996670824149862,-0.025547213099371347,right,-0.000005304813385009766,-0.1442254636971377,0.6819167535770684,-9.680845107248425,-0.07155196650748372,-0.016260195523500443,0.0016328319907188416,1.4094704920828343,0.0020258724689483643
1745972499788668200,10.574668212890625,0.0701790706747561,-0.0027261804789304733,0.03590690432444164,-0.009827056899666786,-0.015211302031444855,0.9966523933197367,-0.02542938833171684,right,-0.001968860626220703,-0.1448310183241753,0.6804572754837572,-9.680090489488839,-0.07185696773960165,-0.010890187695622444,0.0015205219388008118,1.4153469829007983,0.002873137593269348
1745972499828668200,10.614668212890624,0.0701790706747561,-0.004489535000175238,0.03590690432444164,-0.011138398200273514,-0.015211302031444855,0.9966523933197367,-0.02542938833171684,right,-0.0009028911590576172,-0.1448310183241753,0.6804572754837572,-9.680090489488839,-0.07185696773960165,-0.007443547248840332,0.001323610544204712,1.4153469829007983,0.0019578784704208374
1745972499868668200,10.654668212890625,0.06957531295744623,-0.008272726088762283,0.03561867712432983,-0.013063779100775719,-0.015328313514439031,0.9966366343876655,-0.0256849304926148,right,-0.0007655024528503418,-0.14550399268964376,0.6745463709395378,-9.67954746865332,-0.07219239270173945,-0.0023101335391402245,0.0003062933683395386,1.4218771153219043,0.0011320263147354126
1745972499908668200,10.694668212890624,0.06863641629015117,-0.018499702215194702,0.03517307908851649,-0.021810904145240784,-0.015577371633337944,0.9966330270260604,-0.026238198808163773,right,-0.0012301802635192871,-0.14593945463863736,0.6654154083702712,-9.679557990047336,-0.07240686870777503,-0.008196011185646057,0.0002825930714607239,1.4261023318015038,0.0013887882232666016
1745972499948668200,10.734668212890625,0.06782390679208919,-0.019413847476243973,0.034796046681814595,-0.02422730252146721,-0.015904684593354524,0.9966251133316888,-0.026939124944237003,right,-0.0027691125869750977,-0.14639292998735573,0.6575066080071031,-9.679449268975853,-0.07262698847649299,-0.007660035975277424,0.0002393871545791626,1.4305020280651748,0.0028298795223236084
1745972499988668200,10.774668212890624,0.06695314237322453,-0.01832984946668148,0.03439187074091768,-0.020554671064019203,-0.016250619827962533,0.9966159528584734,-0.027680694169812135,right,-0.000301361083984375,-0.14688850329673486,0.6490303099542856,-9.679309568244218,-0.07286812801528104,-0.012625981122255325,0.0005167350172996521,1.435309720607847,0.002118632197380066
1745972500028668200,10.814668212890625,0.06653506706583069,-0.01625719480216503,0.03421259071523603,-0.005813973024487495,-0.016602207097633076,0.9965995440734599,-0.028401460686135156,right,-0.00040405988693237305,-0.1473649869037752,0.6449379991393536,-9.67889631126821,-0.07309665340837251,-0.007029508240520954,0.0018994137644767761,1.4399319735810159,0.0013716071844100952
1745972500068668200,10.854668212890624,0.06635196459695515,-0.021342691034078598,0.03415373261865236,-0.007101201452314854,-0.01702278260394258,0.9965875974764302,-0.029252050681367065,right,-0.0017164945602416992,-0.14757866648652904,0.6431453435689211,-9.678706926175952,-0.07319013874765815,0.0015799999237060547,0.0026365667581558228,1.4420046882018447,-0.00019721686840057373
1745972500108668200,10.894668212890625,0.06623465288949577,-0.014578788541257381,0.034125259104904916,-0.0026512290351092815,-0.01742815208091268,0.9965833003680363,-0.030074806074585986,right,-0.0005156397819519043,-0.1475592816380509,0.6420118094943463,-9.678810386550426,-0.07316743997715526,0.0033722631633281708,0.0031764432787895203,1.441816618283838,-0.0007066428661346436
1745972500148668400,10.93466845703125,0.06615268665980963,-0.0097451601177454,0.034104901411358725,-0.005294196307659149,-0.017714476686413867,0.9965849216125476,-0.030660022357409524,right,-0.0013363957405090332,-0.14741586912161042,0.6412321303587406,-9.679069329747557,-0.07308670759934932,0.0019795482512563467,0.003048434853553772,1.4404256023168562,-0.000554308295249939
1745972500188668200,10.974668212890625,0.06615268665980963,0.0009027030318975449,0.034104901411358725,-0.009013602510094643,-0.017714476686413867,0.9965849216125476,-0.030660022357409524,right,-0.0015597939491271973,-0.14741586912161042,0.6412321303587406,-9.679069329747557,-0.07308670759934932,-0.003947344608604908,0.0021989867091178894,1.4404256023168562,-0.0006599277257919312
1745972500228668200,11.014668212890625,0.06580608499557725,0.001151579199358821,0.03393233838571497,-0.008736218325793743,-0.01768312117749655,0.9965805153760556,-0.030613339757995708,right,-0.001078963279724121,-0.1477045577464468,0.6378499405745417,-9.678875268480182,-0.0732344312885604,-0.005275243893265724,0.002056516706943512,1.4432259005598722,-0.00017084181308746338
1745972500268668200,11.054668212890626,0.06580608499557725,0.001400455366820097,0.03393233838571497,-0.008458835072815418,-0.01768312117749655,0.9965805153760556,-0.030613339757995708,right,-0.0005783438682556152,-0.1477045577464468,0.6378499405745417,-9.678875268480182,-0.0732344312885604,-0.006603142712265253,0.0015691742300987244,1.4432259005598722,0.000603795051574707
1745972500308668200,11.094668212890625,0.06524656551645903,-0.0031705405563116074,0.03365603730574681,-0.00862377043813467,-0.01766780608585705,0.9965750380801799,-0.03061102395949838,right,0.00011456012725830078,-0.14810770880258545,0.6323963513437658,-9.678649643030763,-0.0734403135524505,-0.005189880728721619,0.0010874494910240173,1.4471362058714032,0.0008485466241836548
1745972500348668200,11.134668212890626,0.06524656551645903,-0.007891258224844933,0.03365603730574681,-0.010268709622323513,-0.01766780608585705,0.9965750380801799,-0.03061102395949838,right,-0.0004101991653442383,-0.14810770880258545,0.6323963513437658,-9.678649643030763,-0.0734403135524505,0.00975388940423727,0.0006348416209220886,1.4471362058714032,-0.0017398744821548462
1745972500388668200,11.174668212890625,0.06524656551645903,-0.002931905910372734,0.03365603730574681,-0.003815220668911934,-0.01766780608585705,0.9965750380801799,-0.03061102395949838,right,-0.0029175281524658203,-0.14810770880258545,0.6323963513437658,-9.678649643030763,-0.0734403135524505,0.0036239451728761196,-0.0018398165702819824,1.4471362058714032,-0.0028619319200515747
1745972500428668200,11.214668212890626,0.06524656551645903,0.004497593268752098,0.03365603730574681,-0.007118462584912777,-0.01766780608585705,0.9965750380801799,-0.03061102395949838,right,-0.0016646981239318848,-0.14810770880258545,0.6323963513437658,-9.678649643030763,-0.0734403135524505,-0.010240225121378899,-0.0006357058882713318,1.4471362058714032,-0.0007163733243942261
1745972500468668200,11.254668212890625,0.06524656551645903,0.005945100449025631,0.03365603730574681,0.0023580407723784447,-0.01766780608585705,0.9965750380801799,-0.03061102395949838,right,-0.0003356337547302246,-0.14810770880258545,0.6323963513437658,-9.678649643030763,-0.0734403135524505,-0.021810922771692276,-0.00007315725088119507,1.4471362058714032,0.0026569664478302
1745972500508668200,11.294668212890626,0.06488973440622495,0.0005201604217290878,0.033477527664428006,-0.0027687055990099907,-0.017573882458892756,0.9965450757430021,-0.030417369691899118,right,-0.0007472634315490723,-0.14911176200241683,0.6288480842776596,-9.67741980897486,-0.0739470561397507,-0.018963217735290527,0.00037166476249694824,1.4568740482926368,0.0034108906984329224
1745972500548668200,11.334668212890625,0.064619518899152,-0.0009436891414225101,0.033348801919443345,-0.003918075002729893,-0.017589122639867123,0.9965202978594682,-0.03044388428685336,right,0.00005918741226196289,-0.14988537026686918,0.6261600873026997,-9.676461777597666,-0.07433448014645193,-0.010160477831959724,0.0003665536642074585,1.464375948355347,0.002711743116378784
1745972500588668200,11.374668212890626,0.06467041548308587,-0.0007404886418953538,0.03337796015037643,-0.0006665324326604605,-0.01761161340668744,0.9965029441831641,-0.030471691028689327,right,-0.0008397102355957031,-0.1503193232952786,0.6266114843320101,-9.675794838121533,-0.07454979631247108,-0.001417604275047779,-0.0002743378281593323,1.468583775308728,0.0017818808555603027
1745972500628668200,11.414668212890625,0.06467041548308587,0.0019312972435727715,0.03337796015037643,0.004808646626770496,-0.01761161340668744,0.9965029441831641,-0.030471691028689327,right,0.0004667043685913086,-0.1503193232952786,0.6266114843320101,-9.675794838121533,-0.07454979631247108,0.0008114650845527649,0.0005730092525482178,1.468583775308728,0.000966385006904602
1745972500668668200,11.454668212890626,0.06467041548308587,0.004363390151411295,0.03337796015037643,0.0015431565698236227,-0.01761161340668744,0.9965029441831641,-0.030471691028689327,right,-0.000007092952728271484,-0.1503193232952786,0.6266114843320101,-9.675794838121533,-0.07454979631247108,-0.0003324015997350216,0.0011430606245994568,1.468583775308728,0.0016728490591049194
1745972500708668200,11.494668212890625,0.06477132029678405,0.00731423357501626,0.033413664297059914,0.003889575134962797,-0.01738788214995564,0.9964871774778619,-0.030000082276270212,right,0.00153428316116333,-0.15079989963572069,0.6275420431803912,-9.675026191836595,-0.07479625421242654,-0.009532846510410309,0.0012895464897155762,1.4732432915523648,0.0027488619089126587
1745972500748668200,11.534668212890624,0.0651299251632729,0.008472935296595097,0.033579924575415546,0.010510278865695,-0.01720153085360997,0.9964650840112299,-0.02958277834808246,right,0.0011298656463623047,-0.15132033488979846,0.6309615693002939,-9.674034258189797,-0.07505945816511005,-0.009496170096099377,0.00206959992647171,1.4782888845041393,0.0024593621492385864
1745972500788668200,11.574668212890625,0.0651299251632729,0.0016158358193933964,0.033579924575415546,0.0074422964826226234,-0.01720153085360997,0.9964650840112299,-0.02958277834808246,right,-0.0012243390083312988,-0.15132033488979846,0.6309615693002939,-9.674034258189797,-0.07505945816511005,-0.0009205956012010574,0.0031230226159095764,1.4782888845041393,0.0022794753313064575
1745972500828668200,11.614668212890624,0.06556498697869179,-0.0014553857035934925,0.03379771906786733,0.0076597328297793865,-0.01724425479659344,0.9964645320123404,-0.02964186561856238,right,-0.00039821863174438477,-0.15112748102581558,0.6351889777369797,-9.674043026018142,-0.07495862628587195,0.003672500606626272,0.003227017819881439,1.4764192912399767,0.0012638270854949951
1745972500868668200,11.654668212890625,0.06556498697869179,-0.004526607692241669,0.03379771906786733,0.00787716917693615,-0.01724425479659344,0.9964645320123404,-0.02964186561856238,right,0.00042700767517089844,-0.15112748102581558,0.6351889777369797,-9.674043026018142,-0.07495862628587195,0.008265596814453602,0.003762088716030121,1.4764192912399767,0.00005754828453063965
1745972500908668200,11.694668212890624,0.06615333210147484,0.003795531578361988,0.034090558493375334,0.0010351650416851044,-0.017283248755995427,0.996466169947922,-0.02968598412591081,right,0.00005340576171875,-0.15081123491640747,0.6409113739717751,-9.674133042389155,-0.07479522241986926,0.003172853961586952,0.0022206753492355347,1.4733531816676257,-0.0006217658519744873
1745972500948668200,11.734668212890625,0.06664146259168395,0.018952185288071632,0.03431124474113255,0.0017612340161576867,-0.01700442995366608,0.9964646433167862,-0.029091183682301285,right,-0.0009557008743286133,-0.15076606702530135,0.6456379641022533,-9.673885205107927,-0.0747787029636405,-0.003006827086210251,0.0018099099397659302,1.4729152286417782,-0.0017495155334472656
1745972500988668200,11.774668212890624,0.06711472136491324,0.026828506961464882,0.03450629641311462,-0.0016549589345231652,-0.01648028919221551,0.9964662220814318,-0.028004215863809752,right,-0.001655876636505127,-0.15074908799445347,0.6502178392384201,-9.673603465557099,-0.07478498328912499,-0.002256247214972973,0.0008684396743774414,1.4727506857298314,-0.0019532740116119385
1745972501028668200,11.814668212890625,0.06755534789651646,0.02974727749824524,0.03467162756032913,0.007981477305293083,-0.015785001341587848,0.9964772542321055,-0.02658180982695053,right,0.00008279085159301758,-0.15056092904270005,0.6544988775584847,-9.673592359641194,-0.07471227032102842,-0.0002416518982499838,0.0016194507479667664,1.4709263929121195,-0.00026376545429229736
1745972501068668200,11.854668212890624,0.06780199508354338,0.019658513367176056,0.03475638162990004,0.0002970779314637184,-0.015298527597281697,0.9964899870493078,-0.025595186713980138,right,-0.00017052888870239258,-0.15031019209578372,0.6569098111577332,-9.673798111346363,-0.07460255158476654,0.006326568312942982,0.001754067838191986,1.4684952202424406,0.00029827654361724854
1745972501108668200,11.894668212890625,0.06815461122674991,0.010916744358837605,0.03490968355866216,0.0011815896723419428,-0.015019639217107226,0.996493604625998,-0.025013679976928393,right,-0.000599205493927002,-0.15017046768782275,0.6603348902355879,-9.673770638817548,-0.07454037909868647,-0.00012488290667533875,0.0010054558515548706,1.4671404446326195,0.0007025152444839478
1745972501148668400,11.93466845703125,0.06815461122674991,0.008801821619272232,0.03490968355866216,-0.0004708687774837017,-0.015019639217107226,0.996493604625998,-0.025013679976928393,right,0.0024681687355041504,-0.15017046768782275,0.6603348902355879,-9.673770638817548,-0.07454037909868647,-0.008321396075189114,0.0013421401381492615,1.4671404446326195,-0.0010090917348861694
1745972501188668200,11.974668212890625,0.06830579476824856,0.007923605851829052,0.03496710066089067,0.00010996195487678051,-0.014757823984903516,0.9964729511664797,-0.024457358524447272,right,0.0013144612312316895,-0.15075825496568565,0.6617384003579616,-9.672809100309014,-0.07484184754514539,-0.004917335696518421,0.0006844326853752136,1.4728395330570638,-0.0007586628198623657
1745972501228668200,12.014668212890625,0.06830579476824856,0.0031240242533385754,0.03496710066089067,-0.004913715645670891,-0.014757823984903516,0.9964729511664797,-0.024457358524447272,right,-0.0009975433349609375,-0.15075825496568565,0.6617384003579616,-9.672809100309014,-0.07484184754514539,-0.008120108395814896,0.0011098459362983704,1.4728395330570638,0.0008659213781356812
1745972501268668200,12.054668212890626,0.06830579476824856,-0.016920180991292,0.03496710066089067,-0.017340056598186493,-0.014757823984903516,0.9964729511664797,-0.024457358524447272,right,-0.0020114779472351074,-0.15075825496568565,0.6617384003579616,-9.672809100309014,-0.07484184754514539,-0.010171826928853989,0.0017476528882980347,1.4728395330570638,0.002901434898376465
1745972501308668200,12.094668212890625,0.06723996678622704,-0.014127865433692932,0.03445959738341823,-0.0205374788492918,-0.014993456715553426,0.9964585956725649,-0.02498546992251323,right,0.0016379952430725098,-0.15151895648054473,0.6513529807481915,-9.67238824454844,-0.07521964456231739,0.0012016352266073227,0.0036499500274658203,1.4802144457392394,-0.0008012503385543823
1745972501348668200,12.134668212890626,0.06650310480805141,-0.006119148805737495,0.034114529995199816,-0.006783224642276764,-0.015236853054993792,0.9964515193874749,-0.02551635600356724,right,0.0005714893341064453,-0.15192935098079913,0.6441852080106735,-9.67225848068893,-0.07542060025986322,-0.0039788964204490185,0.0021317750215530396,1.4841928478509188,-0.002832353115081787
1745972501388668200,12.174668212890625,0.06616050346637774,-0.003136244136840105,0.03394864968274743,-0.0037195738404989243,-0.015261545460743051,0.9964376430844778,-0.02557567636336712,right,0.0007005929946899414,-0.15243282471559952,0.6408219421226531,-9.67173182646632,-0.07567306288966054,-0.009843815118074417,0.002283133566379547,1.4890731672383843,-0.0008113682270050049
1745972501428668200,12.214668212890626,0.0658178640026605,-0.0001533394679427147,0.033782769370294986,-0.0006559230387210846,-0.01528623396510499,0.9964238509848438,-0.025635175344632978,right,0.0008292794227600098,-0.1529363193098055,0.6374586031693965,-9.671201080590485,-0.07592552551945775,-0.015708735212683678,0.0024344995617866516,1.4939533404953778,0.0012096315622329712
1745972501468668200,12.254668212890625,0.0658178640026605,-0.003390956437215209,0.033782769370294986,0.009442580863833427,-0.01528623396510499,0.9964238509848438,-0.025635175344632978,right,0.0014076828956604004,-0.1529363193098055,0.6374586031693965,-9.671201080590485,-0.07592552551945775,-0.01062643714249134,0.002663731575012207,1.4939533404953778,0.002105146646499634
1745972501508668200,12.294668212890626,0.06616625560982825,-0.005415690131485462,0.033973490179581345,0.008644825778901577,-0.015482606165547986,0.9963844708019456,-0.025977072807335216,right,0.0001844167709350586,-0.1537373708735082,0.6407485846254974,-9.669781276920437,-0.07631616737675899,-0.0075645362958312035,0.0027156397700309753,1.5017168141037225,0.0013289302587509155
1745972501548668200,12.334668212890625,0.06616625560982825,-0.0036537270061671734,0.033973490179581345,0.006331009324640036,-0.015482606165547986,0.9963844708019456,-0.025977072807335216,right,-0.0007038116455078125,-0.1537373708735082,0.6407485846254974,-9.669781276920437,-0.07631616737675899,-0.0040368796326220036,0.004295840859413147,1.5017168141037225,-0.00047753751277923584
1745972501588668200,12.374668212890626,0.06661055887215415,-0.0021559991873800755,0.03421093100018433,0.0012857927940785885,-0.015686479444853185,0.9963571253671206,-0.026338086201001365,right,-0.000854194164276123,-0.15417655861037827,0.6450009083077312,-9.668836689546703,-0.07652536196197421,-0.0012459263671189547,0.005075238645076752,1.5059727179825304,0.0010337084531784058
1745972501628668200,12.414668212890625,0.06661055887215415,-0.004400542937219143,0.03421093100018433,-0.005672900937497616,-0.015686479444853185,0.9963571253671206,-0.026338086201001365,right,-0.0018857717514038086,-0.15417655861037827,0.6450009083077312,-9.668836689546703,-0.07652536196197421,-0.004477718845009804,0.003944680094718933,1.5059727179825304,-0.00010962784290313721
1745972501668668200,12.454668212890626,0.06661055887215415,-0.004562397487461567,0.03421093100018433,-0.00927657913416624,-0.015686479444853185,0.9963571253671206,-0.026338086201001365,right,-0.0013239383697509766,-0.15417655861037827,0.6450009083077312,-9.668836689546703,-0.07652536196197421,-0.009193897247314453,0.0031821876764297485,1.5059727179825304,0.0006352365016937256
1745972501708668200,12.494668212890625,0.06627229818512231,-0.01524215005338192,0.03406504592736605,-0.012242968194186687,-0.01591374371294287,0.9963203156894257,-0.026788038284236062,right,-0.0009010434150695801,-0.15517976769310413,0.6416298975046724,-9.667541973561049,-0.07702016214645449,-0.01890263333916664,0.0008784383535385132,1.5156934631384908,0.0006258636713027954
1745972501748668200,12.534668212890624,0.0657643673282198,-0.02699008397758007,0.03387180392187623,-0.00493812607601285,-0.016600348245394685,0.9962726804259511,-0.02816889551504169,right,-0.0015619993209838867,-0.1563336885204274,0.6366039591014385,-9.666115155628322,-0.0775756962890926,-0.030152009800076485,-0.00034849345684051514,1.526872590409219,0.0012420862913131714
1745972501788668200,12.574668212890625,0.06525472458116414,-0.03873801976442337,0.03367853100056619,0.002366716042160988,-0.017286871338756657,0.9962240709717205,-0.029550456876750366,right,-0.0022243857383728027,-0.15748686740869544,0.6315623847376555,-9.664674893692135,-0.07813115780020578,-0.04140138626098633,-0.0015738308429718018,1.5380423653297126,0.0018592774868011475
1745972501828668200,12.614668212890624,0.06486485388356597,-0.0362730473279953,0.03355240639477736,-0.015112753957509995,-0.01803147851899283,0.9961530062534925,-0.03102519400458645,right,-0.002862215042114258,-0.15911108848740646,0.6276316211599856,-9.662414547544717,-0.0789188940408636,-0.03884922340512276,0.0007098838686943054,1.5537714109897613,0.0020112544298171997
1745972501868668200,12.654668212890625,0.06432510585001812,-0.018626313656568527,0.03333359001480757,-0.002162192016839981,-0.01853693918950309,0.9960919994034307,-0.03203601088066298,right,0.0014255642890930176,-0.16062499935904737,0.6222643219731748,-9.66039327085018,-0.07966100847589838,-0.03315989673137665,0.002179555594921112,1.5684284435041247,0.0022876113653182983
1745972501908668200,12.694668212890624,0.0643576804853462,-0.004359443672001362,0.033372122730557716,0.0033623664639890194,-0.01874826822067794,0.9960476162856614,-0.032427058955346075,right,-0.0010764002799987793,-0.1616179422785759,0.6224785492457449,-9.658814477226137,-0.08014874616660471,-0.01915328949689865,0.0015950053930282593,1.5780398830667137,0.0015437602996826172
1745972501948668200,12.734668212890625,0.0645244603047801,0.005884993821382523,0.03345226738365372,0.005501948297023773,-0.01868039756484184,0.996023586569533,-0.032259956342264515,right,0.00033420324325561523,-0.16218000273230762,0.6240321353632956,-9.657823712623118,-0.08042991318886106,-0.013581736013293266,0.0015991628170013428,1.583479736033082,0.0018382817506790161
1745972501988668200,12.774668212890624,0.06486666742907547,0.011433282867074013,0.033605074219676796,-0.00024216249585151672,-0.018450510522551148,0.9960068173836769,-0.031758693497724186,right,0.0000095367431640625,-0.1625658606929045,0.6272974207695573,-9.656999536758661,-0.0806273123412782,-0.0050344280898571014,0.0011452212929725647,1.5872139541253447,0.0008217692375183105
1745972502028668200,12.814668212890625,0.06531513996237433,0.014846080914139748,0.03380721085655728,0.007956262677907944,-0.01818108805057614,0.9959882585981706,-0.03116881251468835,right,-0.0010064244270324707,-0.16296611735800615,0.6315867885265499,-9.656082421913743,-0.08083249392193806,-0.009426303207874298,0.001143231987953186,1.5910871422968804,-0.00043617188930511475
1745972502068668200,12.854668212890624,0.06568331166707216,0.020591340959072113,0.03396425502061192,0.00215792004019022,-0.017854836915460436,0.9959768975255188,-0.030475001391229828,right,-0.0009980201721191406,-0.1632445294144551,0.6351126976303756,-9.655406714609265,-0.0809795881399637,-0.0017185746692121029,0.001674853265285492,1.5937812036864458,-0.00019845366477966309
1745972502108668200,12.894668212890625,0.06606756713031457,0.025458205491304398,0.03411340253990681,0.00604668352752924,-0.017345679804256494,0.9959756263931393,-0.029418216019058713,right,-0.000644385814666748,-0.1633422841905624,0.6388125019963831,-9.655006317114829,-0.08104287904224984,-0.0019680086988955736,0.0023862794041633606,1.5947271062344313,0.0005432814359664917
1745972502148668400,12.93466845703125,0.06649600535061492,0.02443440817296505,0.03428252722829049,0.005392108578234911,-0.01682459555639293,0.9959813550208803,-0.028340005966350636,right,-0.0008761286735534668,-0.16324773684281316,0.6429591002818197,-9.654882398474216,-0.08101057065329027,0.003712100675329566,0.0017992407083511353,1.5938123294770716,0.0010020583868026733
1745972502188668200,12.974668212890625,0.06704140777532593,0.010854121297597885,0.0345198179829778,0.0028031514957547188,-0.016433034293536587,0.995985405870796,-0.027514525910842705,right,-0.0009522438049316406,-0.16308834921181373,0.6482417899250984,-9.654783614274859,-0.08094085160997945,0.0013614599592983723,0.0013115182518959045,1.5922699223406611,0.0020297765731811523
1745972502228668200,13.014668212890625,0.06704140777532593,0.0013637598603963852,0.0345198179829778,0.005157876294106245,-0.016433034293536587,0.995985405870796,-0.027514525910842705,right,-0.0004023909568786621,-0.16308834921181373,0.6482417899250984,-9.654783614274859,-0.08094085160997945,0.0014481076505035162,0.0013708323240280151,1.5922699223406611,0.000849306583404541
1745972502268668200,13.054668212890626,0.06747622678048658,0.0011563565349206328,0.03472638529242201,0.0030362699180841446,-0.016329605253784248,0.9959812043907454,-0.027272553479821448,right,0.0002173781394958496,-0.16305599807295718,0.6524432602029293,-9.654552143606542,-0.08092536566457637,0.0015506307827308774,0.0015742406249046326,1.591956910868734,-0.0008077025413513184
