time,seconds_elapsed,roll,rotationRateZ,quaternionY,rotationRateY,quaternionZ,quaternionW,yaw,devicelocation,accelerationZ,pitch,gravityX,gravityZ,quaternionX,rotationRateX,accelerationX,gravityY,accelerationY
1745972607377905200,0.5429052734375,-0.9750561151805293,-0.0432065948843956,-0.4683929073923021,0.004829695913940668,1.5358460542774955e-17,0.883472588052749,0.00859495127867899,right,-0.43853408098220825,0.016209991964283167,-8.11622555450797,-5.5019993336796755,0.009173619132531426,-0.02460695244371891,0.8043180704116821,-0.158958773405198,0.081950344145298
1745972607417905200,0.5829052734375,-0.17192895350142653,-0.008692320436239243,-0.0914701822036063,0.011193782091140747,0.1703255887136112,0.9807832286915839,0.3367692792693284,right,-0.01715373992919922,-0.08265001335553684,-1.6720260344922542,-9.629084524872898,-0.02620177493769842,-0.009392703883349895,0.14723354578018188,0.8095973770726471,-0.020355958491563797
1745972607457905200,0.6229052734375,-0.023141393909367418,0.018220210447907448,-0.017539838758047488,0.008866334334015846,0.19914193682715367,0.9794054695293758,0.4004671825643919,right,-0.00012540817260742188,-0.062419043744294994,-0.22647760926894842,-9.784931504666805,-0.02827872941688805,-0.022094503045082092,-0.0001938454806804657,0.6117244424540549,0.0043031275272369385
1745972607497905000,0.66290478515625,-0.02281263379982163,0.01586228422820568,-0.01743744121921317,0.013387203216552734,0.19946022170367095,0.9793347560253639,0.40112418067898004,right,0.00013965368270874023,-0.0629151191485078,-0.22325375185161828,-9.784700618520379,-0.02854870051051786,-0.016453010961413383,0.001970503479242325,0.6165797004655004,0.005024582147598267
1745972607537905000,0.70290478515625,-0.02248353347835894,0.013504359871149063,-0.0173350397936779,0.017908072099089622,0.19977846301298652,0.9792637476998202,0.4017813105009716,right,0.0004042983055114746,-0.06341096620561422,-0.2200266978302039,-9.784466809764504,-0.028818663140715167,-0.010811518877744675,0.0041345227509737015,0.621432620389387,0.005746297538280487
1745972607577905200,0.7429052734375,-0.02153207283906425,-0.005811445415019989,-0.017083959015157593,0.0033776622731238604,0.19986688281587464,0.9792160848170026,0.40198102652872936,right,-0.0007516145706176758,-0.06553864434684187,-0.2106881203922443,-9.783327576601504,-0.029953910014214213,-0.010951181873679161,0.0029998421669006348,0.6422546783395111,0.008730955421924591
1745972607617905200,0.7829052734375,-0.02089724112560844,-0.010176219046115875,-0.016937239158932617,0.00652696006000042,0.19966175111606185,0.9792324076195734,0.4015751979319488,right,0.0000037550926208496094,-0.06724927756070322,-0.20445404830826444,-9.78234674887061,-0.030858436739650157,-0.028202855959534645,0.002338021993637085,0.6589932663682848,0.008283518254756927
1745972607657905200,0.8229052734375,-0.020175052200966763,-0.011297335848212242,-0.0168162396280557,0.005728403106331825,0.1993865425963933,0.9792499277191845,0.4010283335074661,right,-0.0012409687042236328,-0.06967550932511642,-0.197356454730127,-9.780864401358366,-0.03212320068909046,-0.03585551679134369,0.002499036490917206,0.6827307733736931,0.007359206676483154
1745972607697905200,0.8629052734375,-0.019672145416153374,-0.01077033206820488,-0.01674605029081384,0.009430600330233574,0.19919197636105795,0.9792588929770203,0.40064253204853656,right,-0.0003745555877685547,-0.07151168323370842,-0.1924125868534669,-9.779693019491434,-0.033075722225292765,-0.03271368145942688,0.0031640343368053436,0.7006926195871085,0.0058737099170684814
1745972607737905200,0.9029052734375,-0.019169893628185636,-0.010243328288197517,-0.01667584765598262,0.013132797554135323,0.19899719420062292,0.9792671309687886,0.400257623330103,right,0.0004882216453552246,-0.07334807395270085,-0.18747571497317403,-9.77848539726734,-0.03402821748345387,-0.02957184426486492,0.0038297493010759354,0.718654246604815,0.0043882280588150024
1745972607777905000,0.94290478515625,-0.018363984634142537,-0.013763976283371449,-0.01638100534372762,0.00884866714477539,0.19874422085770913,0.9793017906713954,0.39976717134584855,right,-0.0021674633026123047,-0.07443980154656878,-0.17958057780917733,-9.777843007710576,-0.03464703744523668,-0.01719813048839569,0.002728870138525963,0.7293311965070665,0.004922032356262207
1745972607817905200,0.9829052734375,-0.017558542862607465,-0.01728462427854538,-0.0160861527328407,0.004564535804092884,0.1984911319725604,0.979335913130448,0.39927753742735084,right,-0.0048250555992126465,-0.07553192566900231,-0.1716909388042055,-9.77718191345334,-0.03526584122989477,-0.004824419505894184,0.0016285553574562073,0.7400112151492386,0.005455516278743744
1745972607857905200,1.0229052734375,-0.017201991290713894,-0.0342755950987339,-0.015958927778352675,0.0014559441478922963,0.19779576977057273,0.9794639759723723,0.3978697190320938,right,-0.0004805922508239746,-0.07626453908391487,-0.16819549790387972,-9.77669792932868,-0.03567125293407575,-0.00525001110509038,0.004603860899806023,0.747174969298765,0.01068875938653946
1745972607897905200,1.0629052734375,-0.017005733669292953,-0.048747316002845764,-0.015876348418710672,0.0015903797466307878,0.19684095617054642,0.9796475269009923,0.39592697128572957,right,0.0007890462875366211,-0.07675596111809911,-0.16627046639174223,-9.776362413764,-0.03594679846849979,0.0017269286327064037,0.005630369298160076,0.7519801045581698,0.008387573063373566
1745972607937905200,1.1029052734375,-0.016810426558186837,-0.06321904063224792,-0.01579375337425691,0.0017248152289539576,0.19588595946940582,0.9798301649571853,0.39398432194857047,right,0.00205838680267334,-0.07724778431913103,-0.16435484202876685,-9.77602397558987,-0.03622231431190805,0.008703868836164474,0.006657835096120834,0.7567889661446213,0.006085999310016632
1745972607977905200,1.1429052734375,-0.016454415605798578,-0.06923870742321014,-0.015560141419866478,0.0040369099006056786,0.19415874229069016,0.9801744565361713,0.390472535618034,right,-0.0011583566665649414,-0.07729419076243828,-0.1608738863115199,-9.776046771943568,-0.03630729917577408,0.02116389386355877,0.002255011349916458,0.7572427012614905,0.0026348382234573364
1745972608017905000,1.18290478515625,-0.016667344754243158,-0.05960279330611229,-0.01560002858828136,-0.010395929217338562,0.19289357367564353,0.9804268502125435,0.3878835786988005,right,-0.0010137557983398438,-0.07711232826238291,-0.16295777991348875,-9.776149647796153,-0.03621771380555329,0.01425559539347887,-0.00017187558114528656,0.7554645126078278,-0.000859379768371582
1745972608057905200,1.2229052734375,-0.01696557462862311,-0.04512400180101395,-0.015688287567364463,-0.005297799129039049,0.19185290411843878,0.9806338253865982,0.3857501288823252,right,0.00018417835235595703,-0.07691023567911483,-0.16587589584989473,-9.776253108170629,-0.03610662113119075,0.011501653119921684,-0.0006924308836460114,0.7534885363597422,-0.0034196972846984863
1745972608097905200,1.2629052734375,-0.017117009499543725,-0.0372895710170269,-0.015702526237678923,-0.0019634875934571028,0.1910432557439198,0.9807973585453166,0.38409373957483073,right,-0.0003123283386230469,-0.07659387811678364,-0.16736043531922623,-9.776465874138474,-0.03594997721582788,0.00909760408103466,-0.0021590087562799454,0.7503952465195208,-0.0029801875352859497
1745972608137905200,1.3029052734375,-0.017270112961338135,-0.030125709250569344,-0.015715047550277323,0.002577693434432149,0.19023253729827522,0.980960989581638,0.38243550850693836,right,0.0035099387168884277,-0.07624827972161284,-0.16886170672765,-9.776698513850569,-0.035778890882992104,-0.0004974883049726486,-0.001699596643447876,0.7470159793447703,-0.0004956275224685669
1745972608177905200,1.3429052734375,-0.017148107303897677,-0.029646458104252815,-0.015636572740563754,0.010613794438540936,0.18959473607708804,0.9810840530220248,0.3811396220464344,right,0.0017685294151306152,-0.07629654595096057,-0.1676682774256915,-9.776683316281437,-0.03582431142116164,-0.009049346670508385,-0.0007229000329971313,0.7474879807706922,0.00023408979177474976
1745972608217905200,1.3829052734375,-0.01694959733878684,-0.031943291425704956,-0.015540232654630488,0.01575700379908085,0.18905177630605133,0.9811853769853413,0.38003981995848957,right,0.0005775690078735352,-0.07651679598595823,-0.16572470560986546,-9.776551214334368,-0.035959736546804344,-0.009917921386659145,-0.0007411874830722809,0.7496415786080062,0.0010600388050079346
1745972608257905000,1.42290478515625,-0.016751324992359463,-0.03424012288451195,-0.015443887044511606,0.020900212228298187,0.188508772967813,0.9812864061271257,0.378940095129781,right,-0.0006135702133178711,-0.07673727145094625,-0.16378350841421632,-9.77641852786541,-0.036095152321269815,-0.010786496102809906,-0.0007592421025037766,0.7517973684024065,0.0018857866525650024
1745972608297905000,1.46290478515625,-0.016422153919068445,-0.054731614887714386,-0.0152878727830336,0.004846369381994009,0.18731944937064918,0.9815052021986896,0.3765280191710528,right,-0.0021014809608459473,-0.07726294954377938,-0.16055888381190597,-9.776075413516164,-0.0364025934294377,-0.0052281757816672325,0.0015328358858823776,0.756937215508893,0.0012421533465385437
1745972608337905200,1.5029052734375,-0.01671676783277769,-0.10522975027561188,-0.015220281987909302,-0.002099086530506611,0.1849590585943019,0.9819777780630157,0.3717100013211959,right,-0.0030468106269836426,-0.07591209636232833,-0.16345597522659228,-9.777041043677926,-0.0357487469598749,0.021725371479988098,0.0014254618436098099,0.7437287013024091,0.002047821879386902
1745972608377905200,1.5429052734375,-0.017004829986710573,-0.15572787821292877,-0.015152599213708472,-0.009044542908668518,0.18259750606854314,0.9824443678570578,0.366892896658823,right,-0.003993809223175049,-0.07455986410874006,-0.1662893172226846,-9.777990307226776,-0.03509468324230677,0.048678915947675705,0.0013115890324115753,0.7305053548529744,0.0028549954295158386
1745972608417905200,1.5829052734375,-0.0181980794263083,-0.2003549039363861,-0.015515699093738398,-0.03797856718301773,0.17978844740870395,0.9829825345734996,0.36113649564779937,right,-0.004841923713684082,-0.07319448402103308,-0.1779747683140449,-9.778772982037067,-0.03435974521300549,0.04383884370326996,0.00074039027094841,0.7171520253483206,0.009119801223278046
1745972608457905200,1.6229052734375,-0.020612881010820146,-0.21827958524227142,-0.01639335975463225,-0.055714935064315796,0.17542905581815793,0.9837908450970718,0.35219301260617747,right,-0.002147674560546875,-0.07140466079922565,-0.2016141487072222,-9.779582544854282,-0.03333648393909926,0.049957871437072754,0.000846274197101593,0.6996457408826798,0.004049152135848999
1745972608497905000,1.66290478515625,-0.021868423184251452,-0.1939854770898819,-0.016816982276961604,-0.021322380751371384,0.17210001240263204,0.9843889578309613,0.3453892315372855,right,-0.00022345781326293945,-0.07046105524259791,-0.21390700937351212,-9.779977097129821,-0.03281952716699221,0.027208199724555016,-0.0003369636833667755,0.6904154095921665,-0.0008226558566093445
1745972608537905000,1.70290478515625,-0.023117407870890457,-0.16969135403633118,-0.017240402060491523,0.013070177286863327,0.16876895988533927,0.9849752688712726,0.33858713934601076,right,0.0016989707946777344,-0.0695089338281693,-0.22613697913773356,-9.78035528279245,-0.032302174448762884,0.004458526149392128,-0.0015266146510839462,0.681101126345247,-0.005685895681381226
1745972608577905200,1.7429052734375,-0.022242284683556518,-0.09188432991504669,-0.016694262396846356,0.04553383216261864,0.1654171464261673,0.9855498499707624,0.3318123286546982,right,0.005195677280426025,-0.06944352839573815,-0.21757886628666892,-9.78059376772344,-0.03240053927186296,-0.009477924555540085,-0.000520041212439537,0.6804612940717488,-0.01453728973865509
1745972608617905200,1.7829052734375,-0.02049656322181852,-0.03608410060405731,-0.01579268857374261,0.049045760184526443,0.16475005808443385,0.985675409641832,0.33051731780320986,right,0.0014230012893676758,-0.0691967501861023,-0.2005077949005179,-9.781126267164945,-0.03243352165396817,-0.00652448320761323,-0.0018215440213680267,0.6780469994716346,-0.01256096363067627
1745972608657905200,1.8229052734375,-0.01875054642800295,0.019716132432222366,-0.0148910920421632,0.05255768448114395,0.1640827474905383,0.9857996284120928,0.3292218472889192,right,-0.0023528337478637695,-0.06895221572822886,-0.18343257706221192,-9.781627202424406,-0.03246645994342147,-0.0035710418596863747,-0.0031234677881002426,0.6756546975076199,-0.010586891323328018
1745972608697905200,1.8629052734375,-0.016663569046179418,0.025361938402056694,-0.013790696692823281,0.0279720239341259,0.16450899105697633,0.9857563909120017,0.33015835948382066,right,-0.005221903324127197,-0.06789094339325197,-0.1630300231657922,-9.782699800091981,-0.03210804170196666,0.018031401559710503,0.005652226507663727,0.665271469854936,0.0004980191588401794
1745972608737905200,1.9029052734375,-0.01586353961983629,0.016579050570726395,-0.0133405443719408,0.015749014914035797,0.16473342438043945,0.985735480553381,0.3306415934589759,right,-0.005370795726776123,-0.06711622205154331,-0.15521164103243498,-9.783339851561188,-0.03178874000218821,0.013044558465480804,0.0018388517200946808,0.6576913899894803,0.00504041463136673
1745972608777905000,1.94290478515625,-0.014206090297993463,-0.004413533955812454,-0.012487667347327343,0.025990664958953857,0.16487279190656182,0.9857270323204944,0.33097869930284934,right,-0.004800915718078613,-0.0666131991434123,-0.1390007301395759,-9.78391326753497,-0.03167519550049672,0.007270561531186104,0.0009316513314843178,0.6527694234173744,0.004910089075565338
1745972608817905200,1.9829052734375,-0.013742105474694628,-0.006665898486971855,-0.012185208560963242,0.011351766996085644,0.16489639567246855,0.9857398966485765,0.3310427064132729,right,-0.0026578307151794434,-0.06570356493955523,-0.13446923332293517,-9.78456617848575,-0.031264691703933825,0.024130824953317642,0.001394812949001789,0.6438684702116996,0.004231341183185577
1745972608857905200,2.0229052734375,-0.013278209274378679,-0.008918263018131256,-0.011882747387376472,-0.0032871318981051445,0.16491995145501984,0.9857525993619771,0.3311063062229236,right,-0.0005158782005310059,-0.06479391672306008,-0.129937919169385,-9.785209152564406,-0.030854184494397315,0.04099109023809433,0.0018579969182610512,0.6349668594188987,0.003552652895450592
1745972608897905200,2.0629052734375,-0.012930420550811252,-0.020235467702150345,-0.011601158570480347,0.01963263377547264,0.16464244039709844,0.9858202639624105,0.3305555395134409,right,0.0015829205513000488,-0.06355583919741888,-0.12654479699921795,-9.786032159385085,-0.03027578990802978,0.042069293558597565,0.0015117917209863663,0.622850451298058,0.0034196898341178894
1745972608937905200,2.1029052734375,-0.011746586713507753,-0.016372453421354294,-0.01087656239509128,0.030488234013319016,0.16412607175376262,0.9859344446064315,0.32954539907419444,right,-0.0013289451599121094,-0.06202033205420563,-0.11497077039307914,-9.787119954621792,-0.02962180937863883,0.037419047206640244,-0.00023508630692958832,0.6078219551227987,-0.0014340654015541077
1745972608977905200,2.1429052734375,-0.010469491976513501,-0.012479637749493122,-0.01009268067132706,0.010456418618559837,0.16365139481467064,0.9860436331526523,0.32862126888342513,right,-0.0016229748725891113,-0.06029901317263947,-0.10248240542099811,-9.788290751966834,-0.02888265511336384,0.02735290303826332,-0.001716352067887783,0.590973148185201,0.0011900849640369415
1745972609017905000,2.18290478515625,-0.010202899166757687,-0.0005348548293113708,-0.009893997814415318,0.014121833257377148,0.16370106652789954,0.9860489337764178,0.3287299652738448,right,0.00007784366607666016,-0.05945670790893634,-0.09987794941049069,-9.788811560970544,-0.02848863037341645,0.021294917911291122,-0.0006089340895414352,0.5827277362788096,0.0017619729042053223
1745972609057905200,2.2229052734375,-0.009936406735341699,0.011409927159547806,-0.009695311958547972,0.017787247896194458,0.16375072308175825,0.9860538871791424,0.3288384195173516,right,0.0017780065536499023,-0.058614356187568224,-0.09727415098710916,-9.78932535571158,-0.028094595532551545,0.015236932784318924,0.0004985472187399864,0.5744814841222018,0.0023339539766311646
1745972609097905200,2.2629052734375,-0.009444591292186588,-0.005046797916293144,-0.00946186249426447,0.008839521557092667,0.16380152011488128,0.9860453563707232,0.3289554999208569,right,-0.0017285943031311035,-0.05870465110220515,-0.09245910625504329,-9.789320095014572,-0.028178827315500872,-0.015556896105408669,0.00022159703075885773,0.5753654638824984,0.003716554492712021
1745972609137905200,2.3029052734375,-0.00896557818144428,-0.008372645825147629,-0.009264074650805,0.019111817702651024,0.1635966727421017,0.9860724102011438,0.32855392921139215,right,-0.0020050406455993652,-0.05924393857223025,-0.08776708511444739,-9.789051799467206,-0.028485811147516114,0.00276825949549675,0.0018041315488517284,0.5806448655901476,-0.005622513592243195
1745972609177905200,2.3429052734375,-0.008271134180519533,-0.0020605362951755524,-0.008900792682153536,-0.00003530704998411238,0.16341577181303157,0.9861068188970384,0.3282069460166636,right,-0.0052010416984558105,-0.05904851754746444,-0.08097005451861769,-9.789223648902773,-0.028447805194457134,0.006458860356360674,0.001690930686891079,0.5787317985104397,0.0009185783565044403
1745972609217905200,2.3829052734375,-0.008306976389608716,0.006722782738506794,-0.008927433598966526,-0.00902295857667923,0.16359148030777335,0.9860769854304171,0.3285623501067095,right,-0.003155529499053955,-0.05909646249287023,-0.08132069458719342,-9.78919266924262,-0.028466928633301504,-0.004532891791313887,0.002238820306956768,0.579201169587858,-0.0008415877819061279
1745972609257905000,2.42290478515625,-0.008306976389608716,0.015506102703511715,-0.008927433598966526,-0.018010608851909637,0.16359148030777335,0.9860769854304171,0.3285623501067095,right,-0.0011069178581237793,-0.05909646249287023,-0.08132069458719342,-9.78919266924262,-0.028466928633301504,-0.015524644404649734,0.002750955056399107,0.579201169587858,-0.002553895115852356
1745972609297905000,2.46290478515625,-0.008777996573538685,0.016687337309122086,-0.009201117449544731,-0.037919532507658005,0.16419411471169287,0.9859712655527766,0.3297712440337895,right,-0.0070424675941467285,-0.0593925459849295,-0.08593007894563488,-9.788981656840443,-0.028568832494311795,0.02181513048708439,0.0008119465783238411,0.5820996675083413,-0.010243464261293411
1745972609337905200,2.5029052734375,-0.01027418456335729,-0.008554521948099136,-0.009804510765665665,-0.04175489395856857,0.16416361156613585,0.9859967649293467,0.32966653129809825,right,-0.002031981945037842,-0.057772764671552124,-0.10058568668789229,-9.789771930435299,-0.02764793264416622,0.02665800228714943,0.0021627191454172134,0.5662422827608883,-0.003159698098897934
1745972609377905200,2.5429052734375,-0.011692198403361912,-0.019107671454548836,-0.010414160116390243,-0.0211415346711874,0.16377344500918728,0.986071629684323,0.3288365238859039,right,-0.0010040998458862305,-0.05681831947049771,-0.11447388112107292,-9.790155376794933,-0.027065289041895063,0.00641259178519249,0.004212616011500359,0.5568977139735594,0.002266213297843933
1745972609417905200,2.5829052734375,-0.012027223076296268,-0.015894101932644844,-0.010570489341471753,-0.00824394915252924,0.16347735085750154,0.9861197953904208,0.3282267830416144,right,-0.001267552375793457,-0.05681087135564672,-0.11775387090612202,-9.790120890003442,-0.027037407659570568,-0.006121166981756687,0.0026467638090252876,0.556824794867821,0.000563308596611023
1745972609457905200,2.6229052734375,-0.012025521936844355,-0.0022669369354844093,-0.010613968855563113,0.004667508415877819,0.16320942301466387,0.9861550261426812,0.3276826352109943,right,0.00004798173904418945,-0.0574454307116159,-0.11773294684910214,-9.789765500694513,-0.02735332693995467,-0.01731177419424057,0.0011661248281598091,0.5630375319028272,-0.002010636031627655
1745972609497905000,2.66290478515625,-0.011767168777568329,0.0034005315974354744,-0.010531032356069982,0.006631113588809967,0.16322923334274891,0.9861447479383765,0.3277294107850509,right,-0.0011956095695495605,-0.05798336541255773,-0.11520014043585397,-9.789491359928249,-0.02763941886675004,-0.015528235584497452,0.0016851359978318214,0.5683041106615215,-0.0017243511974811554
1745972609537905000,2.70290478515625,-0.011289934924200367,0.005971000529825687,-0.010332759977302299,0.00792101863771677,0.16336500449889635,0.9861176710518759,0.3280178169720525,right,-0.0013800859451293945,-0.058388752421342074,-0.11052564581879414,-9.789314249795675,-0.027876773730534266,-0.00635194219648838,0.0008720234036445618,0.572272868162021,0.00015304982662200928
1745972609577905200,2.7429052734375,-0.011289934924200367,-0.0007944963872432709,-0.010332759977302299,0.008463540114462376,0.16336500449889635,0.9861176710518759,0.3280178169720525,right,0.00037407875061035156,-0.058388752421342074,-0.11052564581879414,-9.789314249795675,-0.027876773730534266,0.0033614803105592728,0.0006005950272083282,0.572272868162021,0.0009350031614303589
1745972609617905200,2.7829052734375,-0.010728674938005993,-0.0024644997902214527,-0.010044484266067324,0.008964521810412407,0.16331806736549156,0.9861288368610447,0.32793854989726745,right,-0.0005809664726257324,-0.05826071485455081,-0.1050320625043474,-9.789448105308413,-0.027859883878585356,0.004916340112686157,0.0002572741359472275,0.5710193609695882,-0.00035976991057395935
1745972609657905200,2.8229052734375,-0.010167417057986173,-0.0041345031931996346,-0.009756210942056328,0.009465503506362438,0.16327110182425522,0.9861400550697228,0.3278592238021838,right,-0.0015363693237304688,-0.058132741594422686,-0.09953837872520088,-9.789578453689813,-0.027842997439610932,0.006471199449151754,-0.0000860532745718956,0.5697665113642811,-0.001654602587223053
1745972609697905200,2.8629052734375,-0.010167417057986173,-0.005804506130516529,-0.009756210942056328,0.00996648520231247,0.16327110182425522,0.9861400550697228,0.3278592238021838,right,-0.002505064010620117,-0.058132741594422686,-0.09953837872520088,-9.789578453689813,-0.027842997439610932,0.008026058785617352,0.00013081729412078857,0.5697665113642811,-0.0030771903693675995
1745972609737905200,2.9029052734375,-0.009109136100743515,-0.00009129691170528531,-0.009195764755739758,0.013407217338681221,0.16314964002346713,0.9861691265667011,0.3276427043199364,right,0.00176239013671875,-0.05769544988878172,-0.08918046817686408,-9.789926244214177,-0.027714756640415675,0.005352251697331667,0.0011270195245742798,0.5654853269137442,-0.0001755841076374054
1745972609777905000,2.94290478515625,-0.008153405580895855,-0.005690956953912973,-0.008694375067741978,0.018172435462474823,0.16304111623001613,0.986194092982233,0.32744928946839935,right,-0.002218306064605713,-0.057358312787367534,-0.0798254419276025,-9.790196877849102,-0.02762731285384627,0.0058076102286577225,0.0009235702455043793,0.5621846048679202,0.0028620250523090363
1745972609817905200,2.9829052734375,-0.007620871499030626,-0.008204743266105652,-0.008411760373548557,0.013402963988482952,0.16288944237782468,0.986222989664481,0.3271564253475809,right,-0.0009380578994750977,-0.05716193510296264,-0.0746126574490685,-9.79034826901853,-0.027575121211602445,0.00474935956299305,0.0010987110435962677,0.5602619662422686,0.0027374550700187683
1745972609857905200,3.0229052734375,-0.007620871499030626,-0.010718530043959618,-0.008411760373548557,0.008633492514491081,0.16288944237782468,0.986222989664481,0.3271564253475809,right,0.0003267526626586914,-0.05716193510296264,-0.0746126574490685,-9.79034826901853,-0.027575121211602445,0.003691108664497733,0.001805405132472515,0.5602619662422686,0.0024168305099010468
1745972609897905200,3.0629052734375,-0.006098336304767684,0.004581868648529053,-0.0075859052353667335,0.021359503269195557,0.16265464176060615,0.9862766545840729,0.32672157349783937,right,0.0003541111946105957,-0.056312009017327316,-0.059709308323706495,-9.790923438557982,-0.027281638876000932,0.023440023884177208,0.0008339877240359783,0.5519404568923637,-0.000212840735912323
1745972609937905200,3.1029052734375,-0.004949257666521533,0.011818036437034607,-0.0069534155458181755,0.033955302089452744,0.16285074440320438,0.9862583521841295,0.32714919154341576,right,0.00036400556564331055,-0.05543086784261075,-0.04846111613844987,-9.79146821295917,-0.02693906131038443,0.021241091191768646,0.0012900654692202806,0.5433128772679716,0.000570002943277359
1745972609977905200,3.1429052734375,-0.0033415265302633858,0.009553108364343643,-0.006097168474723901,0.03095080703496933,0.16312730551085702,0.9862265814449834,0.32775153127874945,right,-0.00024813413619995117,-0.05455280529866201,-0.032720594669738784,-9.79200655761957,-0.02663511748452285,0.02106165699660778,0.0011134427040815353,0.5347150717273355,-0.0016959011554718018
1745972610017905000,3.18290478515625,-0.0014826942642605064,0.004707120358943939,-0.005108672210798819,0.03413510322570801,0.16327715590813255,0.9862156803266988,0.32810223054480836,right,-0.0016030073165893555,-0.053614571625651766,-0.014519587671896442,-9.792547824889422,-0.02632316204655653,0.01560434140264988,0.0005319863557815552,0.5255275931978598,-0.001975610852241516
1745972610057905200,3.2229052734375,-0.00004814748847323158,-0.002438995521515608,-0.0043444323864147046,0.028220757842063904,0.16324296378479028,0.9862309758811946,0.32806824432080983,right,-0.0003940463066101074,-0.05292353829858249,-0.0004717257544960375,-9.792919580811262,-0.026099585889137272,0.013905473984777927,0.00046033121179789305,0.5187604736831039,-0.0014732778072357178
1745972610097905200,3.2629052734375,0.00108125420318204,-0.0017470514867454767,-0.0037540204735281336,0.027020908892154694,0.1631828790454123,0.9862461331376228,0.3279744255740006,right,0.002478957176208496,-0.05252826857793719,0.010588633439625846,-9.793118318253756,-0.025997025632608688,0.004354685544967651,0.001334398053586483,0.5148895870665088,-0.0027076564729213715
1745972610137905200,3.3029052734375,0.0023270571203001067,0.0035956071224063635,-0.003131756100610878,0.0319504477083683,0.16322267112023692,0.9862405179717458,0.3280873810309483,right,0.0011149048805236816,-0.05241308420177453,0.022789056307310238,-9.793156312176585,-0.02604169153711631,0.0011599527206271887,0.0008992061484605074,0.513761569417268,-0.0021191388368606567
1745972610177905200,3.3429052734375,0.0034113161774007904,0.0002632434479892254,-0.002581868018888444,0.023917295038700104,0.16322146283172195,0.9862423715235955,0.328112434342624,right,0.0006659030914306641,-0.05222269998949657,0.03340769330119947,-9.793223532193899,-0.02603626406185108,0.005846264772117138,0.0014881559181958437,0.5118970907196402,-0.001744534820318222
1745972610217905200,3.3829052734375,0.004412668370670251,-0.004690559580922127,-0.002058051034872191,0.02177400328218937,0.16318805466378677,0.9862517188450908,0.32806882885348027,right,-0.0008326172828674316,-0.05186191032552815,0.0432149545466993,-9.79336907814443,-0.025940115144960536,0.006338592618703842,0.002893490716814995,0.508363728961721,0.0009851343929767609
1745972610257905000,3.42290478515625,0.0054228751273416595,-0.011074485257267952,-0.0015346475096511248,0.022000744938850403,0.16300849331884662,0.986283531555309,0.32772954183132036,right,-0.0026330947875976562,-0.05160656545966373,0.0531089602106018,-9.793450326687097,-0.025896884091229377,0.005324880126863718,0.0024597393348813057,0.5058629981871694,0.0008286274969577789
1745972610297905000,3.46290478515625,0.006053913416185223,-0.009808787144720554,-0.0011913026830164938,0.01074604969471693,0.16278526055201722,0.9863237379167457,0.32729110384672905,right,-0.0004571080207824707,-0.05128172066489296,0.05928998236651532,-9.793578336980937,-0.025788385559421038,0.004550456535071135,0.0029235780239105225,0.5026815916720777,0.000420641154050827
1745972610337905200,3.5029052734375,0.006393290040723667,-0.010054604150354862,-0.0009738565078833178,0.005308095365762711,0.16253186957531487,0.9863717991128572,0.32678219212443493,right,-0.0008722543716430664,-0.050746838952930494,0.0626154004621785,-9.793825005218386,-0.0255524820707255,0.022774411365389824,0.003176609519869089,0.49744303343147034,-0.0029717721045017242
1745972610377905200,3.5429052734375,0.007086715463580101,-0.008420797064900398,-0.0005725631098404754,0.014829305931925774,0.16239195015282454,0.9864025256989796,0.32651121574172887,right,-0.001605987548828125,-0.05005991996930715,0.06940907919029705,-9.794119019728898,-0.025270137538707375,0.012527704238891602,0.002348062116652727,0.4907151864811778,0.0009653642773628235
1745972610417905200,3.5829052734375,0.007951785637260874,-0.006758950185030699,-0.00009801199111939178,0.01159200631082058,0.16224085018820705,0.9864326149135886,0.32622264860808636,right,-0.002183675765991211,-0.049515195717865626,0.07788376980791799,-9.79432126430273,-0.0250717388941914,0.010575409978628159,0.0018753614276647568,0.48537988986782726,0.00011023879051208496
1745972610457905200,3.6229052734375,0.007951785637260874,-0.0016966764815151691,-0.00009801199111939178,0.006072373129427433,0.16224085018820705,0.9864326149135886,0.32622264860808636,right,0.00017786026000976562,-0.049515195717865626,0.07788376980791799,-9.79432126430273,-0.0250717388941914,0.009297200478613377,0.0034247450530529022,0.48537988986782726,-0.0005156472325325012
1745972610497905000,3.66290478515625,0.00870292104584345,-0.006664093118160963,0.000332866888295962,0.01241481676697731,0.16211110998534925,0.9864611985964132,0.32597280834177567,right,0.00020587444305419922,-0.04880959635667239,0.08524356711935252,-9.794600081244111,-0.024784624626908513,0.018308091908693314,0.0031481459736824036,0.47846868570726364,0.00011033937335014343
1745972610537905000,3.70290478515625,0.009323629094947399,-0.011295711621642113,0.0007075986875250434,0.012233104556798935,0.1619449729322696,0.9864967635195867,0.3256446969507459,right,-0.00043523311614990234,-0.048014043503230415,0.09132665902585722,-9.794922737327218,-0.024442442859761833,0.01546790823340416,0.0035427650436758995,0.47067613213490694,0.000970151275396347
1745972610577905200,3.7429052734375,0.009819405382791604,-0.00976009014993906,0.0010068573828925986,0.0011875052005052567,0.16170178516666758,0.9865427626191289,0.32515866155912665,right,-0.0007491707801818848,-0.047411715301163566,0.09618549723387695,-9.795157715126871,-0.024185254714768695,0.015702275559306145,0.0019313115626573563,0.46477600471302866,-0.0010963529348373413
1745972610617905200,3.7829052734375,0.010044082294709851,-0.01455618068575859,0.0011531760668121438,0.0021254117600619793,0.16143315179432655,0.9865904251735386,0.32461639167428,right,-0.001879572868347168,-0.04705381835075061,0.09838791178213432,-9.795301507511734,-0.024026575473186408,0.0056310128420591354,0.0014063622802495956,0.4612701520165428,-0.0016136839985847473
1745972610657905200,3.8229052734375,0.01026445022071599,-0.013504553586244583,0.0012888001722707347,0.00039927486795932055,0.16115614155042554,0.986638156731408,0.3240579876647582,right,-0.0011895298957824707,-0.04680344539061602,0.10054765623244456,-9.795395031014085,-0.023920499841127308,0.0043913498520851135,0.0018242932856082916,0.458817534700036,-0.00041765719652175903
1745972610697905200,3.8629052734375,0.01026445022071599,-0.011233772151172161,0.0012888001722707347,-0.0008137064287438989,0.16115614155042554,0.986638156731408,0.3240579876647582,right,0.00109100341796875,-0.04680344539061602,0.10054765623244456,-9.795395031014085,-0.023920499841127308,-0.0017726500518620014,0.003368276171386242,0.458817534700036,-0.00307328999042511
1745972610737905200,3.9029052734375,0.01043042083794781,-0.00859845895320177,0.0013676039706154177,0.0010762521997094154,0.1607239294921319,0.9867061600764305,0.3231874058463507,right,-0.0009539127349853516,-0.0469710624976839,0.10217259968630969,-9.795300922989846,-0.024015967365604105,-0.0034833760000765324,0.0019684266299009323,0.4604594932207837,-0.0025330856442451477
1745972610777905000,3.94290478515625,0.010511720323935676,-0.008520396426320076,0.001419197141214595,-0.003717750310897827,0.16048415066908886,0.9867458712377244,0.32270275501858214,right,-0.001813054084777832,-0.04690060514646376,0.10296929388879798,-9.795324888387322,-0.023987397074198627,0.0010679126717150211,0.0010354472324252129,0.4597693189995363,-0.0031949691474437714
1745972610817905200,3.9829052734375,0.010511720323935676,-0.0045541515573859215,0.001419197141214595,-0.005004554055631161,0.16048415066908886,0.9867458712377244,0.32270275501858214,right,-0.00039452314376831055,-0.04690060514646376,0.10296929388879798,-9.795324888387322,-0.023987397074198627,-0.002108921529725194,0.00001848861575126648,0.4597693189995363,-0.000771746039390564
1745972610857905200,4.0229052734375,0.010511720323935676,-0.0042764064855873585,0.001419197141214595,0.0009261639788746834,0.16048415066908886,0.9867458712377244,0.32270275501858214,right,0.0015279054641723633,-0.04690060514646376,0.10296929388879798,-9.795324888387322,-0.023987397074198627,-0.008245594799518585,0.00038440339267253876,0.4597693189995363,-0.001478973776102066
1745972610897905200,4.0629052734375,0.010397151523585928,-0.003317116992548108,0.0013332066118272275,-0.00008219270966947079,0.16036918220586932,0.9867600890951188,0.3224705773568139,right,-0.00005036592483520508,-0.04730218296451596,0.1018451304307673,-9.795151285386085,-0.024176168163022958,-0.006404384970664978,0.00017239991575479507,0.46370307825189083,-0.0011601522564888
1745972610937905200,4.1029052734375,0.010397151523585928,-0.0023578274995088577,0.0013332066118272275,-0.001090549398213625,0.16036918220586932,0.9867600890951188,0.3224705773568139,right,-0.0016109347343444824,-0.04730218296451596,0.1018451304307673,-9.795151285386085,-0.024176168163022958,-0.004563175141811371,-0.00015423540025949478,0.46370307825189083,-0.0004401952028274536
1745972610977905200,4.1429052734375,0.010397151523585928,0.004089547786861658,0.0013332066118272275,0.005736530292779207,0.16036918220586932,0.9867600890951188,0.3224705773568139,right,-0.00044536590576171875,-0.04730218296451596,0.1018451304307673,-9.795151285386085,-0.024176168163022958,-0.0038105915300548077,0.00023407768458127975,0.46370307825189083,0.0014352574944496155
1745972611017905000,4.18290478515625,0.010397151523585928,0.0009981603361666203,0.0013332066118272275,0.0018223891966044903,0.16036918220586932,0.9867600890951188,0.3224705773568139,right,-0.0026026368141174316,-0.04730218296451596,0.1018451304307673,-9.795151285386085,-0.024176168163022958,-0.009256133809685707,0.001261075958609581,0.46370307825189083,0.003469616174697876
1745972611057905200,4.2229052734375,0.010241350028048902,-0.006909583229571581,0.001200194341491772,-0.008281160145998001,0.16022302949890427,0.986775300083603,0.32217724202526593,right,0.0011435747146606445,-0.048046108254260804,0.10031546404492109,-9.794819276952744,-0.02453052015116322,-0.0035299179144203663,0.0038506658747792244,0.4709902030527591,0.0007445178925991058
1745972611097905200,4.2629052734375,0.010241350028048902,-0.00950547680258751,0.001200194341491772,-0.004225932061672211,0.16022302949890427,0.986775300083603,0.32217724202526593,right,-0.0010900497436523438,-0.048046108254260804,0.10031546404492109,-9.794819276952744,-0.02453052015116322,0.00206697266548872,0.002210419625043869,0.4709902030527591,-0.00019873306155204773
1745972611137905200,4.3029052734375,0.009788874500428535,-0.010978750884532928,0.0009681924996665848,-0.012206748127937317,0.1597778080530538,0.9868455392023797,0.3212658320273887,right,-0.0004704594612121582,-0.04829506188197413,0.09588238610145636,-9.794746211716532,-0.02461665959206402,-0.0023224931210279465,0.0022546956315636635,0.47342879184391345,-0.0005981475114822388
1745972611177905200,4.3429052734375,0.009320440421062384,-0.013886119239032269,0.0006924385009700227,-0.011178049258887768,0.1595090323910627,0.9868822087358234,0.32071497388137815,right,-0.0013124942779541016,-0.048938476247697364,0.0912913319841493,-9.794483761388063,-0.024896509503495243,-0.016208389773964882,0.0020641013979911804,0.4797310703258961,-0.0030712150037288666
1745972611217905200,4.3829052734375,0.008805823192706869,-0.006989236921072006,0.0004121591161743382,-0.012287273071706295,0.15927528940698,0.9869160390961623,0.32023169218675906,right,0.0004521608352661133,-0.049344166979899254,0.08624918223163112,-9.794333539262414,-0.025055545120080337,-0.008940491825342178,0.003825575113296509,0.48370472319722174,-0.0029713772237300873
1745972611257905000,4.42290478515625,0.008446818696682143,-0.003264980623498559,0.00018951654319127682,-0.011749972589313984,0.15917546915761965,0.9869254516982094,0.3200252948805667,right,-0.000708162784576416,-0.04994739627483548,0.08273048831988125,-9.794070504412055,-0.02532458956281098,-0.015711825340986252,0.002314702607691288,0.4896131069907918,-0.0006499700248241425
1745972611297905000,4.46290478515625,0.008446818696682143,-0.003360902890563011,0.00018951654319127682,-0.002707524225115776,0.15917546915761965,0.9869254516982094,0.3200252948805667,right,-0.001999795436859131,-0.04994739627483548,0.08273048831988125,-9.794070504412055,-0.02532458956281098,-0.02185438759624958,0.0017557460814714432,0.4896131069907918,0.00045516714453697205
1745972611337905200,4.5029052734375,0.00813389251858219,-0.001698331325314939,-0.0000637702118039603,-0.010396908968687057,0.15908946301775798,0.9869236405287668,0.3198532888282675,right,-0.00009018182754516602,-0.05121604192353118,0.07966055195578374,-9.793467277821899,-0.025925695649898918,-0.016252810135483742,0.0020751571282744408,0.5020383618650958,0.0000798739492893219
1745972611377905200,4.5429052734375,0.007925274733792077,0.0006786877056583762,-0.00021340740278461977,-0.003972811624407768,0.15904189874899521,0.986923957267263,0.319756334698517,right,0.0007066726684570312,-0.05181824672160192,0.07761504500228911,-9.793179108530282,-0.026206263523482508,-0.009035441093146801,0.0027838898822665215,0.5079361146667972,0.0008098483085632324
1745972611417905200,4.5829052734375,0.007925274733792077,-0.0029360787011682987,-0.00021340740278461977,-0.006718018092215061,0.15904189874899521,0.986923957267263,0.319756334698517,right,-0.00010585784912109375,-0.05181824672160192,0.07761504500228911,-9.793179108530282,-0.026206263523482508,-0.0019431435503065586,0.0018253447487950325,0.5079361146667972,0.00089302659034729
1745972611457905200,4.6229052734375,0.007426254846953308,-0.002622972708195448,-0.00048290420469022715,-0.013473354279994965,0.1589317541394908,0.9869382817088742,0.31952249055920906,right,-0.001379549503326416,-0.052148917154322995,0.07272679347011726,-9.793048175626993,-0.026329805585037173,-0.005103122442960739,0.0020129219628870487,0.5111745120661333,-0.0004537329077720642
1745972611497905000,4.66290478515625,0.0070160829526432385,0.0015297867357730865,-0.0007204871147356453,-0.008622175082564354,0.1589262395391729,0.9869340716198339,0.3195038374803405,right,0.0002950429916381836,-0.05259416700446378,0.06870834704241716,-9.79284885366261,-0.026516925523721424,-0.012137005105614662,0.0006395853124558926,0.5155349357653409,-0.0005897320806980133
1745972611537905000,4.70290478515625,0.0070160829526432385,0.0010013668797910213,-0.0007204871147356453,-0.015057437121868134,0.1589262395391729,0.9869340716198339,0.3195038374803405,right,-0.003368556499481201,-0.05259416700446378,0.06870834704241716,-9.79284885366261,-0.026516925523721424,-0.024817921221256256,-0.00031406106427311897,0.5155349357653409,0.0017110928893089294
1745972611577905200,4.7429052734375,0.006191294755480572,-0.0009588345419615507,-0.0012533338592604492,-0.005189922638237476,0.159019131215835,0.9868995456080645,0.3196814353840397,right,0.0020343661308288574,-0.0541457254179614,0.06062627703815233,-9.792090728771687,-0.02721688563474074,-0.026078134775161743,0.0016510463319718838,0.5307288516353815,-0.000901736319065094
1745972611617905200,4.7829052734375,0.006191294755480572,-0.0022487409878522158,-0.0012533338592604492,-0.00468015018850565,0.159019131215835,0.9868995456080645,0.3196814353840397,right,-0.00010687112808227539,-0.0541457254179614,0.06062627703815233,-9.792090728771687,-0.02721688563474074,-0.012382719665765762,0.0029197647236287594,0.5307288516353815,0.0014639049768447876
1745972611657905200,4.8229052734375,0.005759805395169252,-0.009984271600842476,-0.001569652890697909,-0.004723863676190376,0.15889609620513886,0.986901254211835,0.3194299732523091,right,-0.0009584426879882812,-0.05548887983886244,0.056396927806129676,-9.79139397867918,-0.027845534375808244,-0.028214000165462494,0.002151953522115946,0.5438809229468926,0.0025976859033107758
1745972611697905200,4.8629052734375,0.005570535150809237,-0.012761605903506279,-0.0017517739651242324,-0.007514874450862408,0.15864235809991087,0.986925193635022,0.3189192371763864,right,0.0002605319023132324,-0.0566958476331416,0.05454001136044971,-9.7907410677284,-0.028426504731423514,-0.028665650635957718,0.0014007696881890297,0.5556986038494854,0.00020415708422660828
1745972611737905200,4.9029052734375,0.0054273599420471205,-0.00917893834412098,-0.0018960261211637614,-0.0014823712408542633,0.15838808848279826,0.9869514891247945,0.3184073135092148,right,0.0010390877723693848,-0.05771606349427855,0.05313511756516527,-9.790176419582963,-0.028919055360979006,-0.019929315894842148,0.0015325089916586876,0.5656871330961585,-0.0007352679967880249
1745972611777905000,4.94290478515625,0.005455841793374759,-0.003951471298933029,-0.0019290899816592094,-0.0013616031501442194,0.1582269112148952,0.9869677755772435,0.3180863854378024,right,-0.0006382465362548828,-0.058369671407045486,0.05341192977912724,-9.789803494617342,-0.029244148672968324,-0.010400635190308094,0.0018710168078541756,0.572086076885648,-0.0001933649182319641
1745972611817905200,4.9829052734375,0.005455841793374759,-0.0013974704779684544,-0.0019290899816592094,-0.005543897859752178,0.1582269112148952,0.9869677755772435,0.3180863854378024,right,0.0013469457626342773,-0.058369671407045486,0.05341192977912724,-9.789803494617342,-0.029244148672968324,-0.01049793604761362,0.0024199392646551132,0.572086076885648,-0.0006077326834201813
1745972611857905200,5.0229052734375,0.005455841793374759,0.003919631242752075,-0.0019290899816592094,-0.005555570125579834,0.1582269112148952,0.9869677755772435,0.3180863854378024,right,0.0016983747482299805,-0.058369671407045486,0.05341192977912724,-9.789803494617342,-0.029244148672968324,-0.004738240968436003,0.0023331381380558014,0.572086076885648,-0.0005445405840873718
1745972611897905200,5.0629052734375,0.004956589795467124,0.005255573429167271,-0.002254006186022204,-0.005392258521169424,0.158354939177945,0.986933720985629,0.3183378146973427,right,-0.0015390515327453613,-0.059314410533592966,0.04852164155349601,-9.78928385465741,-0.029670569256418804,-0.01412610337138176,0.0007126573473215103,0.5813347475504502,0.0006206072866916656
1745972611937905200,5.1029052734375,0.0047360687174805936,0.004864324815571308,-0.0024223507272153467,-0.007527901791036129,0.15849709339293486,0.986900748139242,0.31862428529925274,right,-0.0009541511535644531,-0.06001132561681306,0.04636097008800134,-9.788886964294313,-0.029996654032923634,-0.018575752153992653,0.0006116540171205997,0.5881569947859272,0.0008750632405281067
1745972611977905200,5.1429052734375,0.004462520297455712,0.0044416990131139755,-0.002636542700801202,-0.008378484286367893,0.158612922547336,0.986867809351172,0.3188574655843541,right,0.0007209181785583496,-0.06096521829288739,0.04368070889492519,-9.788333422064781,-0.030445354363849444,-0.02443944476544857,0.0014371569268405437,0.5974943666474893,0.0018039382994174957
1745972612017905000,5.18290478515625,0.004497709794794709,0.00019082333892583847,-0.002707213554019491,0.007078814320266247,0.15863843210944104,0.9868465184193579,0.3189181272497793,right,0.0008693337440490723,-0.062062484214690294,0.044022179276356474,-9.787670574241876,-0.030989476564544215,-0.026101771742105484,0.0023388401605188847,0.608234517979063,0.0022135190665721893
1745972612057905200,5.2229052734375,0.004975775232476849,-0.009024204686284065,-0.0025609507900249888,0.011341603472828865,0.15853288371370378,0.9868444860989544,0.3187280436626605,right,-0.0013908743858337402,-0.06322924326686252,0.04869775617222767,-9.786932323095202,-0.03160332334441499,-0.024904225021600723,0.002136227209120989,0.6196540664095431,0.002166934311389923
1745972612097905200,5.2629052734375,0.005499489858165063,-0.008663887158036232,-0.0023708701737268066,0.009785082191228867,0.15830384496823438,0.9868651370855501,0.3182880927606059,right,-0.0020714402198791504,-0.06417942619470136,0.05382004935571458,-9.786312145370244,-0.032114185613783215,-0.01316159125417471,0.0013988767750561237,0.6289532982178032,-0.0011239498853683472
1745972612137905200,5.3029052734375,0.005804317720429539,-0.0008687488734722137,-0.002254537113214481,0.0005463585257530212,0.158219888859966,0.9868706749636974,0.3181316117464126,right,-0.0005953311920166016,-0.06464145642798545,0.056801494585606266,-9.78600351781249,-0.03236646130529063,-0.005184061825275421,0.0021267286501824856,0.6334748672954738,-0.0007677152752876282
1745972612177905200,5.3429052734375,0.00599999962857281,-0.0031483019702136517,-0.0021917820050759286,0.0011846362613141537,0.15818991791575193,0.9868680544382408,0.3180808919885739,right,0.0002162456512451172,-0.06507866311844177,0.05871476716129109,-9.785714179477095,-0.032597721506204935,-0.012228408828377724,0.0021480941213667393,0.6377533483322709,-0.00013083964586257935
1745972612217905200,5.3829052734375,0.0063147793828747766,-0.0009505136404186487,-0.0020764816076563764,0.0008862452814355493,0.15818093671078676,0.9868606089517896,0.31807733524703996,right,-0.0013790726661682129,-0.0655847744540432,0.06179306492835748,-9.785371649649738,-0.03287234643294311,-0.014538804069161415,0.0020710048265755177,0.6427060753688216,-0.0006675049662590027
1745972612257905000,5.42290478515625,0.0063147793828747766,-0.002809269353747368,-0.0020764816076563764,0.0017380721401423216,0.15818093671078676,0.9868606089517896,0.31807733524703996,right,-0.0017766356468200684,-0.0655847744540432,0.06179306492835748,-9.785371649649738,-0.03287234643294311,-0.008530860766768456,0.00034014787524938583,0.6427060753688216,-0.0026620402932167053
1745972612297905000,5.46290478515625,0.0063147793828747766,0.003730212803930044,-0.0020764816076563764,0.0034180013462901115,0.15818093671078676,0.9868606089517896,0.31807733524703996,right,0.00021642446517944336,-0.0655847744540432,0.06179306492835748,-9.785371649649738,-0.03287234643294311,-0.014011956751346588,0.0004433724097907543,0.6427060753688216,0.0021635442972183228
1745972612337905200,5.5029052734375,0.006748238133682338,0.003296824172139168,-0.0019966604014893603,0.01056674961000681,0.1582221176343866,0.9868251687061393,0.31818974680330286,right,-0.0002263188362121582,-0.06725360055963346,0.06602728669831995,-9.784257550927997,-0.03372992700778912,-0.03863164037466049,0.0005065579898655415,0.6590355711400508,0.004180096089839935
1745972612377905200,5.5429052734375,0.007175299209714691,-0.0021028975024819374,-0.0019075305851022947,0.011772402562201023,0.15823674194416257,0.9867959424328221,0.3182477831378513,right,0.0015717148780822754,-0.06877565947918474,0.07019847600231878,-9.783214179354905,-0.03451461813429885,-0.03091111220419407,0.0013060187920928001,0.6739273622583597,0.0004159659147262573
1745972612417905200,5.5829052734375,0.007175299209714691,-0.001628124970011413,-0.0019075305851022947,0.011040505021810532,0.15823674194416257,0.9867959424328221,0.3182477831378513,right,0.0005959272384643555,-0.06877565947918474,0.07019847600231878,-9.783214179354905,-0.03451461813429885,0.0009790044277906418,0.002438965253531933,0.6739273622583597,0.0007064417004585266
1745972612457905200,5.6229052734375,0.008068994840288658,0.00006961345206946135,-0.0014688861024362886,0.01139926165342331,0.1581779726718187,0.9868027953881737,0.31816041979920817,right,-0.0016052722930908203,-0.06882379946970837,0.07894139823522418,-9.78311481063366,-0.03460913805632412,0.018297424539923668,0.0025546597316861153,0.6743983407709747,0.003324739634990692
1745972612497905000,5.66290478515625,0.008068994840288658,-0.0005103282746858895,-0.0014688861024362886,0.011658133938908577,0.1581779726718187,0.9868027953881737,0.31816041979920817,right,-0.0007887482643127441,-0.06882379946970837,0.07894139823522418,-9.78311481063366,-0.03460913805632412,0.002781100571155548,0.0037100613117218018,0.6743983407709747,0.002198748290538788
1745972612537905000,5.70290478515625,0.008730391112713625,-0.0013072078581899405,-0.0010942088239828775,0.0053086960688233376,0.15809411099724416,0.9868247921862422,0.31800796210358273,right,0.001954197883605957,-0.0682467139221993,0.08541527955760247,-9.78344798811078,-0.03437680784121471,0.015064192935824394,0.0035803215578198433,0.6687522977080196,-0.0024162977933883667
1745972612577905200,5.7429052734375,0.009046193414558515,0.00938253290951252,-0.0008893951971434771,-0.0012261583469808102,0.1582056156145172,0.9868177139091969,0.31823829613925886,right,-0.0033701658248901367,-0.06757854754430397,0.08850893472400494,-9.783865336740016,-0.03407200070953256,0.01874445006251335,-0.0000010617077350616455,0.6622149318285286,0.0019984468817710876
1745972612617905200,5.7829052734375,0.008602628613384658,-0.0014095557853579521,-0.0011643573789960014,-0.008383138105273247,0.15849069954498074,0.9867629689287655,0.3188065124059368,right,0.0006832480430603027,-0.06816343099165809,0.08416580008631572,-9.783514623606205,-0.03432515287869897,-0.06336815655231476,0.005189685150980949,0.6679374741937965,0.009529456496238708
1745972612657905200,5.8229052734375,0.008416753716668803,0.008823524229228497,-0.0011592083403564079,-0.0014193346723914146,0.15835191358849818,0.9868053615011363,0.31850758691797976,right,0.001062631607055664,-0.0670069154037929,0.08235373656251467,-9.784296129372715,-0.03374001644577814,0.04207352548837662,0.004343229345977306,0.6566218610618263,0.012381397187709808
1745972612697905200,5.8629052734375,0.008231237481370519,0.01905660331249237,-0.0011540588279903498,0.005544470157474279,0.15821303166530468,0.9868474308441438,0.3182088308597214,right,0.0014407038688659668,-0.06585034968000358,0.08054478744440711,-9.785064191135763,-0.033154869162200826,0.1475152224302292,0.0034964559599757195,0.6453048596903681,0.015233471989631653
1745972612737905200,5.9029052734375,0.008449584482552244,-0.020412050187587738,-0.0008419071545206213,0.00009614229202270508,0.15825045662116344,0.9868834501054662,0.31826767887881874,right,-0.014852941036224365,-0.06325891905110319,0.08269517954448237,-9.786685654857754,-0.03189346860689303,-0.02019447088241577,0.00009020604193210602,0.6199445007234812,0.025270193815231323
1745972612777905000,5.94290478515625,0.008280749706090064,-0.042610034346580505,-0.0010643287567814986,-0.0051404922269284725,0.15758575662531177,0.986957081198791,0.3169340708261433,right,-0.0005745887756347656,-0.06529079709037054,0.08103224216778762,-9.785419580444692,-0.03288338176691274,-0.025845378637313843,0.0019799266010522842,0.6398292778234929,-0.018157288432121277
1745972612817905200,5.9829052734375,0.008239322196346852,-0.001554872840642929,-0.0010141914295697613,0.010221552103757858,0.157106881613933,0.9870448740672092,0.3159558775919127,right,0.006864070892333984,-0.06459816643765744,0.0806304929664824,-9.785863817080855,-0.03253883252709133,0.08629640936851501,-0.0020807376131415367,0.6330512350559234,0.000028975307941436768
1745972612857905200,6.0229052734375,0.008106802554238299,-0.01572464033961296,-0.0009792386440462114,-0.003385670483112335,0.15684177000272492,0.9871061753990379,0.31540370623650615,right,-0.004950165748596191,-0.0634348817838998,0.07933958550626412,-9.786603821793198,-0.03195460497396059,-0.03738364577293396,0.0008112993091344833,0.6216666483409703,0.015613235533237457
1745972612897905200,6.0629052734375,0.007784997284372972,-0.042229875922203064,-0.0012943450380190496,0.0016020913608372211,0.15608137475199307,0.9871894892005333,0.3138735292436439,right,0.007448077201843262,-0.06574667410335026,0.07617881078724749,-9.78516589794457,-0.033071296026168234,-0.014047350734472275,0.004391836933791637,0.6442903488855809,-0.025897633284330368
1745972612937905200,6.1029052734375,0.00829190937482313,-0.025296960026025772,-0.0008218661872934612,0.026162749156355858,0.15530158486923862,0.9873525986964163,0.3122875691003744,right,0.005832552909851074,-0.06322658357524814,0.08115222441880032,-9.786718388083576,-0.03186763880527627,0.1525041162967682,0.0016248701140284538,0.619628055185452,-0.006676621735095978
1745972612977905200,6.1429052734375,0.00845949335522161,-0.049511346966028214,-0.00034386456422417843,-0.024745887145400047,0.15469877889299974,0.987521415646356,0.31102841615707855,right,-0.015804946422576904,-0.05838351732641881,0.0828167326980736,-9.789590728649497,-0.029489975195448985,0.041970960795879364,0.0012465305626392365,0.5722216128988191,0.031525056809186935
1745972613017905000,6.18290478515625,0.007807906836143854,-0.07362072914838791,-0.0006335101447121358,-0.012503239326179028,0.153435785787677,0.9877186465303575,0.30845196792243024,right,-0.00016617774963378906,-0.05845956791202079,0.07643761242048348,-9.789598911955952,-0.029477964069649254,-0.016157187521457672,0.0021146852523088455,0.5729661476558074,-0.012228123843669891
1745972613057905200,6.2229052734375,0.00805852591567702,-0.07361343502998352,-0.00038720206183534675,0.024702806025743484,0.15189347579491852,0.9879712403147629,0.305328318546759,right,0.007594466209411621,-0.05745422554560929,0.07889567766366526,-9.790150700619817,-0.02900134751131986,0.10709857195615768,0.0024071065708994865,0.5631236392837018,-0.012290433049201965
1745972613097905200,6.2629052734375,0.008869350047146736,-0.0720958262681961,0.000385144895031917,-0.030232500284910202,0.15063295173066735,0.9882243213748965,0.3027622638038275,right,-0.015343427658081055,-0.05301950203001893,0.08685503003713674,-9.792484696525335,-0.026871781620403313,0.08271505683660507,0.0016142260283231735,0.5197002387512475,0.022211432456970215
1745972613137905200,6.3029052734375,0.008773357107461605,-0.0844963788986206,0.0004569161504616079,0.015011824667453766,0.14913944185547956,0.9884650643333706,0.29972864227534124,right,-0.0047188401222229,-0.05196900357119182,0.08591976761417464,-9.793033562579751,-0.026344837194568572,-0.024504289031028748,0.003828759305179119,0.5094125438949093,0.0011704005300998688
1745972613177905200,6.3429052734375,0.009545879333325314,-0.07956945896148682,0.0008806981201248166,0.023347754031419754,0.14755460949794044,0.9887010461169242,0.2965429798931373,right,0.001812577247619629,-0.05197004404629411,0.09348507003560662,-9.792963419952988,-0.026401587899212854,0.050230927765369415,0.0023123864084482193,0.5094227364953607,-0.015384308993816376
1745972613217905200,6.3829052734375,0.010512063345328093,-0.029368054121732712,0.0016125109917889504,-0.004670673981308937,0.14654353031487652,0.9888883325252915,0.2944958503863533,right,-0.013392150402069092,-0.04887623543716178,0.10296290068062953,-9.79439783667028,-0.024941837355882967,0.0768178403377533,-0.0032713073305785656,0.479121413994953,0.0074836090207099915
1745972613257905000,6.42290478515625,0.009509948574368748,-0.03217235952615738,0.0011907713673503675,-0.02868049219250679,0.14597919799196182,0.9889843072460585,0.29332258889298096,right,-0.002207815647125244,-0.048066940906499225,0.09315139936814085,-9.79488065175116,-0.024467572015492857,-0.037297360599040985,0.00016940385103225708,0.471194274257496,0.0016425438225269318
1745972613297905000,6.46290478515625,0.008677330791307447,-0.03025452233850956,0.0007439432775200975,0.0090520940721035,0.14540821628925754,0.9890620321620107,0.29215274096547345,right,0.010723710060119629,-0.048745170590924834,0.08499318168801255,-9.794632814469933,-0.024741734284865567,0.02835187315940857,0.000798417255282402,0.47783762126211077,-0.021673405542969704
1745972613337905200,6.5029052734375,0.009162184469010536,-0.03727681562304497,0.0012057666139014037,0.014668798074126244,0.14475885900717492,0.9891901532982099,0.2908290437466929,right,0.0006142258644104004,-0.045907994137593916,0.08975419467790052,-9.79590648766756,-0.023373140625225074,0.10643628984689713,-0.006148874759674072,0.45004561470150944,0.0021517127752304077
1745972613377905200,6.5429052734375,0.00922069186181833,-0.07706767320632935,0.00149993867414001,0.00036096014082431793,0.14371595102846282,0.9893793716173975,0.2886958364655707,right,0.0009459257125854492,-0.042568423624461914,0.09034068019581026,-9.797349672213196,-0.021724072728325088,0.03071751445531845,-0.0006876364350318909,0.41732765951342876,0.02043786272406578
1745972613417905200,6.5829052734375,0.009608804900185482,-0.0991770327091217,0.0017398267515285441,0.024141402915120125,0.14189940707706947,0.989641809994448,0.2850318647159091,right,0.0007076859474182129,-0.04245517685615231,0.09414360700957476,-9.7973607781291,-0.021692790516830176,-0.00736222043633461,0.00022076163440942764,0.4162180908363312,0.001513466238975525
1745972613457905200,6.6229052734375,0.010307054927310672,-0.10812167823314667,0.0020747876497028213,0.02853059396147728,0.13971776447630183,0.9899413784218793,0.28064571906293756,right,0.00183027982711792,-0.04328733057999051,0.1009809878821019,-9.796943429499864,-0.02214958562394712,-0.009272262454032898,0.0033360300585627556,0.4243712213493883,0.005187436938285828
1745972613497905000,6.66290478515625,0.010541159009430794,-0.10281610488891602,0.002179930135207032,0.0064542703330516815,0.13748686005486346,0.9902433943041011,0.2761518374972145,right,-0.0018426179885864258,-0.04416641313991008,0.10327051445823163,-9.796542447483539,-0.022596201734506608,-0.017836039885878563,0.008681613951921463,0.4329838226003572,0.002638712525367737
1745972613537905000,6.70290478515625,0.010671988523650604,-0.06632733345031738,0.002244363544253034,0.002328387461602688,0.13571296064117933,0.9904809491981452,0.2725775257536688,right,-0.009439826011657715,-0.04476573021460378,0.10454940268709324,-9.796267722195386,-0.022897946021836806,0.0032024364918470383,0.00276804156601429,0.4388553084496408,-0.010283254086971283
1745972613577905200,6.7429052734375,0.009545440432061207,-0.04566171020269394,0.0016992535219366378,-0.04759887978434563,0.13467897520145597,0.9906230695839616,0.27046515215417405,right,0.00004225969314575195,-0.04493327726147766,0.09351267042858526,-9.796305716118216,-0.02290269002586764,-0.024494538083672523,0.008965662680566311,0.44049675551373507,0.004583235830068588
1745972613617905200,6.7829052734375,0.00858216373195148,-0.05017746612429619,0.001151180938313513,0.023328747600317,0.13374496360895297,0.990735859485362,0.2685675224501913,right,0.014060676097869873,-0.04631624617279825,0.08407076961346902,-9.795772632154822,-0.02352171734141097,-0.034467607736587524,0.015278715640306473,0.45404491347074505,-0.007344760000705719
1745972613657905200,6.8229052734375,0.010500267693148081,-0.02642817050218582,0.002121675586988904,0.04387560486793518,0.13303887521223998,0.9908270545944704,0.26718737413510585,right,-0.001762688159942627,-0.046256100653262966,0.10286019835798069,-9.795620656463504,-0.023618722225871375,0.02672332152724266,0.013113977387547493,0.453455715405941,-0.014631494879722595
1745972613697905200,6.8629052734375,0.011609377671565651,-0.04799170047044754,0.00278497428101462,0.012249000370502472,0.13232742358720845,0.9909360212511338,0.2657648972053674,right,0.0029726624488830566,-0.04479319339712423,0.11373213197621516,-9.796153155905008,-0.02296579789071196,0.03933928534388542,0.013956237584352493,0.4391243711819872,-0.0009933523833751678
1745972613737905200,6.9029052734375,0.012811347423682281,-0.08436677604913712,0.0035635858899227602,0.016927506774663925,0.1308995984802746,0.9911471504061953,0.26289006419384164,right,-0.0060765743255615234,-0.0425068401777312,0.12551926247691736,-9.79698785316348,-0.02190743563718837,0.06261593848466873,0.005909780040383339,0.41672425026018173,-0.003162641078233719
1745972613777905000,6.94290478515625,0.012790068895051363,-0.10110165178775787,0.003713773607546086,-0.03754089027643204,0.12902375169541325,0.9914124234588495,0.2590880767838484,right,-0.01240086555480957,-0.04066443558113484,0.12532040630341507,-9.797741301879286,-0.020985998579983997,0.004107993096113205,0.003000253811478615,0.39867205888219176,0.011936187744140625
1745972613817905200,6.9829052734375,0.011201390573493886,-0.12241446226835251,0.002860375082794432,-0.03803524002432823,0.1267589642433116,0.9916906459877922,0.2545012347409502,right,0.0010781288146972656,-0.042456129913385605,0.10974661513715982,-9.797198281043768,-0.021765120459520296,-0.06492350995540619,0.0015422152355313301,0.4162274066539481,0.006749384105205536
1745972613857905200,7.0229052734375,0.009982769224590697,-0.10675048828125,0.0022439946533384077,-0.04265480116009712,0.12454946692818836,0.991963180402469,0.2500266083018966,right,-0.0019227266311645508,-0.043428346639629196,0.09780337162613868,-9.79691537244916,-0.02216497262211896,-0.012432806193828583,-0.004973812960088253,0.4257528119008988,-0.002958349883556366
1745972613897905200,7.0629052734375,0.00875975511294576,-0.09108651429414749,0.0016276018962525785,-0.047274358570575714,0.12233929020245421,0.9922304648452384,0.2455506680345852,right,-0.0049256086349487305,-0.04439511664937812,0.08581789640858768,-9.796611421066522,-0.02256470434202591,0.04005790129303932,-0.011485534720122814,0.43522444113399833,-0.012660596519708633
1745972613937905200,7.1029052734375,0.006935027137907539,-0.060636259615421295,0.0008779674943612829,-0.0330546572804451,0.12079263528647131,0.9924451756245581,0.24237990500484832,right,0.005906164646148682,-0.042409884740801616,0.0679474639388267,-9.797596340450644,-0.021466816448559897,0.059651874005794525,-0.008147381246089935,0.41577429259158666,-0.013489548116922379
1745972613977905200,7.1429052734375,0.006837255562993468,-0.019561152905225754,0.0009990004689590928,0.022019438445568085,0.12001156793838569,0.9925663698506125,0.24078884032259446,right,0.005252361297607422,-0.03987172202617124,0.06699653815585188,-9.798626852542162,-0.020200634907756386,0.06129855662584305,-0.010124413296580315,0.39090449362061913,-0.016317525878548622
1745972614017905000,7.18290478515625,0.008111177173964111,0.01918988674879074,0.0017631753263013877,0.04036746546626091,0.12004381188326575,0.9925816809408428,0.24086566018252675,right,-0.0005280375480651855,-0.037663206352989635,0.0794859717070125,-9.79937328699529,-0.01918110114911396,0.03557956591248512,-0.004315739031881094,0.36926264372020956,-0.011147143319249153
1745972614057905200,7.2229052734375,0.009558938988834299,0.03891541808843613,0.0025620778664876124,0.041453685611486435,0.12068890601758854,0.992514574260379,0.242182775144386,right,-0.000820159912109375,-0.03612290071498234,0.09367836411800234,-9.79980466414988,-0.018505256757920287,0.025063496083021164,0.001476675271987915,0.3541676947126165,-0.003561444580554962
1745972614097905200,7.2629052734375,0.010652420643243772,0.027830302715301514,0.0031242444654021573,0.031711604446172714,0.12129273563076082,0.9924427923953061,0.24341618184156064,right,-0.0011089444160461426,-0.0356129905911981,0.10439613008783198,-9.799875975820422,-0.018320128756517996,0.011139767244458199,0.004132645204663277,0.34917039788197723,-0.0008788257837295532
1745972614137905200,7.3029052734375,0.01174525119319231,0.01674518547952175,0.003686408943805681,0.021969523280858994,0.12189645853400605,0.9923702068729789,0.244648946923756,right,-0.0013990998268127441,-0.03510172923705067,0.11510774944466538,-9.799933258965611,-0.01813498707336225,-0.002783963456749916,0.006789238192141056,0.3441597666457295,0.0018051490187644958
1745972614177905200,7.3429052734375,0.01283743457475231,0.005660070106387138,0.004248570961332307,0.012227444909512997,0.12250014670235725,0.9922970601154198,0.2458812750129283,right,-0.0016908049583435059,-0.03458913061268831,0.1258132495879661,-9.799976513585447,-0.017949834011745477,-0.01670769415795803,0.009446456097066402,0.33913594713434575,0.004490472376346588
1745972614217905200,7.3829052734375,0.013417775537788262,0.014150513336062431,0.004460507621510678,0.004163138568401337,0.12276283698251286,0.9922524810176211,0.2464315273673883,right,-0.001412510871887207,-0.035744420616129244,0.13149521334767342,-9.799503635376691,-0.01855978160268103,-0.01767667569220066,0.007265474647283554,0.35045846493113786,0.001181863248348236
1745972614257905000,7.42290478515625,0.013998772241617035,0.022640958428382874,0.004672441002069468,-0.0039011677727103233,0.1230254401282653,0.992207312276759,0.24698239269031722,right,-0.00113600492477417,-0.036899383952346286,0.13718291272842326,-9.799014390555024,-0.01916971825902854,-0.01864565722644329,0.005083908326923847,0.3617772929335013,-0.002126365900039673
1745972614297905000,7.46290478515625,0.014580433387284633,0.031131401658058167,0.004884372878500687,-0.011965475045144558,0.12328797571513835,0.9921617679070244,0.24753396384825607,right,-0.000861048698425293,-0.038054034426754514,0.1428764116622973,-9.798508779120445,-0.019779647255757166,-0.01961463876068592,0.0029017524793744087,0.37309261380452663,-0.0054342374205589294
1745972614337905200,7.5029052734375,0.014198056180966367,0.0254964716732502,0.004683519070062953,-0.008019546046853065,0.12393013905084653,0.9920833090594341,0.2488206145515199,right,-0.000354766845703125,-0.03802912464969212,0.13912980901249683,-9.798571907484531,-0.019746737454635753,-0.013096680864691734,0.001912965439260006,0.37284850285034626,-0.0034260377287864685
1745972614377905200,7.5429052734375,0.013815650508793879,0.01986154168844223,0.004482663348127443,-0.00407361751422286,0.12457225881935304,0.9920045553903122,0.25010733987218525,right,0.0001513957977294922,-0.038004715996920305,0.13538289583544247,-9.798633282282948,-0.019713820215831374,-0.0065787239000201225,0.0009242082014679909,0.3726093237996101,-0.0014183372259140015
1745972614417905200,7.5829052734375,0.01343320800117413,0.014226609840989113,0.004281805165314334,-0.0001276899129152298,0.1252142390539471,0.9919251836702951,0.2513938657352296,right,0.0006573796272277832,-0.0379807888876219,0.13163558993274346,-9.798693488037586,-0.019680891598567195,-0.00006076693534851074,-0.0000645071268081665,0.3723748209239915,0.0005888864398002625
1745972614457905200,7.6229052734375,0.013621144535736486,-0.006484132260084152,0.004343597906072009,0.005571107845753431,0.1253504364555174,0.991902948304457,0.2516764167370462,right,0.0005936622619628906,-0.03843671897681779,0.1334747880586423,-9.79849767320454,-0.01991938790383854,-0.02498251013457775,0.003310668282210827,0.37684272358566523,0.005301300436258316
1745972614497905000,7.66290478515625,0.014082851839307235,-0.023143937811255455,0.00450530989969941,0.0013547292910516262,0.12481374390498194,0.9919568195872559,0.25061542425163,right,-0.00274735689163208,-0.03968149499921983,0.13799210108630358,-9.79795874402225,-0.02056325956906963,-0.02584136091172695,0.003517717123031616,0.3890404898470267,0.0033200718462467194
1745972614537905000,7.70290478515625,0.014543256515575193,-0.03980374336242676,0.004667017997326929,-0.002861649263650179,0.12427691623668773,0.9920099396123099,0.24955485782521414,right,-0.006090104579925537,-0.040926755522670714,0.14249596097734757,-9.797401694661378,-0.021207114277578282,-0.026700211688876152,0.003726135939359665,0.4012424208268523,0.0013384148478507996
1745972614577905200,7.7429052734375,0.01339403512840533,-0.027582157403230667,0.004042587807671212,-0.027285665273666382,0.12370869115666343,0.9920737004861573,0.24839474274167606,right,-0.004258513450622559,-0.042002178573154324,0.13123062586104497,-9.797122293198107,-0.021666755309087595,-0.024645082652568817,0.003176448866724968,0.41177963346485047,-0.0006771869957447052
1745972614617905200,7.7829052734375,0.012243515867094417,-0.015360570512712002,0.0034181533126447974,-0.05170968174934387,0.12314038335838966,0.9921367385100912,0.24723345151344123,right,-0.002429187297821045,-0.04307628335558917,0.11995328064654022,-9.796818341815472,-0.022126379605810043,-0.022589951753616333,0.002627984620630741,0.422303475164622,-0.0026914291083812714
1745972614657905200,7.8229052734375,0.010572454996602355,0.004260574467480183,0.0025394866209055857,-0.03650067001581192,0.12310608546471903,0.99213672162316,0.2471337003357678,right,-0.00008344650268554688,-0.04390010806608175,0.1035783291652333,-9.79665409116447,-0.02243201975663683,-0.02059212140738964,0.0005108276382088661,0.43037480914574117,-0.0013566240668296814
1745972614697905200,7.8629052734375,0.00930025503373259,0.024968069046735764,0.0018848685078833426,-0.026329318061470985,0.12344608811107681,0.9920947323128282,0.2477923193981643,right,0.0026353001594543457,-0.04416145963346334,0.0911138930580113,-9.796665197080372,-0.022483974900471076,-0.004174171015620232,0.0012682601809501648,0.4329353072835132,-0.002448897808790207
1745972614737905200,7.9029052734375,0.008756799055541262,0.02992190234363079,0.00158577678984008,-0.004778260365128517,0.123998354745043,0.9920240147584859,0.2488953561870401,right,0.0015513300895690918,-0.044437319056490385,0.08578877077880315,-9.796593300887942,-0.022588144228340212,-0.012039047665894032,-0.0006479611620306969,0.4356379173057154,-0.00030135735869407654
1745972614777905000,7.94290478515625,0.008758324210714381,0.019172437489032745,0.0015293833726120539,0.0008796448819339275,0.12439356838445233,0.9919658531393094,0.24969775437018712,right,0.00122910737991333,-0.04520925386637976,0.0858007443443872,-9.796254278191924,-0.02297173125965455,-0.019899852573871613,0.000914817675948143,0.4432003884492442,0.0009803473949432373
1745972614817905200,7.9829052734375,0.008760466989640687,0.00842297077178955,0.0014729887916246041,0.006537551060318947,0.12478874287281377,0.9919072634917511,0.25050015151720295,right,0.0009063482284545898,-0.04598117615065168,0.08581870925934053,-9.795908825755118,-0.023355308328056438,-0.027760660275816917,0.002476985566318035,0.45076249426659193,0.0022620894014835358
1745972614857905200,8.0229052734375,0.009050239135000245,0.005605373531579971,0.0015547549749105767,0.005152730271220207,0.12494226706081911,0.9918764545201562,0.25082347303555685,right,-0.0017670989036560059,-0.04691074564155012,0.08865345776122995,-9.79546049746573,-0.023834647502066496,-0.019717641174793243,0.0016778511926531792,0.45986865118816495,0.0034416988492012024
1745972614897905200,8.0629052734375,0.009050239135000245,0.011411270126700401,0.0015547549749105767,-0.003133326768875122,0.12494226706081911,0.9918764545201562,0.25082347303555685,right,-0.004740536212921143,-0.04691074564155012,0.08865345776122995,-9.79546049746573,-0.023834647502066496,-0.0014705434441566467,-0.002378996927291155,0.45986865118816495,-0.005785062909126282
1745972614937905200,8.1029052734375,0.008480635406932521,0.05910463631153107,0.0012445828910786847,-0.040899038314819336,0.1257820498688085,0.9917701421334562,0.2525040912460742,right,-0.004415929317474365,-0.04703274657660946,0.08307343827234581,-9.795453483203053,-0.023860619931541316,0.023635996505618095,0.0032880641520023346,0.46106374272424727,-0.006137751042842865
1745972614977905200,8.1429052734375,0.0069195429529045225,0.08480597287416458,0.0004717940686706712,-0.03417903184890747,0.12734263208317992,0.991581016852954,0.25561009292849757,right,0.002375185489654541,-0.046432947524601184,0.06778363341293298,-9.795845697391032,-0.023465769553558467,0.0032326504588127136,0.005755189340561628,0.4551881286891177,0.002528514713048935
1745972615017905000,8.18290478515625,0.006333080076454518,0.06097273528575897,0.0001341128531670246,-0.009405426681041718,0.12889787753482548,0.9913790994213219,0.25873441746508685,right,0.0019591450691223145,-0.04659287633412244,0.06203826272792648,-9.795810626077651,-0.02350795667682539,-0.009422547183930874,0.0037051187828183174,0.45675479348395015,0.005555454641580582
1745972615057905200,8.2229052734375,0.006120267886725823,0.021763376891613007,0.0000032203277907176623,-0.004787464626133442,0.1297990431365053,0.9912611133170902,0.2605478711831828,right,0.0007632970809936523,-0.04665599590116154,0.05995341471130959,-9.79579484398663,-0.023525540572868472,-0.0011168746277689934,0.001268876250833273,0.4573731445780024,0.009114798158407211
1745972615097905200,8.2629052734375,0.005969492136381469,-0.031791530549526215,-0.00006409844038868934,-0.002478840760886669,0.12966009314929675,0.9912802969851738,0.26026357622576435,right,0.005435764789581299,-0.046593323004596086,0.058476620157016435,-9.79583283790946,-0.02348470176527624,0.00986532587558031,-0.00306440657004714,0.45675917739812283,0.01204146072268486
1745972615137905200,8.3029052734375,0.006462722586454498,-0.057477712631225586,0.00023184286639667763,0.015372623689472675,0.1286944020977217,0.9914106260646482,0.25832425776032003,right,0.0015429258346557617,-0.04614823586311288,0.06330952020618133,-9.796004687345027,-0.023295862554228677,0.03289927914738655,-0.002021198160946369,0.4523990459598601,0.0037325620651245117
1745972615177905200,8.3429052734375,0.007683894739305193,-0.04543193057179451,0.0009164140443527252,0.044935014098882675,0.1276063973487292,0.9915587167150064,0.256152551469998,right,-0.0006722211837768555,-0.04530538497025736,0.07527498468216508,-9.79629811733365,-0.022955659396351188,0.01691511645913124,-0.0011991038918495178,0.4441421628113836,0.0032423585653305054
1745972615217899500,8.3828994140625,0.009313109303560644,-0.017832381650805473,0.0017724007266651663,0.0405101478099823,0.12690116441156932,0.9916514604134747,0.2547641066551787,right,-0.0027286182157695293,-0.04479797377340245,0.0912372363098897,-9.796386380138992,-0.02280681905345609,0.02098519168794155,0.000018347433069720864,0.4391712059983983,-0.0014460458187386394
1745972615257899800,8.422899658203125,0.010076543476187883,-0.0032018981873989105,0.0022089350823790415,0.028150290250778198,0.12691237539637254,0.9916584197328243,0.25479705742508185,right,-0.0011483430862426758,-0.043879548746254424,0.09872013027803041,-9.796713127875327,-0.02239992650651925,0.025512458756566048,0.0032988497987389565,0.4301733682895079,-0.00108284130692482
1745972615297899800,8.462899658203124,0.01076204825782857,0.0013727284967899323,0.0026220428318849687,0.017894621938467026,0.1270266105179264,0.9916550591854002,0.25503324074257444,right,-0.0019884109497070312,-0.042687224399849566,0.10544124609343707,-9.797149181205034,-0.021852558257432174,0.028670432046055794,0.004108348861336708,0.4184916252588853,-0.0008112005889415741
1745972615337899800,8.502899658203125,0.011061277209489654,0.0024179588072001934,0.0028320051548152776,0.005025424063205719,0.12715012965220554,0.9916492060111228,0.25528065618908685,right,-0.0019884109497070312,-0.04167761233727136,0.1083774456758052,-9.797534381130337,-0.021371331183619283,0.017966989427804947,0.004215768538415432,0.4085995055913925,-0.0011404640972614288
1745972615377899500,8.5428994140625,0.010969786750141148,0.0055215973407030106,0.0028369093591846307,-0.0022656149230897427,0.12727475860364568,0.991642056099981,0.25552328822248666,right,0.0005645155906677246,-0.040848427396561124,0.1074847437529359,-9.797879833567142,-0.020954739711481277,0.01440839096903801,0.004047899506986141,0.4004749070530757,-0.002479385584592819
1745972615417899500,8.5828994140625,0.01082065195191473,0.0065800766460597515,0.0027874998878128798,-0.005775832571089268,0.12744339354543052,0.9916252701115036,0.25585672244354224,right,-0.0011715292930603027,-0.04040934479897476,0.10602543005640618,-9.79807097222507,-0.020728014059906305,0.0020183688029646873,0.002700398676097393,0.3961725336840376,-0.002465013414621353
1745972615457899500,8.6228994140625,0.010673650906576015,0.009367714636027813,0.0026992718353316936,-0.005943696014583111,0.12762407689471808,0.9916006423280643,0.2562195284979611,right,-0.0016156435012817383,-0.04059058479154569,0.10458433700315653,-9.798014273601769,-0.02080899404257239,-0.014794073067605495,0.002172623760998249,0.39794842078275977,-0.004244409501552582
1745972615497899800,8.662899658203125,0.010448587294068843,0.00894409790635109,0.0025286421848408395,-0.008011843077838421,0.12783281865412535,0.9915655297159105,0.25664255038156913,right,-0.0002714991569519043,-0.0414440945662232,0.10237557491250336,-9.797694540128111,-0.021218324501673134,-0.02910456247627735,0.0025458931922912598,0.4063114677194506,-0.0030829645693302155
1745972615537899800,8.702899658203124,0.010257345608989776,0.00785147026181221,0.002364516157569183,-0.005259146448224783,0.1280054185132097,0.9915329261260856,0.2569946134629782,right,-0.0002910494804382324,-0.04246699656961676,0.10049752434724941,-9.797292973589897,-0.02171363847780397,-0.027085257694125175,0.0021840259432792664,0.4163338992357254,-0.001217816025018692
1745972615577899800,8.742899658203125,0.01021842439267732,0.0031344080343842506,0.002295608582154894,-0.0025788673665374517,0.12808973543682187,0.9915140915538728,0.2571696915803705,right,-0.00252455472946167,-0.043210691716126404,0.10011300940853543,-9.796984346032142,-0.022080036092889183,-0.01774347946047783,0.0021698148921132088,0.4236203664494678,0.0012369304895401
1745972615617899800,8.782899658203124,0.01021842439267732,-0.0017501669935882092,0.002295608582154894,-0.005070483312010765,0.12808973543682187,0.9915140915538728,0.2571696915803705,right,-0.0013886094093322754,-0.043210691716126404,0.10011300940853543,-9.796984346032142,-0.022080036092889183,-0.009110954590141773,0.0018469812348484993,0.4236203664494678,0.0013114586472511292
1745972615657899500,8.8228994140625,0.009980495045148141,0.00019981118384748697,0.002154909398620436,-0.004468791652470827,0.1280453587044869,0.9915164075837203,0.2570777776929659,right,-0.001375734806060791,-0.043581157882344006,0.09778044740827753,-9.796850490519404,-0.022248353838349843,-0.001540966797620058,0.0008047372102737427,0.42724995512347663,0.0006122924387454987
1745972615697899500,8.8628994140625,0.009980495045148141,0.0070080929435789585,0.002154909398620436,-0.008504282683134079,0.1280453587044869,0.9915164075837203,0.2570777776929659,right,-0.0020299553871154785,-0.043581157882344006,0.09778044740827753,-9.796850490519404,-0.022248353838349843,0.0025210888125002384,0.0015154387801885605,0.42724995512347663,0.0019210167229175568
1745972615737899800,8.902899658203125,0.009475419167275675,0.008705348707735538,0.0018921865147247133,-0.010141434147953987,0.12822940695939317,0.9914924514414354,0.2574386864769967,right,-0.00304335355758667,-0.043710692504493026,0.09283175722602754,-9.796843476256727,-0.022280574379650912,-0.003294134046882391,0.0015609227120876312,0.4285190617438405,0.0038088560104370117
1745972615777899800,8.942899658203125,0.008528294477033772,-0.009217175655066967,0.0014157610413288535,-0.035207349807024,0.1283015019281486,0.9914842800050115,0.25756345600345415,right,-0.0027694106101989746,-0.04379638914459143,0.0835525726919528,-9.796890238007903,-0.022262419467896467,-0.001252343412488699,0.001224602572619915,0.42935865437313914,0.004617922008037567
1745972615817899800,8.982899658203126,0.006953012797511529,-0.016233766451478004,0.0006471420420251789,-0.034657612442970276,0.12808565532517371,0.9915164900188859,0.25709207775573967,right,0.0025350451469421387,-0.04368578611932932,0.0681199389954796,-9.797056826746463,-0.022106375320217288,0.011693829670548439,0.0021684295497834682,0.4282750238548964,-0.0020368769764900208
1745972615857899800,9.022899658203125,0.005317938056118125,-0.014698982238769531,-0.00012274945560870177,-0.02371048554778099,0.12773125967021148,0.9915702706801934,0.25633810036861315,right,0.005144894123077393,-0.04317867069621101,0.05210208015642129,-9.797371299523114,-0.021750297635032206,0.010019256733357906,0.0017407643608748913,0.4233066243251785,-0.002634011209011078
1745972615897899500,9.0628994140625,0.004021734292439285,-0.01631876267492771,-0.0007373803141409603,-0.0240397397428751,0.1273676013632728,0.9916218773129609,0.25557474825244475,right,0.003988742828369141,-0.04286894160401363,0.039403177706198764,-9.797561269137264,-0.02151423677248348,0.003242041449993849,0.0010451958514750004,0.4202720424022525,-0.002713877707719803
1745972615937899500,9.1028994140625,0.002931813272641419,-0.015176014974713326,-0.001268365582077932,-0.020435959100723267,0.12705939659727628,0.9916628671796736,0.2549293883399009,right,0.004039406776428223,-0.0428297812939624,0.028724634068482555,-9.797614460629225,-0.0214258161461322,0.00006004795432090759,0.001278783194720745,0.4198883403142914,-0.00256207212805748
1745972615977899500,9.1428994140625,0.002211647602906325,-0.01518524345010519,-0.0016110804281021709,-0.010102230124175549,0.1267581779081374,0.9917031018367062,0.2543058667471319,right,0.0021612048149108887,-0.04270832060447102,0.02166883380545769,-9.797683434212207,-0.021320344333419925,0.004085965920239687,0.0017258489970117807,0.4186983268121257,-0.001256253570318222
1745972616017899800,9.182899658203125,0.0020014196382242065,-0.014644124545156956,-0.0016936946368778245,-0.000003992579877376556,0.12645320484081204,0.9917447589210552,0.25368544469620713,right,0.0004654526710510254,-0.04247088150580465,0.019609284626878797,-9.797787479108571,-0.0211898112182078,0.005530405789613724,0.0020817830227315426,0.4163719662237912,0.00017514079809188843
1745972616057899800,9.222899658203126,0.0022291469528749517,-0.012492460198700428,-0.0015654958135381584,0.010777471587061882,0.1261485467657202,0.9917849595598479,0.25307541175373155,right,-0.0022197365760803223,-0.042331301116199115,0.02184063757525291,-9.797840670600532,-0.02113547361374694,0.001392287202179432,0.00007699523121118546,0.41500436766501514,0.0016438700258731842
1745972616097899800,9.262899658203125,0.0026978888971183907,-0.009213915094733238,-0.0013378411260818093,0.004910850897431374,0.12592084212274912,0.9918120290609324,0.25262685537195084,right,-0.006134152412414551,-0.04248272665614375,0.026433125597820614,-9.797766436320543,-0.02124042849605963,-0.011534788645803928,-0.0017966286977753043,0.416487993818894,0.006926372647285461
1745972616137899500,9.3028994140625,0.0031189283472241795,-0.009529996663331985,-0.0011621906718107583,0.012562723830342293,0.12570763350379224,0.9918322447142783,0.2522084807940888,right,-0.0005242824554443359,-0.04308052452382508,0.030557587399974,-9.797503401470184,-0.02156363022031195,-0.008786427788436413,-0.0003832534421235323,0.422345049284026,0.003148932009935379
1745972616177899500,9.3428994140625,0.004090526453830433,-0.009687514044344425,-0.0006833202593942342,0.032146766781806946,0.12552225628164237,0.9918536497539545,0.2518563409101981,right,0.0032543540000915527,-0.04318829066734849,0.04007661998835392,-9.797423906493187,-0.021678259753289124,0.01088524516671896,0.0010284045711159706,0.4234008784798905,-0.00032173842191696167
1745972616217899500,9.3828994140625,0.005758044887849564,-0.017048049718141556,0.00018587425309308912,0.04795908182859421,0.1252624010566088,0.9918907483631554,0.2513656047380785,right,0.004148304462432861,-0.042599977322920986,0.05641536764511838,-9.797590495231747,-0.021491106705760682,0.023547295480966568,0.002570063341408968,0.41763679852783675,-0.00021855905652046204
1745972616257899800,9.422899658203125,0.007838694760605785,-0.02976958081126213,0.0012871864416343312,0.05449463054537773,0.12475168230276794,0.9919616164786015,0.2503749086476374,right,0.0014958381652832031,-0.04165991782589171,0.07680362815470435,-9.797840086078644,-0.02115456135231646,0.028508320450782776,0.002246658317744732,0.40842615831848234,-0.0001453012228012085
1745972616297899800,9.462899658203124,0.009805182560051032,-0.03952888399362564,0.0023469274314039234,0.046705037355422974,0.12400238273668963,0.9920626073685002,0.24889801220281993,right,0.0009151101112365723,-0.04055379835207156,0.09607517786035313,-9.798115980410575,-0.02072688370690894,0.029642708599567413,0.002424498088657856,0.39758798997253175,-0.000751543790102005
1745972616337899800,9.502899658203125,0.011602295618350937,-0.045111168175935745,0.0033239172106990645,0.046608854085206985,0.12311397717398444,0.9921794429230948,0.24713570725609266,right,0.0007941126823425293,-0.039464050234862665,0.11368829283448867,-9.798355049863456,-0.020294841335875335,0.02989862859249115,0.0017901957035064697,0.38690976142864675,-0.0020387358963489532
1745972616377899500,9.5428994140625,0.01321998460007486,-0.041903622448444366,0.004207187562019965,0.0401650108397007,0.12219602499912627,0.9922977526315995,0.24530943885065445,right,0.0003838539123535156,-0.03844923678026776,0.1295439514157362,-9.798545603999495,-0.019887159391916414,0.026683613657951355,0.0010905694216489792,0.37696540011726315,-0.001660183072090149
1745972616417899500,9.5828994140625,0.014835107638378996,-0.03660936281085014,0.005068657381453185,0.0428217388689518,0.12139886060862687,0.9923968633030311,0.24372814706781748,right,-0.0011948943138122559,-0.03772059653434567,0.14537367183812894,-9.798595872882007,-0.019620331335629203,0.013032392598688602,0.0019192257896065712,0.3698250633759424,0.0008000470697879791
1745972616457899500,9.6228994140625,0.016435013531734377,-0.031009485945105553,0.005900323311315941,0.04047095775604248,0.12070081808085074,0.992479470499147,0.24234892251521364,right,-0.0007350444793701172,-0.03732060391825444,0.1610527317434549,-9.79849767320454,-0.01951490678000084,0.011426622979342937,0.0018726233392953873,0.365905223051086,0.0007027275860309601
1745972616497899800,9.662899658203125,0.018227395308366427,-0.02152634970843792,0.006836807571929011,0.04659809172153473,0.120145801957238,0.9925446294097432,0.2412590003826151,right,-0.0016910433769226074,-0.0367172994415129,0.17861909409957005,-9.798412333008647,-0.019319976243617105,0.025639785453677177,0.0011155754327774048,0.35999289373476057,-0.0026134364306926727
1745972616537899800,9.702899658203124,0.02027162972797782,-0.01363468263298273,0.00792161699730808,0.05418597161769867,0.11978436315260847,0.9925880150322429,0.24055758815891992,right,-0.0019541382789611816,-0.0356602827645022,0.19865657754326238,-9.798401811614632,-0.01891544953024029,0.028239211067557335,0.00096161849796772,0.3496338872078806,-0.0014882907271385193
1745972616577899800,9.742899658203125,0.022322828355781,-0.014012081548571587,0.009011108579222278,0.04985242709517479,0.1194889662817254,0.9926223884431371,0.23998697203578107,right,-0.0003057122230529785,-0.034558015095637,0.21876307110255583,-9.798352711775898,-0.018488698980723056,0.02601049654185772,0.0012739822268486023,0.3388309728384018,-0.0012005716562271118
1745972616617899800,9.782899658203124,0.02425147886763509,-0.015996770933270454,0.010030916287546881,0.05044609680771828,0.1191482488918236,0.9926601934321315,0.23932314608635352,right,0.0017424821853637695,-0.03361406624200443,0.23766791552081704,-9.798228208613395,-0.018132120608462986,0.02156681753695011,0.0030516814440488815,0.3295793795641512,-0.002039540559053421
1745972616657899500,9.8228994140625,0.026268013485483487,-0.019082266837358475,0.011083073091226222,0.05130806565284729,0.1187404692645615,0.9927023894544736,0.2385273380366115,right,-0.00020390748977661133,-0.03287507489235619,0.2574322080463171,-9.797969849938154,-0.017881075160850916,0.018881676718592644,0.003715476021170616,0.3223363496333361,-0.0017399303615093231
1745972616697899500,9.8628994140625,0.02809689094813276,-0.020142652094364166,0.012037774212477316,0.04191766679286957,0.1182817037716436,0.9927499628863952,0.23762564974194825,right,-0.00256192684173584,-0.03222099197218915,0.2753569188534282,-9.797691032996774,-0.01765958962222772,0.013307999819517136,0.004042685031890869,0.3159253866124898,-0.0023524612188339233
1745972616737899800,9.902899658203125,0.02950154262347401,-0.018252205103635788,0.012767075011265887,0.03009895235300064,0.11787923976575806,0.9927911082891917,0.23683286379215063,right,-0.0024576187133789062,-0.03179785941816347,0.2891229025458917,-9.797427413624524,-0.017527578108549983,0.00695023825392127,0.003749147057533264,0.31177798460945483,-0.0039400942623615265
1745972616777899800,9.942899658203125,0.030389801672158365,-0.012640753760933876,0.01322602570488986,0.018965084105730057,0.1175787910600754,0.9928217936998235,0.23623961440525718,right,-0.0014983415603637695,-0.031580840172433504,0.29782749292925,-9.797234521400927,-0.01746828653328734,-0.001098909880965948,0.0043884143233299255,0.3096508363876492,-0.0032948460429906845
1745972616817899800,9.982899658203126,0.031112615374476668,-0.00693625770509243,0.013583764847460936,0.017605504021048546,0.11739775080907473,0.9928370749197587,0.23588887852232224,right,-0.0012352466583251953,-0.031651130304379146,0.304908299769368,-9.796994867426156,-0.01754328765411187,-0.006830887403339148,0.0035638604313135147,0.31033980503249914,-0.002981947734951973
1745972616857899800,10.022899658203125,0.03170274877924263,-0.008362626656889915,0.01386614319364542,0.01091785728931427,0.11725318953239093,0.992847724640842,0.2356120257089334,right,-0.0011082887649536133,-0.03187205473418556,0.31068759555686265,-9.796744107535481,-0.017685671771048853,-0.009342831559479237,0.002712264657020569,0.3125052394380793,-0.001456674188375473
1745972616897899500,10.0628994140625,0.03209635280658555,-0.009038669057190418,0.014044493018911421,0.009117468260228634,0.11709431079191529,0.9928606467790221,0.23530503626381835,right,0.0006614923477172852,-0.03220812451118717,0.314540215864405,-9.796515559476614,-0.017873412944936544,-0.010996422730386257,0.0034085288643836975,0.3157992760147899,-0.0015153978019952774
1745972616937899500,10.1028994140625,0.0325249409388977,-0.007472969591617584,0.014245480894418641,0.00895541999489069,0.11692506089783458,0.9928750653611689,0.23497637860109918,right,-0.0004578828811645508,-0.032458737255459766,0.3187362793147564,-9.796300455421209,-0.01802056807365952,-0.005101221147924662,0.004541609436273575,0.3182556561909616,-0.0016561876982450485
1745972616977899500,10.1428994140625,0.0325249409388977,-0.004250776022672653,0.014245480894418641,0.0048885946162045,0.11692506089783458,0.9928750653611689,0.23497637860109918,right,-0.002329587936401367,-0.032458737255459766,0.3187362793147564,-9.796300455421209,-0.01802056807365952,-0.002752412110567093,0.004745371639728546,0.3182556561909616,-0.0018799547106027603
1745972617017899800,10.182899658203125,0.0325249409388977,-0.0010284390300512314,0.014245480894418641,-0.005158728454262018,0.11692506089783458,0.9928750653611689,0.23497637860109918,right,-0.0017801523208618164,-0.032458737255459766,0.3187362793147564,-9.796300455421209,-0.01802056807365952,-0.005246744491159916,0.004637092351913452,0.3182556561909616,-0.001181669533252716
1745972617057899800,10.222899658203126,0.0325249409388977,0.004197978414595127,0.014245480894418641,-0.01276266761124134,0.11692506089783458,0.9928750653611689,0.23497637860109918,right,-0.002354741096496582,-0.032458737255459766,0.3187362793147564,-9.796300455421209,-0.01802056807365952,-0.010354682803153992,0.00284620001912117,0.3182556561909616,-0.0014868136495351791
1745972617097899800,10.262899658203125,0.032140884410538376,0.008540546521544456,0.01400706550066262,-0.017884403467178345,0.11700424160884669,0.9928623281152199,0.23514308128644995,right,-0.0011906027793884277,-0.03324584387888196,0.31496578433271494,-9.796168937996029,-0.018390007845840693,-0.019661568105220795,0.0018239617347717285,0.32597035875413566,-0.0005384013056755066
1745972617137899500,10.3028994140625,0.03168033372623738,0.008096999488770962,0.013722058148706381,-0.01490046177059412,0.11715742193066504,0.9928402823922485,0.23545933279076184,right,-0.0016434192657470703,-0.034154510611450646,0.3104446171138435,-9.796012870651483,-0.018816295628652918,-0.02406415529549122,0.0008070170879364014,0.33487628039587286,-0.0006541907787322998
1745972617177899500,10.3428994140625,0.031162138859434623,0.005387159530073404,0.013408119352090048,-0.013651346787810326,0.11728751903863444,0.9928210452682763,0.23572781233791695,right,0.0002308487892150879,-0.03507405679033851,0.30535860082013533,-9.795860310438275,-0.01924419120302354,-0.024297231808304787,0.0011466257274150848,0.3438885484889149,-0.0004385635256767273
1745972617217899500,10.3828994140625,0.030790624204671133,-0.000391421839594841,0.013180419964848375,-0.010350551456212997,0.11728734787352245,0.9928173590462703,0.23573309227336356,right,-0.0006659030914306641,-0.035807729111628585,0.3017114216905087,-9.79571827161908,-0.01958661891745797,-0.024736076593399048,0.001046895980834961,0.351078898384422,0.0005725175142288208
1745972617257899800,10.422899658203125,0.030419108398666593,-0.006170003209263086,0.012952719485175424,-0.007049757055938244,0.11728715271673272,0.9928135920169235,0.2357381111115151,right,-0.0015631914138793945,-0.036541410129910426,0.2980642242945731,-9.7955698030591,-0.019929045105376093,-0.02517492137849331,0.000947166234254837,0.35826913868207483,0.0015836134552955627
1745972617297899800,10.462899658203124,0.030171367746130377,-0.007884333841502666,0.012770361906079322,-0.007453094702214003,0.1171848929626117,0.9928177496360303,0.23554511157673544,right,-0.001258552074432373,-0.03758264384943862,0.2956260373622179,-9.795265267154575,-0.020430126362875913,-0.03122396022081375,0.0012445151805877686,0.36847313731033354,0.0013961419463157654
1745972617337899800,10.502899658203125,0.029933506460034752,-0.007894894108176231,0.012578573354389997,-0.004870415665209293,0.11704997927277877,0.9928229850149514,0.23529079444837434,right,0.0003361701965332031,-0.03888013621472815,0.2932815565953031,-9.794849087569117,-0.021058630523050712,-0.03039788082242012,0.0020728670060634613,0.38118791318312284,-0.000016108155250549316
1745972617377899500,10.5428994140625,0.029864553561203266,-0.006380079779773951,0.012474902199249327,-0.0015513449907302856,0.11689796211200404,0.9928292536073445,0.23500441879211945,right,-0.0003731250762939453,-0.0401135468053048,0.2925919120970182,-9.794391991451382,-0.02166504010712025,-0.026004547253251076,0.0020032543689012527,0.39327410882879044,-0.00004944950342178345
1745972617532608000,10.69760791015625,0.02951592856084931,0.012021506205201149,0.012109272522545343,-0.013579169288277626,0.11675847031184892,0.9928132940674035,0.23477304845914546,right,-0.002514696680009365,-0.04343716168969063,0.2891371685332618,-9.793132346779107,-0.023293011929750505,-0.010106941685080528,0.0030849575996398926,0.4258391750101,-0.0011512909550219774
1745972617572608300,10.737608154296876,0.029181221784368265,0.015123178251087666,0.01191985944661286,-0.01476653665304184,0.11717479963359907,0.9927642070743731,0.2356078550023852,right,-0.0015663504600524902,-0.043667143212223994,0.28585644809585065,-9.793130593213439,-0.023392604673721337,-0.007092209532856941,0.0033721812069416046,0.42809239729698745,0.00003775209188461304
1745972617732150500,10.897150634765625,0.02841011946466273,-0.0009409320773556828,0.011566720119886407,-0.0034087481908500195,0.11793840022288453,0.9926879872562959,0.23711471479441631,right,-0.00015563116176053882,-0.04287054460112262,0.2783144534847699,-9.793685889008641,-0.022960756794405575,0.0072349789552390575,0.0009144739015027881,0.4202877148954198,0.00030527132912538946
1745972617772058600,10.93705859375,0.028366833743710212,0.00762892747297883,0.0115392079356431,-0.006622083485126495,0.11803004305283765,0.9926766499738717,0.23729944324603588,right,-0.004092033952474594,-0.04293641528282713,0.27788974353298546,-9.793670106917618,-0.02299196342002013,-0.011091194115579128,-0.00019099580822512507,0.42093310012686996,-0.0015140215400606394
1745972617812058600,10.97705859375,0.027946636486260012,0.010089157149195671,0.011277313416739576,-0.007382646668702364,0.11841391597859728,0.9926259002131775,0.23807553466441975,right,-0.0038736462593078613,-0.0436828633735168,0.27376559454137456,-9.793469615909457,-0.023342003177304324,-0.017735350877046585,0.002006836235523224,0.42824641881491987,0.0014077238738536835
1745972617971601000,11.136600830078125,0.026226477893011826,-0.01726701855659485,0.010313602027453706,-0.002633946016430855,0.11846431136124243,0.9926109818169631,0.2381655701341754,right,0.0021962893661111593,-0.04551272737029952,0.2568979002402164,-9.79312591703832,-0.02414873743365038,0.031312379986047745,0.0004921257495880127,0.44617337637804444,-0.003478542435914278
1745972618011510300,11.17651025390625,0.02628259764255423,-0.004668934736400843,0.010432145422373971,0.009158140048384666,0.11830266418561661,0.9926462688641209,0.23781821539461545,right,-0.001830309396609664,-0.044057557456183415,0.2574642654187046,-9.793750186416506,-0.023428087310532204,0.027434216812253,0.002534078434109688,0.431917362412624,0.0008478381205350161
1745972618051510300,11.21651025390625,0.026042440319009683,-0.0029046419076621532,0.01032770869091362,0.003064236603677273,0.1182369531231621,0.9926581724766008,0.23767671533878054,right,-0.0008689761161804199,-0.0438369803660523,0.25511470661787317,-9.793906838282942,-0.02330367920209819,0.017922434955835342,0.002806497737765312,0.42975631192121655,-0.0005218721926212311
1745972618091510300,11.25651025390625,0.025802317662318983,-0.0011403488460928202,0.010223273051883237,-0.003029666841030121,0.11817118966119843,0.9926700476812492,0.23753517073902242,right,0.00009226799011230469,-0.043616374533451796,0.2527653852790594,-9.7940623211056,-0.02317927262018136,0.008410654962062836,0.003078894689679146,0.4275950057014823,-0.00189155712723732
1745972618250967000,11.415967041015625,0.023666250500718296,0.010956848040223122,0.00907390284434881,-0.02342834509909153,0.11852840117764134,0.9926254550877465,0.23822487412035964,right,0.0010467948159202933,-0.04498062508076502,0.23183003968019036,-9.793987502303718,-0.023733266598919465,-0.009085996076464653,0.0033493926748633385,0.4409605736332014,-0.0032517635263502598
1745972618290875400,11.45587548828125,0.0232289792736634,0.007943762466311455,0.008821700953007376,-0.004612437915056944,0.11873305662334172,0.9925977547990913,0.23863406055269726,right,-0.0015208334662020206,-0.0454892418318848,0.22754215149423107,-9.793862414619326,-0.023961574565375805,-0.01379420980811119,0.0011421645758673549,0.4459433304818347,-0.0010727985063567758
1745972618490417700,11.655417724609375,0.022173239715619804,0.0021824087016284466,0.008170219401749076,-0.0016536104958504438,0.11929240755992983,0.9925144701987786,0.2397621158857149,right,-0.0001574174384586513,-0.047392869272240755,0.2171830353694968,-9.793231130978464,-0.024848212109923058,-0.013676702044904232,0.0013515078462660313,0.464591405393742,-0.001004822668619454
1745972618530417700,11.695417724609374,0.02206737446631014,0.0050101736560463905,0.008069594152889218,-0.0037370130885392427,0.11943002535460033,0.9924896148593617,0.24004712272729317,right,0.0004496574401855469,-0.04813561997623731,0.21613860435048116,-9.7929061368078,-0.02521161751866293,-0.017724238336086273,0.0014767199754714966,0.47186698588728904,0.0004947483539581299
1745972618570417700,11.735417724609375,0.022008558556942188,0.0025931261479854584,0.007994270213857745,-0.003342613112181425,0.11949824955756767,0.9924727004715741,0.24019338824264264,right,0.0006527304649353027,-0.04887365331580263,0.21555490444470196,-9.79256769863367,-0.0255749106908273,-0.015823813155293465,0.0013723652809858322,0.47909609689060595,0.0014319829642772675
1745972618610417700,11.775417724609374,0.021949853751779397,0.00017607840709388256,0.007918946684195868,-0.002948212902992964,0.11956647817668893,0.9924556528769362,0.2403396616223524,right,0.0008553862571716309,-0.04961170174196316,0.21497220918592064,-9.792224584284424,-0.025938203641055396,-0.013923387043178082,0.0012679081410169601,0.48632509829606857,0.002369225025177002
1745972618650418000,11.81541796875,0.021917834975311752,-0.006235968321561813,0.007869706821507276,-0.0008083670400083065,0.1195053943681306,0.9924558947954237,0.24022384161839802,right,-0.0006037354469299316,-0.05019234517036534,0.21465243917964397,-9.791947520908712,-0.02622394518560031,-0.007172090467065573,0.0008022226393222809,0.4920122040217742,0.00013926252722740173
1745972618690417700,11.855417724609374,0.022073200583562574,-0.004678688012063503,0.007929348783729891,0.0008301334455609322,0.11938308806254433,0.9924653887130905,0.23998630078551306,right,-0.0007336735725402832,-0.05053536930667493,0.21617004066836087,-9.791744691812992,-0.026402493830677234,-0.010906475596129894,0.0010378342121839523,0.4953718531806022,0.0005052536725997925
1745972618730417700,11.895417724609375,0.022228490266438847,-0.0031214074697345495,0.007988991224326688,0.002468633931130171,0.11926075334912659,0.9924749350302666,0.23974878739974004,right,-0.0008637309074401855,-0.05087844222503067,0.21768680190686135,-9.791540109151601,-0.026581044335175358,-0.014640862122178078,0.0012735296040773392,0.49873190419822927,0.0008711963891983032
1745972618770417700,11.935417724609374,0.022343740033522453,0.0009290354792028666,0.008015665442264563,0.0004580554086714983,0.1192419029052483,0.9924699361016551,0.2397212392562497,right,0.0002891421318054199,-0.05139397510845996,0.2188095040601678,-9.791256616035103,-0.026843613960486592,-0.013943391852080822,0.002744719386100769,0.5037809677487239,0.0007686950266361237
1745972618810417700,11.975417724609375,0.022499624243700982,0.003061985597014427,0.008065047565368183,0.00464154127985239,0.11928129965014646,0.9924585469754966,0.2398112670973601,right,0.0002512931823730469,-0.0518405692851053,0.22033072227807715,-9.790996503794192,-0.027074869526245174,-0.006880401633679867,0.0029072724282741547,0.5081547258535399,0.0005293600261211395
1745972618969361700,12.134361572265625,0.02299523459118109,0.009421972557902336,0.00827460478133235,-0.0046545034274458885,0.11968005687890189,0.9924021030715718,0.24063450893291602,right,0.0030945981852710247,-0.05225996617582486,0.22517829017341134,-9.790672678667306,-0.027315939626146916,-0.00518566370010376,0.0030078566633164883,0.5122620150418952,-0.001184658845886588
1745972619009361700,12.174361572265624,0.023273933789494584,0.005482055712491274,0.008384458759411283,-0.0025387497153133154,0.11986188596956235,0.9923734860016518,0.24101435675472047,right,0.0007055997848510742,-0.052645881249486264,0.22790230830982325,-9.790410812860726,-0.027525684976574306,-0.007607690058648586,0.002093221992254257,0.5160413509175181,0.0003373660147190094
1745972619049361700,12.214361572265625,0.023273933789494584,0.0033617352601140738,0.008384458759411283,0.0014533328358083963,0.11986188596956235,0.9923734860016518,0.24101435675472047,right,0.0009875893592834473,-0.052645881249486264,0.22790230830982325,-9.790410812860726,-0.027525684976574306,-0.008776798844337463,0.0016010794788599014,0.5160413509175181,0.0014663711190223694
1745972619089361700,12.254361572265625,0.023592180016388967,0.0018203360959887505,0.008515158525660068,0.001784191350452602,0.11991550421206477,0.9923595012292893,0.24113759782384955,right,0.0006053447723388672,-0.05306919631365477,0.23101289634471758,-9.790118551915883,-0.02775530876791949,-0.0033923257142305374,0.0013713836669921875,0.5201868532244116,0.0010778307914733887
1745972619129361700,12.294361572265625,0.023910486469040728,0.00027893681544810534,0.008645858701279667,0.0021150498650968075,0.11996907005505793,0.9923454880490952,0.24126089768596787,right,0.00022286176681518555,-0.05349247873732526,0.23412384970579295,-9.789823368361592,-0.027984932337329103,0.0019921469502151012,0.0011416450142860413,0.5243319536725058,0.0006893165409564972
1745972619169362000,12.33436181640625,0.024216598742491883,-0.0014974366640672088,0.008801082090845494,0.0023907432332634926,0.11990525658603951,0.9923516403665757,0.2411404833824864,right,-0.0005888938903808594,-0.053465057442513945,0.23712096742885186,-9.789766085216403,-0.027989161846064047,0.0028062923811376095,0.0008870828896760941,0.5240634389294311,0.0007460080087184906
1745972619209361700,12.374361572265625,0.02452272306821216,-0.0032738102599978447,0.008956307734275935,0.0026664366014301777,0.11984143870086736,0.9923579258909063,0.24102009673919828,right,-0.001400768756866455,-0.053437693181776505,0.2401181947497651,-9.789707048505544,-0.02799339648918926,0.0036204378120601177,0.0006325077265501022,0.5237954721756279,0.0008026361465454102
1745972619249361700,12.414361572265625,0.02452272306821216,-0.002310844138264656,0.008956307734275935,0.0006258273497223854,0.11984143870086736,0.9923579258909063,0.24102009673919828,right,-0.001192927360534668,-0.053437693181776505,0.2401181947497651,-9.789707048505544,-0.02799339648918926,0.001908666337840259,0.0014936495572328568,0.5237954721756279,0.00031358376145362854
1745972619289361700,12.454361572265626,0.02452272306821216,-0.00029859691858291626,0.008956307734275935,-0.0006260958034545183,0.11984143870086736,0.9923579258909063,0.24102009673919828,right,-0.0005847811698913574,-0.053437693181776505,0.2401181947497651,-9.789707048505544,-0.02799339648918926,0.0003472341923043132,0.0009512696415185928,0.5237954721756279,0.00016151368618011475
1745972619329361700,12.494361572265625,0.02452272306821216,-0.0005195526755414903,0.008956307734275935,0.001026167068630457,0.11984143870086736,0.9923579258909063,0.24102009673919828,right,-0.000700831413269043,-0.053437693181776505,0.2401181947497651,-9.789707048505544,-0.02799339648918926,-0.0024470165371894836,0.0010536033660173416,0.5237954721756279,0.00062546506524086
1745972619369361700,12.534361572265626,0.02452272306821216,-0.002755963709205389,0.008956307734275935,0.003122800961136818,0.11984143870086736,0.9923579258909063,0.24102009673919828,right,0.00021332502365112305,-0.053437693181776505,0.2401181947497651,-9.789707048505544,-0.02799339648918926,-0.008842501789331436,0.001736009493470192,0.5237954721756279,0.0016076043248176575
1745972619409362000,12.57436181640625,0.025137394239984585,-0.0060938261449337006,0.009241481089086966,0.00828227587044239,0.11962205135503623,0.9923746562120054,0.24060201579043156,right,-0.00019121170043945312,-0.053864528933264384,0.2461299658525735,-9.789333539018035,-0.028240068019347635,-0.010771438479423523,0.0015111900866031647,0.5279752786109224,0.0019222870469093323
1745972619449362000,12.61436181640625,0.025751913947735353,-0.009431688115000725,0.009526654443898348,0.013441750779747963,0.11940271640871444,0.9923914149409361,0.24018439273635334,right,-0.0005964040756225586,-0.05429164228392458,0.25213981899293136,-9.788953599789737,-0.028486739549505397,-0.01270037516951561,0.0012865643948316574,0.5321576788621023,0.002236701548099518
1745972619647904300,12.812904296875,0.02756558905358871,0.006260152440518141,0.010259825986350344,-0.010620340704917908,0.11855574978717334,0.992436066649164,0.23858414487279173,right,-0.004714558832347393,-0.05746992721775016,0.26984540715664623,-9.786740599915385,-0.030163665938173122,-0.009989434853196144,0.0034668997395783663,0.5632773685406893,-0.00029293622355908155
1745972619687904000,12.852904052734376,0.027196752605147173,0.007472386118024588,0.01004480763296524,-0.00893329456448555,0.11876470318088642,0.9924074420222018,0.23900138733884216,right,-0.0008783340454101562,-0.057899994540043645,0.2662290615567006,-9.786596223008631,-0.030357282632932296,-0.009301139973104,0.003476204350590706,0.5674878623751923,0.00006974115967750549
1745972619847465700,13.0124658203125,0.026885546159315217,-0.0008449680171906948,0.009805797182585086,0.006681544706225395,0.119088203682127,0.9923523704113557,0.23966490438623816,right,0.0034094329457730055,-0.05914334819403356,0.2631642306259833,-9.78596552388966,-0.03095895453206759,-0.014888644218444824,0.0003048411454074085,0.5796601288691162,0.0008249867241829634
1745972619887466000,13.052466064453125,0.02703489023732072,-0.0028145425021648407,0.00984453504726407,0.002892532851547003,0.11896471796431994,0.9923564110863443,0.23943181288633392,right,0.0024463534355163574,-0.059794157508970616,0.2646154523476027,-9.785547006216644,-0.031289583612217425,-0.01604929193854332,0.0006162934005260468,0.5860310886731371,0.0004439018666744232
1745972619927466000,13.092466064453125,0.02718409071186984,-0.004784116987138987,0.00988327113645358,-0.0008964785374701023,0.11884123224651284,0.9923604517613328,0.23919886924952866,right,0.001482844352722168,-0.06044501061502521,0.2660650301014073,-9.78512381236851,-0.031620209417397925,-0.017209937795996666,0.0009279120713472366,0.5924022676728665,0.00006279721856117249
1745972620086940000,13.25193994140625,0.02693163750667081,-0.0007883015787228942,0.009535117199293704,-0.012050231918692589,0.11875314177200708,0.9923137114553703,0.23907797513819143,right,-0.0018285231199115515,-0.06420416938972495,0.2635328995415941,-9.782895614925026,-0.033469616423590094,-0.02739752270281315,0.0020970446057617664,0.6291954364106058,0.00215793214738369
1745972620126851800,13.291851806640626,0.026601518707060182,0.002168118953704834,0.009330735461274938,-0.012134362943470478,0.11876192183454098,0.9923038943626159,0.23909610098748796,right,-0.0025129104033112526,-0.06487778300319831,0.26029203619053587,-9.782556007707118,-0.03378428321082978,-0.010180431418120861,0.002647923771291971,0.6357875281520188,0.00015880321734584868
1745972620166852000,13.33185205078125,0.02594658799043614,0.0036049853079020977,0.009024544896023204,-0.014606663025915623,0.11878583796139013,0.9923105547915414,0.2391166326700472,right,-0.0011463165283203125,-0.06455840709725688,0.2538903524546884,-9.78292717910707,-0.03358703990565856,0.008656051941215992,0.002857701852917671,0.6326620896078646,0.00022693723440170288
1745972620206851800,13.371851806640626,0.0253078374634582,-0.0006357133388519287,0.008730389360321467,-0.014600275084376335,0.11877872585209098,0.9923215473544722,0.23907460664151178,right,-0.0011440515518188477,-0.06418947568347129,0.2476473298792727,-9.783319977816939,-0.03336588534543036,0.004251325968652964,0.0019805729389190674,0.629051644025743,0.0028555095195770264
1745972620246851800,13.411851806640625,0.024711017674194022,-0.001598819624632597,0.008441621840660357,-0.016140645369887352,0.11872366059501852,0.9923333238335351,0.2389421828620364,right,-0.0003819465637207031,-0.06410338048170727,0.2418097462995909,-9.783519884303212,-0.03328716554959896,-0.0003770766779780388,0.0016277879476547241,0.6282090557217598,0.00273200124502182
1745972620286851800,13.451851806640626,0.024056234757632893,-0.00750183267518878,0.008109632881159845,-0.015261169523000717,0.11862015925689637,0.9923467750209662,0.23871453066321888,right,0.0009464621543884277,-0.06428583759672543,0.2354008473716676,-9.783561385357379,-0.03333789236690097,0.00003769254544749856,0.0023991093039512634,0.629994697029516,0.0018872246146202087
1745972620326851800,13.491851806640625,0.02353142415973334,-0.008852759376168251,0.007852184080053202,-0.014458244666457176,0.11843685342791212,0.992370862465333,0.23832838654398122,right,0.00039196014404296875,-0.06434426521669642,0.23026543897828086,-9.783646725553274,-0.03333423689570718,0.0035416039172559977,0.001651909202337265,0.6305664325028657,0.0010909587144851685
1745972620366851800,13.531851806640624,0.022947342420102733,-0.007052887696772814,0.0075686545036461345,-0.016143765300512314,0.11826154000955008,0.9923952148792485,0.2379554434836498,right,-0.0005716085433959961,-0.06434301670129688,0.22455097032161428,-9.783780581066011,-0.03329761643234138,-0.0009554706048220396,0.0013950765132904053,0.6305542306084185,6.705522537231445e-7
1745972620406852000,13.57185205078125,0.02237064238256717,0.0009199143387377262,0.007267030209877567,-0.01449981052428484,0.11819989950784969,0.9924009858405003,0.23781637489221516,right,0.0011663436889648438,-0.06464204439071931,0.21890439753569663,-9.783719790789485,-0.03341137323220189,-0.013333092443645,0.0015434976667165756,0.6334805663838983,-0.0033891387283802032
1745972620446852000,13.61185205078125,0.02177396166798077,0.010385734960436821,0.006891108757982283,-0.01785912923514843,0.11833134036240266,0.992367764503201,0.23807993331750268,right,-0.0018371343612670898,-0.06590966146607735,0.21304894950576125,-9.78303765374422,-0.03400595172679562,-0.054004766047000885,0.0018287226557731628,0.6458852168615907,-0.00609787181019783
1745972620486851800,13.651851806640625,0.02110920114982684,0.023171287029981613,0.006345316742856831,-0.02671051397919655,0.1186689624122842,0.9922728883777301,0.238787530493122,right,-0.004814445972442627,-0.06932587250354073,0.20649773776400834,-9.780914085718988,-0.03566374737961637,-0.11993926763534546,0.0019765906035900116,0.6793102243404835,-0.01295631006360054
1745972620526851800,13.691851806640624,0.020006568421576887,0.04488654062151909,0.00542337390947575,-0.04377856105566025,0.11941006559469661,0.9920844660643202,0.24032482718549877,right,-0.0034440159797668457,-0.07511076605347794,0.19563096437808125,-9.777043381765484,-0.0384722142935012,-0.17950302362442017,0.003340885043144226,0.735892673914507,-0.02034663036465645
1745972620566851800,13.731851806640625,0.018421055111976947,0.07389683276414871,0.00417083514694057,-0.04747724533081055,0.12068515274174046,0.9918023967433555,0.2429301098483098,right,0.003109157085418701,-0.08196360779456276,0.1800319748384878,-9.77206968500614,-0.041781801632782015,-0.1725580394268036,0.005696393549442291,0.8028888193447142,-0.026030845940113068
1745972620606851800,13.771851806640624,0.016940925846536354,0.10397151112556458,0.0031795956382561913,-0.038681697100400925,0.12251664198961804,0.9915227712078727,0.24660147736940563,right,0.009281575679779053,-0.08489639869507326,0.1655272650753148,-9.76992858132422,-0.04315259534242255,0.006592854857444763,0.007111096754670143,0.8315496080964804,-0.01067061722278595
1745972620646852000,13.81185205078125,0.016262009991414278,0.09362641721963882,0.0030683080309495164,-0.019084470346570015,0.12452086176145992,0.9913787582035255,0.2505490495996161,right,0.0030385851860046387,-0.07993685936042483,0.15895937619339673,-9.774042446383833,-0.04065847243845534,0.18937629461288452,0.004124140366911888,0.783078349589929,0.023775525391101837
1745972620686852000,13.85185205078125,0.016046218514687197,0.044877711683511734,0.0035681689879816124,-0.01044977642595768,0.12589617142685625,0.9914025633746274,0.25318152097913377,right,-0.0028783679008483887,-0.0694934299406404,0.15697287855129688,-9.781720141404866,-0.03547294970943431,0.309494286775589,0.0006636213511228561,0.6809494429148734,0.04046604037284851
1745972620726851800,13.891851806640625,0.01598080338707112,0.0066649168729782104,0.004337778059100457,-0.008409655652940273,0.12640771496605144,0.9915425274141829,0.25405628607334424,right,-0.0076141357421875,-0.05660539011534537,0.15646025285404175,-9.789693019980191,-0.02908187077428144,0.3552989065647125,-0.0011918582022190094,0.554812943588756,0.04345026984810829
1745972620766851800,13.931851806640625,0.015077302477852706,-0.002547512762248516,0.00440877675147045,-0.019147630780935287,0.1260780449218409,0.9916943956521151,0.253277441268884,right,-0.0034992098808288574,-0.04857648949685377,0.1476776013989467,-9.793968797603249,-0.025042537172296625,0.23586542904376984,0.0002855118364095688,0.4761853970756754,0.02421528473496437
1745972620806851800,13.971851806640625,0.014180383890581535,-0.011759942397475243,0.004479703024800596,-0.029885604977607727,0.12574630191090347,0.9918299527390937,0.2525061397574717,right,0.0005505681037902832,-0.04054689256818656,0.1389428898719605,-9.7976045237571,-0.021002791534285744,0.11643196642398834,0.0017579905688762665,0.39752033156380057,0.004984118044376373
1745972620846851800,14.011851806640625,0.013272072239071245,-0.012534507550299168,0.004158765770976075,-0.010915163904428482,0.1254048471437332,0.9918956307997744,0.25178066815944544,right,0.00982576608657837,-0.038606575161622796,0.1300535449056886,-9.79847955302596,-0.019981963378262666,-0.020952627062797546,0.0011894507333636284,0.37850718619916585,-0.011208342388272285
1745972620886852000,14.05185205078125,0.013152526599643916,-0.005429013632237911,0.0039020720015553517,0.004329494200646877,0.12517379272649204,0.9918926114396525,0.2513417122709852,right,0.0093117356300354,-0.04182378866517389,0.1288654950317461,-9.797226922616362,-0.021569104512517045,-0.15294456481933594,-0.0011620018631219864,0.41003176688421517,-0.01871436834335327
1745972620926852000,14.09185205078125,0.0133041338868132,-7.050111889839172e-7,0.003459628935780436,-0.0006796121597290039,0.1251321841190707,0.9918017786436131,0.2513399504981434,right,0.004900038242340088,-0.05007615676339384,0.1303013730537612,-9.793490074175596,-0.02567098267989113,-0.2728174328804016,-0.002061479724943638,0.49087421296779066,-0.025279929861426353
1745972620966851800,14.131851806640626,0.013097040071374825,0.010273403488099575,0.0027059039934602203,-0.009438316337764263,0.1252375522272805,0.9916459414046184,0.2516505377817822,right,0.005577147006988525,-0.06037756089896626,0.12820017212396487,-9.7879412078768,-0.03076634649896892,-0.281055748462677,0.0009317547082901001,0.5917420136658474,-0.01654282584786415
1745972621006851800,14.171851806640625,0.012739841693989902,0.01912321150302887,0.0019798006364989238,-0.013577718287706375,0.1255764438198934,0.9914653078826047,0.252412251431293,right,-0.0003261566162109375,-0.06890543319855337,0.12463510005353018,-9.782584649279713,-0.03497255604656808,-0.18397948145866394,0.0025991732254624367,0.675196943802759,-0.0032423213124275208
1745972621046851800,14.211851806640626,0.012533032113852574,0.0458112433552742,0.0016476665154817184,-0.008983348496258259,0.12626779179171577,0.9913207628502576,0.253834420189441,right,-0.004246175289154053,-0.07213713893934072,0.12258397621000185,-9.780376910102367,-0.03656267891069904,-0.0226326584815979,0.0029391851276159286,0.7068103718150407,0.010564081370830536
1745972621086851800,14.251851806640625,0.012681355782870702,0.06364189088344574,0.0018257015467282032,0.003139367327094078,0.12743498220256225,0.9912120762298356,0.25616974951332955,right,-0.0072876811027526855,-0.06983454533309257,0.12405495294486171,-9.781960379901529,-0.035432938664281294,0.11031685769557953,0.0028473874554038048,0.6842865514483303,0.019080184400081635
1745972621126851800,14.291851806640626,0.012609615761901729,0.07812754809856415,0.0021465438920852515,-0.02055097557604313,0.12888550143837604,0.9911305453510425,0.25902716038125156,right,-0.009463489055633545,-0.06353817506155646,0.12340507420138455,-9.786083597311377,-0.032310954951776806,0.20306959748268127,0.005161208100616932,0.6226775789491832,0.015779048204421997
1745972621166852000,14.33185205078125,0.011690171588767962,0.07526474446058273,0.002136691562772385,-0.04123137146234512,0.13040961768416695,0.991047827200493,0.261999146068389,right,-0.009847402572631836,-0.055985347536621675,0.1144589758128859,-9.790615980044008,-0.028511941837704967,0.19370396435260773,0.0059171197935938835,0.5487420261772349,0.009179465472698212
1745972621206851800,14.371851806640626,0.009668935376525573,0.07322268187999725,0.0014794169025552663,-0.06990441679954529,0.13189805403389948,0.9909343750938587,0.2648963575954531,right,-0.00519716739654541,-0.050152007926999205,0.09469894847054965,-9.793861830097436,-0.025491723942700644,0.12431236356496811,0.006091991439461708,0.4916171402895823,-0.003850359469652176
1745972621246851800,14.411851806640625,0.00688294268674972,0.07789205759763718,0.00023800191023167093,-0.08504684269428253,0.13345177432212804,0.9907647852816196,0.2679432189884838,right,0.0020189881324768066,-0.047494957488778904,0.06742174129798077,-9.795359375178814,-0.02399188357929987,0.030680499970912933,0.0053133536130189896,0.46559141274914145,-0.013095103204250336
