time,seconds_elapsed,roll,rotationRateZ,quaternionY,rotationRateY,quaternionZ,quaternionW,yaw,devicelocation,accelerationZ,pitch,gravityX,gravityZ,quaternionX,rotationRateX,accelerationX,gravityY,accelerationY
1745973434628236000,0.221236083984375,0.74480279863827,-0.10626077651977539,0.35163720003607485,0.03535500168800354,3.8199245484062724e-17,0.923077903438205,0.11466792616780228,left,-0.16460376977920532,-0.2917814840974138,6.36625294150412,-6.905311887654662,-0.1558150539596848,0.04461526498198509,-1.0210180282592773,2.820970151905715,0.05905666947364807
1745973434668236000,0.261236083984375,-0.3973654113606323,-0.06188296899199486,-0.14208075763632147,0.021253196522593498,-0.22530273553877925,0.9395668562501956,-0.5412660930305039,left,0.011662006378173828,-0.3470978281383413,-3.5687554351225494,-8.503290104639529,-0.21509513145329046,0.051109254360198975,-0.008602321147918701,3.3359301373273134,0.00013697147369384766
1745973434708236000,0.301236083984375,-0.4031399123909853,-0.08842749148607254,-0.14402075698205988,0.04395592212677002,-0.22660367018849817,0.9385319473897775,-0.5458385491492809,left,0.005045592784881592,-0.34899608734277743,-3.6153070506781337,-8.476700203877687,-0.21694831594593753,0.025660375133156776,-0.0022892653942108154,3.3534295536607504,-0.012964397668838501
1745973434748236000,0.341236083984375,-0.408927555767353,-0.11497201770544052,-0.14595932181477272,0.06665865331888199,-0.22790227802447444,0.9374877369432898,-0.5504256160163344,left,-0.0015968084335327148,-0.35086951065652505,-3.6618016753494738,-8.44985545157194,-0.2187993399954607,0.00021149590611457825,0.004017949104309082,3.3706881469756365,-0.026041239500045776
1745973434788235800,0.38123583984375,-0.4061044264346589,-0.17555753886699677,-0.14458079629362766,0.07131502032279968,-0.2315181671463108,0.9372208613989873,-0.5564559322345561,left,0.0023536086082458496,-0.34682136226384097,-3.643292497451603,-8.472624917262792,-0.21705466306763468,0.004102126695215702,0.0023969709873199463,3.3333804528445,-0.017305999994277954
1745973434828235800,0.42123583984375,-0.40573304281714095,-0.19016925990581512,-0.1449839521378796,0.02759580686688423,-0.2359016633922917,0.936896326090319,-0.5634770835695924,left,0.010952234268188477,-0.3379275042646827,-3.6517028906613587,-8.500881874454022,-0.21343686709215864,0.04246116429567337,-0.014012247323989868,3.2512241476833816,-0.015632808208465576
1745973434868236000,0.461236083984375,-0.40596934015836217,-0.16346463561058044,-0.1454831410208362,0.035477109253406525,-0.23851369010553064,0.9366590038368966,-0.5677064453519841,left,0.00032407045364379883,-0.332376729917329,-3.6607819769129155,-8.516467566120625,-0.2112241691960734,0.057886555790901184,-0.013986408710479736,3.1998183700948952,-0.000008344650268554688
1745973434908236000,0.501236083984375,-0.40709627116775166,-0.11024802178144455,-0.14609689387205316,0.06790145486593246,-0.24081125551896299,0.9362396201316523,-0.5719755367028823,left,-0.006735026836395264,-0.3288455877673516,-3.674828037922084,-8.522659406498073,-0.21004998842543227,0.02919798344373703,-0.002244800329208374,3.1670649782672524,0.010772138833999634
1745973434948236000,0.541236083984375,-0.406659113191066,-0.05487693473696709,-0.14569609312204798,0.13004228472709656,-0.24264120380121723,0.9359008005994797,-0.5754997596141613,left,-0.020987510681152344,-0.32770706897641627,-3.6725258984595537,-8.527571143937111,-0.20973201391674903,-0.00926634669303894,0.017066776752471924,3.156496237979829,0.0077391862869262695
1745973434988236000,0.581236083984375,-0.40099066269480943,-0.01427227258682251,-0.1424948693517083,0.17351575195789337,-0.24415476734422456,0.9359190122692106,-0.5779424890131929,left,-0.015068113803863525,-0.3296153785341228,-3.6217712782561775,-8.542690387135744,-0.2100933598076956,-0.041254326701164246,0.02864772081375122,3.174208712542057,-0.007184326648712158
1745973435028236000,0.621236083984375,-0.3907029840934897,-0.011588573455810547,-0.1372772202394459,0.1975966840982437,-0.2454183548970125,0.9364296584860112,-0.5788330784708938,left,-0.025461316108703613,-0.3316271067907321,-3.5312577713772653,-8.573575354743003,-0.20981960910785258,-0.04609641805291176,0.041870832443237305,3.192868404826522,-0.019329100847244263
1745973435068235800,0.66123583984375,-0.38292728870823634,-0.028847748413681984,-0.133450898779046,0.21364158391952515,-0.24645082224902887,0.9368374256291955,-0.5794833312453611,left,-0.027979493141174316,-0.3323878464488183,-3.46357744307518,-8.598518657341598,-0.2092568374323912,-0.0796440988779068,0.039853572845458984,3.1999215382084247,-0.013465464115142822
1745973435108236000,0.701236083984375,-0.372997289459372,-0.04477798938751221,-0.12846665877199076,0.22979894280433655,-0.24820109734314294,0.9372209651716549,-0.5812367879613907,left,-0.009809315204620361,-0.33335673780467406,-3.376893431356549,-8.629595932650565,-0.20858898744925358,-0.0942799299955368,0.025302857160568237,3.20890154799968,-0.0206870436668396
1745973435148236000,0.741236083984375,-0.3609975959810809,-0.08615481853485107,-0.12222096461104676,0.17221589386463165,-0.2511330230019832,0.937411219652409,-0.5851519239737926,left,0.014594674110412598,-0.3347485635346788,-3.2715196244761344,-8.665308466544747,-0.20797657034255404,-0.10880097001791,0.0029777884483337402,3.221796100886166,-0.012763172388076782
1745973435187934000,0.780933837890625,-0.35563812773207687,-0.09155005216598511,-0.11899069533352716,0.004757981281727552,-0.25423991114188393,0.9369767362835025,-0.5907896357734027,left,0.02438942901790142,-0.335604510736012,-3.2240701832979917,-8.68012960357964,-0.2080331178241629,-0.06626041233539581,-0.0038085845299065113,3.2297228022322058,0.004149023909121752
1745973435227934000,0.820933837890625,-0.35766605892550485,-0.0669611468911171,-0.11997396265188573,-0.02886602282524109,-0.25500765295849814,0.9367043340083746,-0.5925581396473211,left,0.017700552940368652,-0.3342087226279864,-3.243241039974987,-8.677787424367665,-0.20775516865496937,-0.0038047730922698975,-0.002254575490951538,3.2167955161198973,0.00419202446937561
1745973435267934000,0.860933837890625,-0.35969041498732124,-0.042372241616249084,-0.12095702980597577,-0.06249002739787102,-0.25577497747517625,0.9364303368393486,-0.5943228364494537,left,0.011007964611053467,-0.33280955601364626,-3.2623823782965538,-8.675408420276641,-0.20747686869062146,0.058650869876146317,-0.0007035434246063232,3.2038302360847593,0.004238903522491455
1745973435307933700,0.90093359375,-0.36112165366476423,-0.015767967328429222,-0.12206618401723403,-0.0015740469098091125,-0.25591403282611946,0.9364917206897148,-0.5942910241828039,left,-0.02459627389907837,-0.33001992865840885,-3.2779408896952864,-8.679057590433954,-0.20637597321609769,0.09126722812652588,0.012844949960708618,3.177962219856679,-0.0023828446865081787
1745973435347933700,0.94093359375,-0.3594459249101026,-0.014502327889204025,-0.12192848764045942,0.06361724436283112,-0.2560089698514999,0.9368974981446065,-0.5933171700410041,left,-0.017013072967529297,-0.3265123600100332,-3.267293238952756,-8.69491976095438,-0.2044893827754172,0.06005058065056801,0.029165416955947876,3.145401427991688,-0.0017817318439483643
1745973435387933700,0.98093359375,-0.3536922490339287,0.0008035944774746895,-0.11934645246436587,0.12730321288108826,-0.2565271351349781,0.9373075477351436,-0.5930443606023145,left,-0.011765062808990479,-0.3259597113377712,-3.2178134609907865,-8.715203839570284,-0.20348140683113994,-0.08199337124824524,0.03326830267906189,3.140267572234571,0.012458056211471558
1745973435427934000,1.020933837890625,-0.3486914156516687,0.022525398060679436,-0.11617786484767482,0.010004670359194279,-0.256937113955804,0.9372469296118865,-0.593900296293582,left,0.050945281982421875,-0.3306978634242573,-3.169070765131712,-8.717104704755544,-0.2050708069762298,-0.16584068536758423,0.006936520338058472,3.184250798606872,0.010040968656539917
1745973435467934000,1.060933837890625,-0.34995938476938704,0.01493752934038639,-0.11596857711587075,-0.09138249605894089,-0.2567340394062269,0.9368187580734056,-0.5947783341205131,left,0.028860270977020264,-0.3352685178449142,-3.175098062597215,-8.699317119130491,-0.20738745258094865,-0.1508725881576538,0.003446608781814575,3.226611684474349,0.012789130210876465
1745973435507934000,1.100933837890625,-0.35468688820942496,0.0068143205717206,-0.11717318716048399,-0.10855620354413986,-0.25617249792426405,0.9360894530681543,-0.5959307380776038,left,-0.002097606658935547,-0.3409487905227725,-3.2097713165715334,-8.666881999471784,-0.21067138049254405,-0.06300806254148483,-0.006885260343551636,3.2791622481837868,0.007691919803619385
1745973435547933700,1.14093359375,-0.35819700463009246,-0.011676126159727573,-0.11861202977922741,-0.09589172154664993,-0.25591326366892675,0.9357695795830175,-0.5963963278197577,left,-0.0005443692207336426,-0.3419348017057931,-3.239038035327196,-8.652530233514309,-0.2116008588457438,0.0001811981201171875,-0.009734570980072021,3.2882734831392764,0.0054624974727630615
1745973435587933700,1.18093359375,-0.36217280933799806,-0.033100247383117676,-0.120519800716284,-0.08039198815822601,-0.25588410278273954,0.935487669616432,-0.5970587085639741,left,-0.011222600936889648,-0.34118377412536066,-3.2742873356238005,-8.641890766078234,-0.21180453886084433,0.03250332921743393,-0.005846619606018066,3.2813337470039725,-0.00007081031799316406
1745973435627933700,1.22093359375,-0.36428959101994673,-0.06858041882514954,-0.12165695562741298,-0.08078335970640182,-0.2562284067073735,0.9353302354458878,-0.597918954049657,left,-0.007669806480407715,-0.33966949201854973,-3.294339359049499,-8.639573136785627,-0.21143303552711215,0.05736486613750458,0.001180112361907959,3.267335909050703,-0.007030844688415527
1745973435667934000,1.260933837890625,-0.36640379175943905,-0.1040605902671814,-0.12279390188363085,-0.08117473125457764,-0.2565723083516987,0.9351712893262323,-0.5987752973457635,left,-0.004122257232666016,-0.33815342954295674,-3.3143685861214993,-8.637203485044836,-0.21106116915267248,0.08222641050815582,0.008204519748687744,3.253314397960901,-0.013988375663757324
1745973435707934000,1.300933837890625,-0.3723591380805597,-0.09921491891145706,-0.1261229506635784,-0.06417513638734818,-0.25889295285786323,0.9345292818034683,-0.6035151530390095,left,0.00003612041473388672,-0.3315547093886021,-3.3734842074349523,-8.63712165198028,-0.20909892870180832,0.0586729571223259,0.006553739309310913,3.1921970814362166,0.01733037829399109
1745973435747934000,1.340933837890625,-0.3741799501651749,-0.06941564381122589,-0.12714704881753536,-0.07537835836410522,-0.2596894209468234,0.9343135704024608,-0.605115408638124,left,0.004632532596588135,-0.32941065395897945,-3.3916987863004207,-8.637315713247656,-0.20845405929396665,0.021160896867513657,0.0062178075313568115,3.1723090164005754,0.02062365412712097
1745973435787934000,1.380933837890625,-0.37785714677502646,0.05168906971812248,-0.1289151878339749,-0.060900893062353134,-0.25908439783295273,0.9341400922075769,-0.6046402012547412,left,0.0002898573875427246,-0.3294050655005735,-3.4234435856074095,-8.624801684111356,-0.20889798475173493,0.023273343220353127,-0.001386195421218872,3.172257286213338,0.006629854440689087
1745973435827933700,1.42093359375,-0.3785861127760087,0.07678929716348648,-0.12940734614667382,-0.06956281512975693,-0.25792225249057943,0.9343535743686907,-0.6024349515297972,left,0.0020351409912109375,-0.32990155168572965,-3.429147350206971,-8.62083921022117,-0.20907714685454443,0.02289835922420025,-0.00414767861366272,3.176863903225958,0.0025953054428100586
1745973435867933700,1.46093359375,-0.37931394769316146,0.10188952833414078,-0.12989926887365646,-0.07822473347187042,-0.2567596748286411,0.9345653786911206,-0.6002296234667113,left,0.0037798285484313965,-0.3303994548372626,-3.4348347481936212,-8.616870306590199,-0.20925592832419418,0.02252337522804737,-0.006910830736160278,3.1814827951982614,-0.0014405250549316406
1745973435907934000,1.500933837890625,-0.38265268899000415,0.0824873149394989,-0.1317931596554953,-0.09086517244577408,-0.2530537294577272,0.9350764720859763,-0.593605981550853,left,-0.0017247796058654785,-0.33269689226547333,-3.460846849067509,-8.59855139056742,-0.2103008331611575,-0.01778203435242176,-0.008213669061660767,3.202785987728834,-0.02465185523033142
1745973435947934000,1.540933837890625,-0.38631908360449324,0.024703584611415863,-0.133209560550176,-0.028891872614622116,-0.25126839880940033,0.9349366997812685,-0.5914359017369697,left,-0.009327590465545654,-0.3360635247105021,-3.4882667709127064,-8.575767896351218,-0.21216200707316482,-0.08869066089391708,-0.007817208766937256,3.2339728608921168,-0.013171285390853882
1745973435987934000,1.580933837890625,-0.3865163536622886,0.015970397740602493,-0.13295853503138907,0.0017999541014432907,-0.2513276146670041,0.9347561042236757,-0.5920437745051085,left,0.0015226006507873535,-0.33784443395107194,-3.487781617744267,-8.569731538796425,-0.21304297993657673,-0.10009894520044327,-0.006480097770690918,3.250455501398444,-0.007082462310791016
1745973436027934000,1.620933837890625,-0.38690919782439126,0.00030418485403060913,-0.13280471560726156,-0.0020060320384800434,-0.25155765980908845,0.9345330102117818,-0.5929952653233694,left,0.0012712478637695312,-0.3393497217738635,-3.4892978675261137,-8.563819684404134,-0.21384480345533308,-0.09449350833892822,-0.004872679710388184,3.2643791050717232,-0.0032809972763061523
1745973436067933700,1.66093359375,-0.387303760023825,-0.015362028032541275,-0.132650786498251,-0.0058120181784033775,-0.25178753581193614,0.9343092186790158,-0.5939479417858127,left,0.001017451286315918,-0.3408546368366712,-3.490817332178354,-8.557884449136257,-0.21464644916839132,-0.08888807147741318,-0.0032649338245391846,3.2782918950900433,0.0005216598510742188
1745973436107933700,1.70093359375,-0.38873006309881697,-0.039994217455387115,-0.13230271729662962,-0.00010900385677814484,-0.2532228069693766,0.9334927147225783,-0.5982183680845228,left,0.002917766571044922,-0.3443655185526111,-3.4986358969748017,-8.54219295900762,-0.21671494528295368,-0.04642094671726227,-0.0005857348442077637,3.3107208772689103,0.004126489162445068
1745973436147934000,1.740933837890625,-0.3894601517921898,-0.04525352269411087,-0.13244198536723065,-0.009867756627500057,-0.2538519326001769,0.933235390323228,-0.5997854765400824,left,0.0038510560989379883,-0.34456454425713334,-3.5046211088642476,-8.539026603931188,-0.21700214145928862,-0.022078337147831917,-0.00011110305786132812,3.312558029568195,0.003818035125732422
1745973436187723500,1.7807236328125,-0.3913204089717704,-0.023179858922958374,-0.13303671583312832,-0.0024656830355525017,-0.2550983705853594,0.9327456245926123,-0.6028046360999432,left,0.0024227146059274673,-0.34422033885240627,-3.5209345302835104,-8.533545542171597,-0.21728204493903203,0.003121801186352968,-0.0004994985647499561,3.3093808608368036,0.005986870266497135
1745973436227723500,1.8207236328125,-0.3917897774867225,-0.016663946211338043,-0.13320534215698426,-0.003662897041067481,-0.25521725139168394,0.9326631901865177,-0.6031832333218492,left,0.0007178783416748047,-0.3442775745486124,-3.5248671935573217,-8.531717157700657,-0.21739323426445648,-0.001742835622280836,0.00006434321403503418,3.30990926862508,0.0058009326457977295
1745973436267723500,1.8607236328125,-0.39225917246083414,-0.010148033499717712,-0.1333739707768801,-0.00486011104658246,-0.2553360342335938,0.932580687855264,-0.6035616903999923,left,-0.0009871125221252441,-0.3443346792542592,-3.5287992723092434,-8.529887019664049,-0.21750442199788847,-0.006607473362237215,0.0006281435489654541,3.310436215108633,0.005615144968032837
1745973436307723500,1.9007236328125,-0.39225917246083414,-0.003632121719419956,-0.1333739707768801,-0.006057325284928083,-0.2553360342335938,0.932580687855264,-0.6035616903999923,left,-0.002505481243133545,-0.3443346792542592,-3.5287992723092434,-8.529887019664049,-0.21750442199788847,-0.011472109705209732,0.0007909536361694336,3.310436215108633,0.005483090877532959
1745973436347723500,1.9407236328125,-0.39232433817895107,-0.02905217930674553,-0.13329572507562915,0.01588146947324276,-0.2559227442403738,0.9324269026905599,-0.6047952426527551,left,0.0013074874877929688,-0.3441748155051575,-3.529557397200167,-8.53014596286118,-0.21752204685597357,0.025584915652871132,0.00024181604385375977,3.308960589598119,-0.0035032331943511963
1745973436387723800,1.980723876953125,-0.39223268399656763,-0.037019744515419006,-0.13338669997698668,0.013388046994805336,-0.2563429213560921,0.9324226039629405,-0.6053684831008617,left,0.0005531907081604004,-0.34294894768855294,-3.530323413136601,-8.53421131260395,-0.21698918667243627,0.03847993165254593,-0.000057697296142578125,3.2976413232043384,-0.002933412790298462
1745973436427723500,2.0207236328125,-0.39214034895751426,-0.044987305998802185,-0.13347761231060282,0.010894623585045338,-0.25676302337366746,0.9324178905113881,-0.6059417037540819,left,-0.000202178955078125,-0.34172312721772635,-3.5310777386352417,-8.538266140952706,-0.21645622480983315,0.051374949514865875,-0.00035840272903442383,3.286317672896385,-0.002363145351409912
1745973436467723500,2.0607236328125,-0.3920139411356181,-0.0346662700176239,-0.13391100410730633,0.0158485546708107,-0.25789833832780373,0.9324486562969032,-0.6073442998628839,left,-0.0030535459518432617,-0.3377034288986655,-3.53501683164984,-8.550851481759548,-0.21469920068033296,0.05387549474835396,0.0014127492904663086,3.2491508485406637,-0.0035735666751861572
1745973436507723500,2.1007236328125,-0.3918705237688248,-0.027555881068110466,-0.1339803494956542,0.014067480340600014,-0.25810973489709677,0.9324835341495465,-0.6075229783800408,left,-0.0008793473243713379,-0.33673345904791446,-3.5349922817304726,-8.554266843160987,-0.2142499154358977,0.048744164407253265,0.0009048283100128174,3.240174345880747,-0.003987669944763184
1745973436547723500,2.1407236328125,-0.39172701325068215,-0.02044549211859703,-0.13404966321745726,0.012286406010389328,-0.2583211353897118,0.9325181971304097,-0.6077019116697742,left,0.0012941956520080566,-0.3357635089478402,-3.5349630556359886,-8.557675190299749,-0.21380057961726107,0.043612830340862274,0.00039640069007873535,3.231195212872326,-0.004401475191116333
1745973436587723500,2.1807236328125,-0.39191823295467315,0.02670489251613617,-0.1343086207735584,-0.012578366324305534,-0.257833862942573,0.9326619429531626,-0.6066169606236965,left,-0.0010448098182678223,-0.33542697989284664,-3.5370144352078436,-8.558003107079863,-0.21359883297301374,-0.02199968695640564,-0.0007250308990478516,3.228079126678407,-0.00013691186904907227
1745973436627723800,2.220723876953125,-0.3921740575280756,0.031003480777144432,-0.13434058503436433,-0.004641381092369556,-0.25754954589687873,0.9326517914044318,-0.6062611184572283,left,-0.00592726469039917,-0.3362109795723283,-3.538235209174454,-8.554756672504544,-0.21396586976110277,-0.015646180137991905,-0.0022520720958709717,3.2353380117654797,-0.003877997398376465
1745973436667723800,2.260723876953125,-0.3921209920743502,0.00881057046353817,-0.134306649641808,0.0016686769668012857,-0.2570801855682922,0.9327345558190998,-0.6054004085640015,left,-0.00041997432708740234,-0.33684501580732235,-3.536996607290208,-8.553046945977211,-0.2141907446173622,-0.0037565859965980053,0.0010811984539031982,3.241206903798878,-0.0013884902000427246
1745973436707723500,2.3007236328125,-0.3921209920743502,0.0028677983209490776,-0.134306649641808,0.003519798628985882,-0.2570801855682922,0.9327345558190998,-0.6054004085640015,left,-0.0027994513511657715,-0.33684501580732235,-3.536996607290208,-8.553046945977211,-0.2141907446173622,-0.0077981362119317055,0.0008961260318756104,3.241206903798878,-0.0008129775524139404
1745973436747723500,2.3407236328125,-0.3921209920743502,-0.0030749738216400146,-0.134306649641808,0.005370920058339834,-0.2570801855682922,0.9327345558190998,-0.6054004085640015,left,-0.005178868770599365,-0.33684501580732235,-3.536996607290208,-8.553046945977211,-0.2141907446173622,-0.011839685961604118,0.0007110238075256348,3.241206903798878,-0.00023746490478515625
1745973436787723500,2.3807236328125,-0.39226934565945143,0.0076164361089468,-0.13472207582186752,0.014175204560160637,-0.2573340281416662,0.9328290370343314,-0.6054333739925277,left,0.0011663436889648438,-0.3346546363460374,-3.540971063879132,-8.559062260743975,-0.213211702459539,0.010253937914967537,0.0007121860980987549,3.2209260400533672,0.0018768310546875
1745973436827723500,2.4207236328125,-0.39226934565945143,0.00226488895714283,-0.13472207582186752,0.0072310930117964745,-0.2573340281416662,0.9328290370343314,-0.6054333739925277,left,0.0018173456192016602,-0.3346546363460374,-3.540971063879132,-8.559062260743975,-0.213211702459539,-0.0027685891836881638,0.0019367635250091553,3.2209260400533672,0.00028187036514282227
1745973436867723800,2.460723876953125,-0.39226934565945143,-0.0030866586603224277,-0.13472207582186752,0.0002869819290935993,-0.2573340281416662,0.9328290370343314,-0.6054333739925277,left,0.0024683475494384766,-0.3346546363460374,-3.540971063879132,-8.559062260743975,-0.213211702459539,-0.015791116282343864,0.0031613409519195557,3.2209260400533672,-0.0013130903244018555
1745973436907723800,2.500723876953125,-0.39239433877771723,-0.004134455230087042,-0.13455772748208922,-0.024209413677453995,-0.2574695877527125,0.932697023771483,-0.6060046160900384,left,0.006192982196807861,-0.33566677976292136,-3.540792492441833,-8.55560306020081,-0.21372849141319214,-0.011648731306195259,-0.0026049911975860596,3.2302994330763815,-0.004057258367538452
1745973436947723500,2.5407236328125,-0.3936002607852323,0.008720092475414276,-0.13503264242637839,-0.028722813352942467,-0.2573188436377647,0.9325812607034168,-0.6060815425235833,left,0.0017760992050170898,-0.3361622650610638,-3.5504929254621267,-8.549847273153066,-0.21411511591826923,-0.01282644271850586,-0.0030347108840942383,3.234887053127587,-0.0005809664726257324
1745973436987723500,2.5807236328125,-0.39427609487309334,0.017099272459745407,-0.13527282249211045,-0.021007567644119263,-0.2570601937834643,0.9325354507752421,-0.6058398447986735,left,-0.00008392333984375,-0.33679305082181693,-3.5554859114438293,-8.545560389614105,-0.21447363300842273,-0.02263820543885231,-0.00202023983001709,3.240726134544611,-0.00028136372566223145
1745973437027723500,2.6207236328125,-0.3949518479165519,0.025478452444076538,-0.13551295467535393,-0.013292321935296059,-0.25680144988807024,0.9324893580501283,-0.6055984408031694,left,-0.0019446015357971191,-0.3374239445411737,-3.5604724676847455,-8.541267076334357,-0.2148320745026093,-0.03244996815919876,-0.001006394624710083,3.246564631439745,0.000018298625946044922
1745973437067723500,2.6607236328125,-0.3956965168570661,-0.002500320551916957,-0.1355294201988908,-0.00666666217148304,-0.2564296849169482,0.932344229147321,-0.6055075283394512,left,0.0014491081237792969,-0.33955362664424066,-3.564158754982054,-8.53221400130689,-0.21589331430350475,-0.02574518881738186,-0.002330601215362549,3.266264772687852,-0.0053685009479522705
1745973437107723800,2.700723876953125,-0.3956965168570661,-0.01345909759402275,-0.1355294201988908,-0.003387614618986845,-0.2564296849169482,0.932344229147321,-0.6055075283394512,left,-0.00260770320892334,-0.33955362664424066,-3.564158754982054,-8.53221400130689,-0.21589331430350475,-0.011119660921394825,-0.002268195152282715,3.266264772687852,-0.004174739122390747
1745973437147723800,2.740723876953125,-0.39599277804255484,-0.0054128412157297134,-0.1355184373143497,0.01245854515582323,-0.2569129839012161,0.932169078629587,-0.606652861353248,left,-0.00028330087661743164,-0.33971226285885847,-3.566486321146786,-8.530679046824574,-0.21608134953774638,-0.0034243327099829912,0.00005218386650085449,3.2677316303700206,0.0017234086990356445
1745973437187723500,2.7807236328125,-0.39599277804255484,0.0009783771820366383,-0.1355184373143497,0.008267641067504883,-0.2569129839012161,0.932169078629587,-0.606652861353248,left,0.0012798905372619629,-0.33971226285885847,-3.566486321146786,-8.530679046824574,-0.21608134953774638,-0.00875785481184721,0.0004579126834869385,3.2677316303700206,0.0019463598728179932
1745973437227723500,2.8207236328125,-0.3954644974515737,0.02692333608865738,-0.13501314649762594,-0.009567201137542725,-0.25659850063907236,0.9321548379985,-0.6063191067560881,left,0.0031671524047851562,-0.3415551765376071,-3.5596532602563498,-8.526990713700652,-0.21683156254840444,-0.03222151845693588,-0.0012388825416564941,3.284766059540212,0.0064015984535217285
1745973437267723500,2.8607236328125,-0.3954597145345787,0.02851918898522854,-0.13484471394989733,-0.006055137142539024,-0.2561877414631133,0.9321522486257309,-0.6057884489953745,left,0.004405617713928223,-0.3429529213179565,-3.557840365615487,-8.522762282350659,-0.21743263534051932,-0.02386881411075592,-0.0010381340980529785,3.2976781480833885,0.006227314472198486
1745973437307723500,2.9007236328125,-0.39546830997591953,0.020397398620843887,-0.1348221149914106,-0.005294227972626686,-0.2559671641724401,0.9321773707618778,-0.6054217621236563,left,0.004842817783355713,-0.3433683140208225,-3.5573856075853105,-8.521466981843114,-0.2175984794895962,-0.007729519158601761,-0.000632941722869873,3.3015140729844568,0.003953695297241211
1745973437347723500,2.9407236328125,-0.3954767225025932,0.012275607325136662,-0.13479949905163366,-0.004533319268375635,-0.25574653789955865,0.9322024589354455,-0.605054967658437,left,0.005279898643493652,-0.34378372398969026,-3.556928511467576,-8.520170512291788,-0.21776429914757117,0.00840977393090725,-0.00022801756858825684,3.305349997885525,0.001680135726928711
1745973437387723800,2.980723876953125,-0.39543805755375117,-0.00896539818495512,-0.135077066359633,-0.002700632670894265,-0.25550530020844614,0.9323784082460099,-0.6042080074125556,left,0.0023990273475646973,-0.34251045539992625,-3.558217382234335,-8.524185008630155,-0.2171213916561139,0.05203152447938919,0.0008663535118103027,3.2935914632916448,0.0003571510314941406
1745973437427723500,3.0207236328125,-0.3954293944767065,-0.009419436566531658,-0.13527031371221973,-0.01664699800312519,-0.2554653182363589,0.9324736256434429,-0.6038676817078725,left,0.009769856929779053,-0.34150591696268834,-3.559416236630082,-8.527264854466914,-0.21663892687053504,0.05382736027240753,0.00010129809379577637,3.2843107169881463,0.0002313554286956787
1745973437467723500,3.0607236328125,-0.396210142865007,-0.0012124312343075871,-0.13615732388777527,-0.005430360324680805,-0.2552833233646239,0.9326685300123252,-0.6029844674777991,left,-0.011790156364440918,-0.33882475491982855,-3.5694583226948975,-8.532575820356607,-0.21545504627821555,0.04198714718222618,-0.00009486079216003418,3.2595240662559863,-0.0010823607444763184
1745973437507723500,3.1007236328125,-0.3958801193475302,-0.002223784336820245,-0.13611822342788785,0.0003834725357592106,-0.25523584521579107,0.932755938719627,-0.6026775793507013,left,0.0024399161338806152,-0.3383113779075648,-3.5672871161356565,-8.535296185231209,-0.2151576548760949,0.022145334631204605,-0.0013258159160614014,3.254775410424173,-0.0027076303958892822
1745973437547723500,3.1407236328125,-0.39620856986216985,0.002250055316835642,-0.13592176848795973,-0.001301170326769352,-0.2554982982290837,0.9325282612651299,-0.6036946289335743,left,0.001164555549621582,-0.33981724471824637,-3.5681948786303397,-8.529593005153536,-0.21595611146068527,-0.03457653522491455,-0.0016309916973114014,3.2687022289678453,-0.00032073259353637695
1745973437587723500,3.1807236328125,-0.3965275370673432,0.014660604298114777,-0.13584060601943013,-0.0026756785809993744,-0.2552900763933116,0.9324345138177955,-0.603686019083727,left,0.0038320422172546387,-0.3412638601766792,-3.5690851054683326,-8.52408388634324,-0.21665642302157456,-0.040291283279657364,-0.00020831823348999023,3.28207404397726,0.003172248601913452
1745973437627723800,3.220723876953125,-0.39672523333171567,0.022452421486377716,-0.13564986051482475,0.004834810737520456,-0.25495339496207037,0.932349250684912,-0.6034902113640557,left,-0.0032086968421936035,-0.34316975803161565,-3.5683468543216583,-8.51759335528016,-0.21753784893824646,-0.041685234755277634,-0.0004851818084716797,3.299680720077455,0.0027793049812316895
1745973437667723800,3.260723876953125,-0.39644462446362266,0.011179854162037373,-0.13530800331794351,0.0057886093854904175,-0.25467844766940173,0.9323257949320953,-0.603215651588364,left,0.00170135498046875,-0.34467953993470374,-3.564028698861599,-8.513989193308353,-0.2181722041170259,-0.018337488174438477,-0.0022697150707244873,3.313619521319866,-0.0015330314636230469
1745973437707723500,3.3007236328125,-0.39628895673106557,-0.001462586224079132,-0.13517279776257984,0.010186499916017056,-0.2546323411502611,0.9323190669401026,-0.6031846853340237,left,0.0004284977912902832,-0.34509322362320777,-3.5621740109056232,-8.513278414690493,-0.21833895314718663,0.004011955112218857,-0.0008841454982757568,3.317437326042354,-0.0003821253776550293
1745973437747723500,3.3407236328125,-0.3958689158972678,-0.006803018506616354,-0.13509345019335367,0.011046482250094414,-0.2547031877604163,0.9323952435004623,-0.6030735168478109,left,0.001851201057434082,-0.3444392955629976,-3.559433480025828,-8.51677385559082,-0.217979674705555,0.02728589065372944,-0.0022512078285217285,3.311401845270395,-0.0015101730823516846
1745973437787723500,3.3807236328125,-0.3955511042093262,-0.006720519158989191,-0.1351837020642768,0.006652266252785921,-0.25480342063662914,0.9325118864873668,-0.6028724826325546,left,0.0022370219230651855,-0.34308146328800987,-3.558455574904382,-8.522045658513903,-0.21730613486543876,0.03386181592941284,-0.0015280842781066895,3.2988653120413423,0.0002294778823852539
1745973437827723500,3.4207236328125,-0.39514940723951697,0.004244766663759947,-0.1352089829519615,0.010883639566600323,-0.254759854163795,0.9326485721218023,-0.6024266019920691,left,0.0006830692291259766,-0.34205104846113116,-3.556338728880882,-8.526607267341017,-0.21675456247775018,0.022710531949996948,-0.00030815601348876953,3.2893475421115754,0.0011362731456756592
1745973437867723800,3.460723876953125,-0.39442810067462086,0.01820138655602932,-0.13500018955212892,0.015966340899467468,-0.25454521924502693,0.9328037277890102,-0.6017185979048958,left,0.0035576820373535156,-0.3417311980890378,-3.5505917096614836,-8.530141286686062,-0.2164688992589196,0.008153321221470833,0.0018238425254821777,3.28639219943732,0.0014208853244781494
1745973437907723800,3.500723876953125,-0.3935586303652576,0.027450278401374817,-0.13463308741123048,0.014626150950789452,-0.25414507667208935,0.932963135054921,-0.6007615821318512,left,0.0031185150146484375,-0.3421408728814621,-3.542657117269933,-8.531980777072906,-0.21648085638265813,-0.001459517516195774,0.0013283789157867432,3.2901772709339854,0.0028283894062042236
1745973437947723500,3.5407236328125,-0.39266482656580626,0.029704639688134193,-0.13424269156459298,0.015018496662378311,-0.2536165206705653,0.9331402700418041,-0.5995806566113501,left,-0.0011596083641052246,-0.34277885077610154,-3.534225681272149,-8.533203012344242,-0.21657939186912553,0.0002852524630725384,0.0006418526172637939,3.2960704206258056,0.0017079710960388184
1745973437987723500,3.5807236328125,-0.3918803156632927,0.019641513004899025,-0.13397210734789175,0.010021127760410309,-0.25312761572144526,0.9333317696483264,-0.598401534767529,left,0.0007881522178649902,-0.3429819311374098,-3.527274546959996,-8.535354052898287,-0.2164937100358232,0.01899685710668564,0.0007790327072143555,3.29794615136981,-0.0020689070224761963
1745973438027723500,3.6207236328125,-0.3916482181085857,0.018384737893939018,-0.13409920028526504,-0.010256025940179825,-0.2527579993584946,0.933519015550708,-0.5973620857680011,left,0.00318300724029541,-0.34220421406486834,-3.526271507397294,-8.538540866240858,-0.21603930817619985,0.04443880170583725,-0.0005649030208587646,3.290762377345562,-0.00066414475440979
1745973438067723500,3.6607236328125,-0.39154953900651057,0.021499838680028915,-0.13447858389469838,-0.000176209956407547,-0.25225845134703934,0.9338017048209307,-0.5958548420324118,left,-0.006460964679718018,-0.34053818043593514,-3.5275162467613814,-8.54394418658912,-0.21516406132509538,0.0578436478972435,0.0009559392929077148,3.2753669475540517,-0.0007090270519256592
1745973438107723800,3.700723876953125,-0.39061322495741907,0.034311443567276,-0.134497277313696,0.0014924032147973776,-0.25160198828253844,0.9341952175371063,-0.5938537881061512,left,0.0038341283798217773,-0.3390058249442225,-3.5214217292785643,-8.551874395066498,-0.21421070327942907,0.05012192204594612,-0.000026553869247436523,3.2611987214699387,0.0017443597316741943
1745973438147723800,3.740723876953125,-0.3903662583478426,0.05956066772341728,-0.13477147860823366,-0.025516431778669357,-0.25057874674925734,0.9345607869454191,-0.591405536600054,left,0.007422089576721191,-0.33819140685510723,-3.5203190287336703,-8.555196817487477,-0.21364218893937095,0.03725986182689667,-0.0004800856113433838,3.253665695616603,0.005595177412033081
1745973438187723500,3.7807236328125,-0.39051155439677687,0.07533279061317444,-0.13519066308076627,-0.029454130679368973,-0.24910355865842454,0.934949171893271,-0.5882582649592479,left,0.0028844475746154785,-0.33809362107454743,-3.521683302824199,-8.554979959866404,-0.21340314647485353,0.02574557065963745,-0.001969665288925171,3.252760855731368,0.002060532569885254
1745973438227723500,3.8207236328125,-0.3907085588965232,0.05975000560283661,-0.13558012694424845,-0.023507550358772278,-0.24759069865756245,0.9353125969235381,-0.5851260474267213,left,-0.00008887052536010742,-0.3383303652134763,-3.5230750494435426,-8.553573600199819,-0.2133240427215488,0.022435396909713745,-0.002093017101287842,3.2549510592520234,-0.0032580792903900146
1745973438267723500,3.8607236328125,-0.39083909518755594,0.028627105057239532,-0.1358054610203987,-0.010461850091814995,-0.2466676005808969,0.9355244254168575,-0.5832407954958881,left,-0.00012701749801635742,-0.3385679889373032,-3.523896887220442,-8.552398126679659,-0.21332117000139025,0.004097092896699905,-0.002162843942642212,3.25714915381819,-0.003451913595199585
1745973438307723500,3.9007236328125,-0.39083140808554495,0.02969895489513874,-0.13588653421800695,0.010426495224237442,-0.24620885714065843,0.9356369631997967,-0.5822858330030128,left,-0.002983570098876953,-0.33867916616841853,-3.523693181341886,-8.552090668165683,-0.21330629914451898,0.006510232109576464,-0.0013173818588256836,3.2581776200830936,0.004239439964294434
1745973438347723500,3.9407236328125,-0.39036836610894926,0.020541761070489883,-0.13582216612143666,0.0015857843682169914,-0.24574223374279286,0.9358197593417921,-0.581135592509462,left,0.0036263465881347656,-0.33848695935838397,-3.519970945948362,-8.5543001609087,-0.21308311020590992,0.010756492614746094,-0.0013956129550933838,3.256399504494667,0.002253502607345581
1745973438387723800,3.980723876953125,-0.3904269232212871,0.006993195042014122,-0.1359413778624767,-0.005241090897470713,-0.24545253110205667,0.9359026295530598,-0.5804925508065273,left,0.004394888877868652,-0.3383356372405992,-3.520659512734413,-8.554549751755594,-0.21297720680515178,0.004647965542972088,0.000033348798751831055,3.254999866829812,0.0012142956256866455
1745973438427723500,4.0207236328125,-0.3904269232212871,-0.006490547209978104,-0.1359413778624767,-0.012538496404886246,-0.24545253110205667,0.9359026295530598,-0.5804925508065273,left,0.002763032913208008,-0.3383356372405992,-3.520659512734413,-8.554549751755594,-0.21297720680515178,0.007101970724761486,-0.0013731122016906738,3.254999866829812,0.0013678669929504395
1745973438467723500,4.0607236328125,-0.39129704073510235,-0.00944990199059248,-0.13645394685242251,-0.00874047540128231,-0.24554522405736473,0.9358617301430805,-0.580686812423325,left,-0.000537574291229248,-0.33751714501334823,-3.5291163754343984,-8.5539430180341,-0.21272190143281172,0.023275036364793777,-0.0032966136932373047,3.247427093487978,3.5762786865234375e-7
1745973438507723500,4.1007236328125,-0.3916762283858705,-0.013768836855888367,-0.13684614731513275,0.0005513299256563187,-0.24566895202771297,0.9359068291401831,-0.580692501822843,left,-0.0022127628326416016,-0.3361190184443809,-3.534089487671852,-8.556791977724432,-0.2121276729708326,0.03831545636057854,-0.002823859453201294,3.2344866556331513,-0.001490950584411621
1745973438547723500,4.1407236328125,-0.39174914925889837,-0.01774406246840954,-0.1371482366537162,0.0017127604223787785,-0.24588396907316,0.9359870104110491,-0.5807327583121837,left,0.0002988576889038086,-0.3343512677371466,-3.5368911010891195,-8.561806006494164,-0.21132854006365018,0.04139818623661995,-0.0029585659503936768,3.218115951068699,-0.003230065107345581
1745973438587723500,4.1807236328125,-0.392016439177655,-0.01616848073899746,-0.13752935030348373,-0.008293399587273598,-0.24610365111999652,0.9360435173432086,-0.5808354359644167,left,0.0033579468727111816,-0.33261799371108697,-3.5413051181390878,-8.566001704618333,-0.21057332868714232,0.033274561166763306,-0.002931952476501465,3.202054750844836,-0.004468351602554321
1745973438627723800,4.220723876953125,-0.3923983919893817,-0.001487482339143753,-0.1378820430640163,-0.005994540173560381,-0.24618595940685484,0.9360751288005392,-0.5808212236342402,left,0.0011569857597351074,-0.33149776364441025,-3.5459462219431996,-8.567957514861225,-0.21010538910940843,0.017371891066432,-0.002392113208770752,3.1916692581698296,-0.0037008821964263916
1745973438667723800,4.260723876953125,-0.3924790585214934,0.013355820439755917,-0.13803792584005314,0.0016658362001180649,-0.24599115970782331,0.9361527213714567,-0.5803185464673294,left,-0.0009652376174926758,-0.33107300641039633,-3.547155597732961,-8.568923729544878,-0.20988571688566368,0.010665729641914368,-0.0030012428760528564,3.187730165155232,-0.006477236747741699
1745973438707723500,4.3007236328125,-0.3922375803063379,0.006265940144658089,-0.13800544938165552,0.0031128902919590473,-0.24575919725825768,0.9362471946212413,-0.5797374991295555,left,-0.0011801719665527344,-0.3309454841924916,-3.545241580805182,-8.570155317166448,-0.20975740737934712,0.0004169456660747528,-0.0029220283031463623,3.186547677372396,-0.007922500371932983
1745973438747723500,4.3407236328125,-0.3922375803063379,-0.013330845162272453,-0.13800544938165552,0.0014416702324524522,-0.24575919725825768,0.9362471946212413,-0.5797374991295555,left,0.0034932494163513184,-0.3309454841924916,-3.545241580805182,-8.570155317166448,-0.20975740737934712,-0.015579955652356148,-0.002593904733657837,3.186547677372396,-0.00891980528831482
1745973438787723500,4.3807236328125,-0.3919613348366647,-0.022936353459954262,-0.13768459369617556,0.03360269218683243,-0.24633683501932577,0.9360913258595521,-0.5810035148016104,left,-0.008190691471099854,-0.3313271818020894,-3.542408987727761,-8.570009771215915,-0.20998586144635775,-0.028505612164735794,-0.0006246864795684814,3.190087249675393,-0.0025486350059509277
1745973438827723500,4.4207236328125,-0.3909535632434893,-0.022808833047747612,-0.13698433997238596,0.025485824793577194,-0.24704422806782145,0.9359601473455844,-0.5824167075462733,left,0.006765484809875488,-0.33184734646367164,-3.5331378860354423,-8.572039815738796,-0.21019726353593743,-0.025883104652166367,-0.0014817118644714355,3.194910432048142,0.0006828010082244873
1745973438867723800,4.460723876953125,-0.3906416176997807,-0.009000731632113457,-0.13668683729760775,0.011306275613605976,-0.24754972042822143,0.9358363601865488,-0.5834886611541427,left,0.002916276454925537,-0.33209885518185367,-3.5301574089199304,-8.572398127657175,-0.21034740289222012,-0.009737014770507812,-0.0014771223068237305,3.1972423821270466,0.0043808817863464355
1745973438907723800,4.500723876953125,-0.390271800422128,0.0045914426445961,-0.13649923860099505,0.009095413610339165,-0.24763473106579395,0.9358476509832544,-0.5835929466840383,left,0.0013981461524963379,-0.3321220584345583,-3.526958905139565,-8.573634975975752,-0.21031936046876135,0.007011633366346359,-0.00025153160095214844,3.197457486182451,0.003463149070739746
1745973438947723500,4.5407236328125,-0.390271800422128,-0.00011694245040416718,-0.13649923860099505,-0.0010344823822379112,-0.24763473106579395,0.9358476509832544,-0.5835929466840383,left,-0.00036203861236572266,-0.3321220584345583,-3.526958905139565,-8.573634975975752,-0.21031936046876135,0.014989386312663555,0.0009488761425018311,3.197457486182451,0.0006763339042663574
1745973438987723500,4.5807236328125,-0.390271800422128,0.0022830325178802013,-0.13649923860099505,-0.008946241810917854,-0.24763473106579395,0.9358476509832544,-0.5835929466840383,left,0.005797863006591797,-0.3321220584345583,-3.526958905139565,-8.573634975975752,-0.21031936046876135,0.0007138047367334366,0.004835665225982666,3.197457486182451,0.0018849372863769531
1745973439027723500,4.6207236328125,-0.39115347401781675,0.01192004419863224,-0.13692010291545667,-0.027300342917442322,-0.24735085454017688,0.9358224283574641,-0.5832317208993568,left,0.001805126667022705,-0.3323142324622365,-3.5342823798954486,-8.569953657114505,-0.21049192538599207,-0.012432965449988842,0.003982871770858765,3.1992391089022156,0.003758639097213745
1745973439067723500,4.6607236328125,-0.392241495850398,0.011180614121258259,-0.13740506431875532,-0.03784695640206337,-0.24696498803032968,0.9357813225810969,-0.5827682714888978,left,0.0029101967811584473,-0.332786547687963,-3.543026535104215,-8.5647058195889,-0.2108112384942922,-0.0021532168611884117,0.0006584227085113525,3.203617177855968,0.000709235668182373
1745973439107723800,4.700723876953125,-0.39359658470837344,-0.0011505289003252983,-0.13809208115026322,-0.033510759472846985,-0.24668649554386382,0.9357337945357772,-0.5824476836895652,left,0.0002554655075073242,-0.332662171234015,-3.5547818548277017,-8.56026462227106,-0.21089935475747804,0.017702311277389526,-0.0005620121955871582,3.2024642084285615,-0.0012535154819488525
1745973439147723800,4.740723876953125,-0.3945102548227122,-0.00776501651853323,-0.13869203758273455,-0.01855083927512169,-0.2465944935224152,0.9357468134817897,-0.5822189587335772,left,-0.0012613534927368164,-0.331700684640833,-3.5637834919288753,-8.559851949816942,-0.21055527976825392,0.03165830671787262,-0.002344965934753418,3.1935508341327306,-0.0010422170162200928
1745973439187723500,4.7807236328125,-0.3952039448631531,-0.014428946189582348,-0.13924034688118841,-0.01838000677525997,-0.2466576874136785,0.935775761149325,-0.5821606289917498,left,0.00012749433517456055,-0.33029007041351516,-3.5714515423387287,-8.561526605030894,-0.20998985754999394,0.03229381889104843,-0.003980755805969238,3.1804683574587105,-0.002193152904510498
1745973439227723500,4.8207236328125,-0.39571171230954494,-0.008481999859213829,-0.13968137376367473,-0.0047469595447182655,-0.24676746084609788,0.9358036413550024,-0.5821791665812878,left,-0.004034101963043213,-0.3289583681170982,-3.5774276941388843,-8.563612763655184,-0.20944300890267756,0.025843864306807518,-0.005144655704498291,3.168111856971681,-0.001483917236328125
1745973439267723500,4.8607236328125,-0.39582679635951895,-0.005082880146801472,-0.13989394936407637,-0.005285567604005337,-0.2467890134048894,0.9358602177735637,-0.582022340838495,left,0.0026637911796569824,-0.3280353053240608,-3.579539279465377,-8.565895906156301,-0.20902282834965702,0.019194329157471657,-0.006716519594192505,3.1595436428517103,-0.004583597183227539
1745973439307723500,4.9007236328125,-0.3960048022744709,-0.0029556441586464643,-0.14012110019784602,-0.0024280021898448467,-0.24679775616688188,0.9359066067656472,-0.5818744247528682,left,0.0008779764175415039,-0.3272021336530905,-3.582078150293231,-8.567683958616852,-0.2086522345912625,0.020181039348244667,-0.00718960165977478,3.1518074956417084,-0.006166189908981323
1745973439347723500,4.9407236328125,-0.39598294964759795,0.008252077735960484,-0.14029647927942346,-0.0025419164448976517,-0.24664418243995875,0.9360155401769665,-0.581333666457188,left,0.00299835205078125,-0.32636294450134545,-3.5829099249422547,-8.570199740830063,-0.20822662036976308,0.020581256598234177,-0.006002634763717651,3.1440134807646274,-0.004397541284561157
1745973439387723800,4.980723876953125,-0.39596933381424354,0.015877462923526764,-0.14037885971152625,0.0031514205038547516,-0.24636094937340697,0.9361026785779641,-0.5806904309883918,left,0.001370251178741455,-0.3262212444307553,-3.5829648699998855,-8.570659175035358,-0.20811477621212246,-0.009983941912651062,-0.0033760368824005127,3.142697137469053,-0.0019699037075042725
1745973439427723500,5.0207236328125,-0.39573900726249667,-0.0022452790290117264,-0.14010390282801014,0.017325695604085922,-0.24635308908476145,0.9360505187626459,-0.5808623909132936,left,0.0007879137992858887,-0.3271914967432893,-3.579813712492585,-8.568666539913416,-0.20854368519305322,-0.04090128093957901,-0.00021579861640930176,3.151708711442351,-0.006308525800704956
1745973439467723500,5.0607236328125,-0.3958315900375389,-0.02692430466413498,-0.13978020963927382,0.014702947810292244,-0.24685707561143494,0.935797308177936,-0.5823073009710678,left,-0.002430438995361328,-0.32859423211427397,-3.5788989357352254,-8.564247554427384,-0.20929973662041387,-0.049867331981658936,-0.00034928321838378906,3.164732151405513,-0.005223304033279419
1745973439507723500,5.1007236328125,-0.39567428845541547,-0.041504573076963425,-0.1393194387493493,0.026471462100744247,-0.24776900115984563,0.9354892455936932,-0.5844776393650883,left,0.002146005630493164,-0.3296280634493018,-3.57628875323683,-8.561786717271804,-0.20990578805440535,-0.04833485931158066,0.0012992918491363525,3.1743264937028286,0.00034552812576293945
1745973439547723500,5.1407236328125,-0.39575724720936,-0.04040883481502533,-0.13898308486152833,0.017990872263908386,-0.2488138032643173,0.9351426872660207,-0.5869200423562833,left,0.00237274169921875,-0.33039222042485117,-3.576062835526466,-8.559249307748674,-0.21043627128638778,-0.03654477000236511,0.001743018627166748,3.1814158674418924,0.005787521600723267
1745973439587723500,5.1807236328125,-0.3955806932542808,-0.019051000475883484,-0.13868156752662164,0.00821557268500328,-0.24951980864420678,0.934943528215489,-0.5884781439046488,left,0.005284428596496582,-0.33074543112789795,-3.5741184234604235,-8.558843649557232,-0.21068424573514966,-0.009451229125261307,0.0010789334774017334,3.1846921126335856,0.007220029830932617
1745973439627723800,5.220723876953125,-0.3955806932542808,0.005400612950325012,-0.13868156752662164,-0.002963022328913212,-0.24951980864420678,0.934943528215489,-0.5884781439046488,left,0.0034047961235046387,-0.33074543112789795,-3.5741184234604235,-8.558843649557232,-0.21068424573514966,0.01844434067606926,0.0002487003803253174,3.1846921126335856,0.006118178367614746
1745973439667723800,5.260723876953125,-0.39569564480185093,0.01619456149637699,-0.13893279437674577,-0.018514931201934814,-0.2491379776039085,0.935084371322222,-0.5875311228901267,left,0.0058560967445373535,-0.3301168685229428,-3.5758728659123182,-8.560277481752633,-0.21034490129726718,0.030957527458667755,-0.0009733140468597412,3.178861506783962,0.0018395483493804932
1745973439707723500,5.3007236328125,-0.3961372162872048,0.023636313155293465,-0.13927753923138214,-0.02304796315729618,-0.2485839185164186,0.9351994345374773,-0.5864124518817809,left,0.004605233669281006,-0.3299839520551434,-3.579815466058254,-8.55908797970712,-0.2102611190302981,0.005562813952565193,0.0004912316799163818,3.177628457857668,0.004680752754211426
1745973439747723500,5.3407236328125,-0.39684715967968986,0.028817711398005486,-0.13960091776114325,-0.02280893363058567,-0.24803768561256104,0.9352245462946123,-0.5855613240033497,left,0.0050171613693237305,-0.33061650144488053,-3.585113572466373,-8.55468828344345,-0.21057979172581845,-0.0051698340103030205,0.003420799970626831,3.183496180847287,0.006815165281295776
1745973439787723500,5.3807236328125,-0.39817437411445644,0.0399666428565979,-0.14023853404191175,-0.05406805872917175,-0.24722268913340914,0.9352506533913718,-0.5843034487890035,left,0.004198908805847168,-0.3313624144533163,-3.5955426120221614,-8.5477313039124,-0.21099794081899795,0.007588798180222511,0.0026324689388275146,3.190413997411728,0.007102906703948975
1745973439827723500,5.4207236328125,-0.4001019349719935,0.04257035627961159,-0.14137961088574819,-0.07106569409370422,-0.24605347969138225,0.9353792361727827,-0.5822081688578874,left,0.00022208690643310547,-0.33124232336198745,-3.6121614461287854,-8.541137896996736,-0.21103309957237662,0.04146234691143036,0.00007808208465576172,3.1893004832118748,0.0005185604095458984
1745973439867723800,5.460723876953125,-0.4021394886755829,0.03837005794048309,-0.14279074558630456,-0.07251507043838501,-0.24478278842244772,0.9356089900275563,-0.579645058829018,left,0.0005663633346557617,-0.3300228864709273,-3.6310762822180984,-8.537332659494876,-0.21054207356433197,0.06652858108282089,-0.0025909841060638428,3.1779894001245497,-0.0025927722454071045
1745973439907723800,5.500723876953125,-0.40401444765584454,0.03763997554779053,-0.14419175653186125,-0.06605605781078339,-0.24356269386497897,0.9358712148012904,-0.5770480321307742,left,-0.001673579216003418,-0.32838902246861085,-3.649113458690047,-8.535272804355621,-0.20983550658748412,0.06173540651798248,-0.005219489336013794,3.1628271945670243,-0.00292167067527771
1745973439947723500,5.5407236328125,-0.4055097290510421,0.04029883071780205,-0.145407603896918,-0.054430581629276276,-0.24238836786673273,0.9361541492629597,-0.5744688084520378,left,0.0004132986068725586,-0.32678082001420894,-3.6638738054484126,-8.534469671279192,-0.20909275353117057,0.058512650430202484,-0.005041986703872681,3.147894706112146,-0.005061984062194824
1745973439987723500,5.5807236328125,-0.40680576062159357,0.04177514836192131,-0.14647199642374173,-0.048247963190078735,-0.24122090298564708,0.9364262468924514,-0.5719431656361692,left,-0.0013992786407470703,-0.32550709911366354,-3.6765152603566644,-8.53338947482705,-0.20848065365500115,0.04429860785603523,-0.006580263376235962,3.136062229499221,-0.00444754958152771
1745973440027723500,5.6207236328125,-0.4077937846759412,0.037081748247146606,-0.14725306828298346,-0.03544699028134346,-0.24017073777078662,0.9366445514057523,-0.5697677376436562,left,0.000778496265411377,-0.3249020919718387,-3.6856963456779717,-8.531492701295019,-0.2081620809220103,0.019190382212400436,-0.004754692316055298,3.130440297964215,-0.007610231637954712
1745973440067723500,5.6607236328125,-0.4084194227379043,0.024038922041654587,-0.14764958904672773,-0.014046067371964455,-0.23948265061122193,0.9367425512625015,-0.5684872826352486,left,-0.0008221864700317383,-0.32509887108007524,-3.6907884081199764,-8.528619776207208,-0.20823304594968486,-0.011733386665582657,-0.003882855176925659,3.1322689746960997,-0.00580906867980957
1745973440107723800,5.700723876953125,-0.4089066898762791,0.010004458948969841,-0.1477756775125929,-0.008611420169472694,-0.23921243949102894,0.936696050753064,-0.5682335900292201,left,0.0012484192848205566,-0.32594899079023987,-3.6938837437868117,-8.524373809200524,-0.20866294571639588,-0.02727009914815426,-0.003861367702484131,3.1401679112523793,-0.006278306245803833
1745973440147723800,5.740723876953125,-0.40943940771933623,0.002208185847848654,-0.14783887124701406,-0.008280999958515167,-0.2392057728102035,0.9365667480362159,-0.5685878905923124,left,-0.0003979206085205078,-0.32693563159575145,-3.697189215072989,-8.519559102395176,-0.20920575759549978,-0.03232846036553383,-0.0038735568523406982,3.1493326299607753,-0.003163635730743408
1745973440187723500,5.7807236328125,-0.4100787300951778,0.0024446556344628334,-0.14795226386942886,-0.023985644802451134,-0.23920512277715636,0.9364266757316299,-0.5689732671526875,left,0.006810426712036133,-0.32789719272841844,-3.7014261219903823,-8.514411802634596,-0.2097520594961208,-0.022769790142774582,-0.004058867692947388,3.1582614940866827,-0.006027817726135254
1745973440227723500,5.8207236328125,-0.411077775210875,0.013235112652182579,-0.1483505443775401,-0.01310758013278246,-0.2390545239029924,0.936329218575858,-0.5689892584502271,left,-0.005009770393371582,-0.3283445227995466,-3.7093656828179955,-8.509414140477777,-0.21007791023291758,-0.007327115163207054,-0.0027631819248199463,3.162414229851961,-0.0015884935855865479
1745973440267723500,5.8607236328125,-0.4113207411091034,0.018495768308639526,-0.1484645120570711,-0.008892600424587727,-0.23868539678020298,0.9363647068308703,-0.568365131720276,left,0.0020325183868408203,-0.3287760556702482,-3.7108869010359045,-8.507260761836172,-0.21025862138492035,-0.009637176990509033,-0.0021619200706481934,3.166419666101038,-0.0008902251720428467
1745973440307723500,5.9007236328125,-0.41160374100225794,0.010255341418087482,-0.14851481278765424,-0.003606479149311781,-0.23840447476392207,0.9363461022049947,-0.5680267853206996,left,-0.00011342763900756836,-0.3295540919063998,-3.712307581488788,-8.503950029852986,-0.21062422281747403,-0.024787912145256996,-0.0010369718074798584,3.1736399727433917,0.0006614327430725098
1745973440347723500,5.9407236328125,-0.41176201176665583,-0.0060806432738900185,-0.1483926460985506,0.0007226676680147648,-0.2384249552014753,0.9362413522986986,-0.5683747178704247,left,0.0017490983009338379,-0.33060778512356703,-3.71231313444674,-8.500293260911107,-0.21115227286037755,-0.028523461893200874,-0.0008668005466461182,3.1834152245655654,-0.0014029145240783691
1745973440387723800,5.980723876953125,-0.4120684470960412,-0.013658309355378151,-0.14830984046773926,0.0006006948533467948,-0.2387419956672264,0.9360639266559578,-0.5693317213827449,left,0.0010570883750915527,-0.33143273598060474,-3.713864747802913,-8.496745797562598,-0.21163816249457865,-0.0280274897813797,0.000031560659408569336,3.1910660315796733,0.003947347402572632
1745973440427723500,6.0207236328125,-0.4122521097073742,-0.006411081645637751,-0.14817529971962473,0.0018097644206136465,-0.23905079622368788,0.9359013139314333,-0.5702418307296024,left,0.00432276725769043,-0.33224970228069284,-3.714379127065837,-8.493671796944737,-0.21210215278495448,-0.025006014853715897,0.0006491541862487793,3.1986408507481214,0.005785435438156128
1745973440467723500,6.0607236328125,-0.41249133284300404,0.001807104330509901,-0.14812883042620598,-0.005136585794389248,-0.23912824054653983,0.9357972569037999,-0.5706543946705545,left,0.002672553062438965,-0.33300337859331275,-3.7154438336879014,-8.490572661885619,-0.21250674556975668,-0.014165080152451992,0.0001742243766784668,3.205626764112711,0.005852729082107544
1745973440507723500,6.1007236328125,-0.4123738626942622,0.010175317525863647,-0.1479958083134612,0.004571164958178997,-0.2389879972052032,0.9357945970152968,-0.5704888708764804,left,-0.000024616718292236328,-0.3336321900360302,-3.71363766104877,-8.489160457000136,-0.21276866409288145,-0.004104265011847019,-0.0012722313404083252,3.2114538628309965,0.004453599452972412
1745973440547723500,6.1407236328125,-0.41217817414584595,0.01030226144939661,-0.14791800823787113,-0.005178590305149555,-0.23871573809770827,0.9358602595782055,-0.5699379842925191,left,0.0051490068435668945,-0.3339271476138582,-3.711596802870929,-8.489019002702832,-0.21283972524588082,0.011439095251262188,-0.001974165439605713,3.214186794926226,0.0008082687854766846
1745973440587723500,6.1807236328125,-0.41214593739901273,0.014655116945505142,-0.14802694644306524,-0.006137612741440535,-0.2383684850890175,0.9359718403785342,-0.5691253284242853,left,0.0025510191917419434,-0.3336797643356709,-3.71164151879549,-8.489866559442877,-0.21266235815845233,0.020740091800689697,-0.0009781122207641602,3.21189459233582,0.0004003942012786865
1745973440627723800,6.220723876953125,-0.4121491405386286,0.012860102578997612,-0.14818219016337197,-0.006323934067040682,-0.23800211407852878,0.9360963489926118,-0.5682422929273314,left,0.003247857093811035,-0.3332848513674261,-3.7121763563245533,-8.491016313999891,-0.2124162926842354,0.01349406223744154,-0.0014831721782684326,3.208235193045437,-0.0002052783966064453
1745973440667723800,6.260723876953125,-0.4122285646203673,0.008814758621156216,-0.14829365386030724,-0.00502691138535738,-0.23774820661151755,0.9361611727078146,-0.5676912479518212,left,0.0010324716567993164,-0.3331807468081918,-3.71298475009799,-8.491027419915795,-0.21233715806395864,0.003558303229510784,-0.0026148557662963867,3.2072704396665093,-0.001306772232055664
1745973440707723500,6.3007236328125,-0.4122285646203673,0.0032245730981230736,-0.14829365386030724,-0.0022702496498823166,-0.23774820661151755,0.9361611727078146,-0.5676912479518212,left,0.0021941661834716797,-0.3331807468081918,-3.71298475009799,-8.491027419915795,-0.21233715806395864,-0.0011059092357754707,-0.002635478973388672,3.2072704396665093,-0.0020063817501068115
1745973440747723500,6.3407236328125,-0.4122285646203673,-0.0032898089848458767,-0.14829365386030724,0.00020008068531751633,-0.23774820661151755,0.9361611727078146,-0.5676912479518212,left,0.0016041398048400879,-0.3331807468081918,-3.71298475009799,-8.491027419915795,-0.21233715806395864,-0.0045149256475269794,-0.003101825714111328,3.2072704396665093,-0.0010960698127746582
1745973440787723500,6.3807236328125,-0.4122285646203673,-0.00583830988034606,-0.14829365386030724,0.004751651082187891,-0.23774820661151755,0.9361611727078146,-0.5676912479518212,left,0.0021547675132751465,-0.3331807468081918,-3.71298475009799,-8.491027419915795,-0.21233715806395864,-0.0052169677801430225,-0.002551168203353882,3.2072704396665093,-0.0009444057941436768
1745973440827723500,6.4207236328125,-0.4122285646203673,-0.007478625513613224,-0.14829365386030724,0.005711352918297052,-0.23774820661151755,0.9361611727078146,-0.5676912479518212,left,0.0012910962104797363,-0.3331807468081918,-3.71298475009799,-8.491027419915795,-0.21233715806395864,-0.003844871185719967,-0.0020111501216888428,3.2072704396665093,0.0008050799369812012
1745973440867723800,6.460723876953125,-0.41223273768699864,-0.007823384366929531,-0.14823474871490705,0.007898272946476936,-0.23808070000243237,0.936082803980794,-0.5683815838015254,left,0.0023523569107055664,-0.3330986788458916,-3.7131256198734044,-8.491253045365214,-0.21235120076396316,0.00046584755182266235,-0.0013746917247772217,3.2065099766880274,0.00015813112258911133
1745973440907723800,6.500723876953125,-0.4121820212449654,-0.009735205210745335,-0.14819540359189198,0.006304712034761906,-0.23834171995215347,0.9360404642435934,-0.5688672105986018,left,0.0013589262962341309,-0.33286167371744324,-3.7129990708842873,-8.492137426984309,-0.21227247770284283,0.0041038645431399345,-0.0017641186714172363,3.204313343426585,0.00007361173629760742
1745973440947723500,6.5407236328125,-0.4121820212449654,-0.008174210786819458,-0.14819540359189198,0.004039485938847065,-0.23834171995215347,0.9360404642435934,-0.5688672105986018,left,0.0025058984756469727,-0.33286167371744324,-3.7129990708842873,-8.492137426984309,-0.21227247770284283,0.008131330832839012,-0.002319127321243286,3.204313343426585,-0.0020579397678375244
1745973440987723500,6.5807236328125,-0.4122665360592957,-0.010738959535956383,-0.148287059937239,0.009237430989742279,-0.23868186617293752,0.9360038846623703,-0.5694256887967472,left,-0.004096508026123047,-0.33212803026743914,-3.7146579440072176,-8.493975163805484,-0.2119875626551809,0.00864928588271141,-0.0018549561500549316,3.1975127235010263,-0.0011532306671142578
1745973441027723500,6.6207236328125,-0.4115796377028355,-0.009785366244614124,-0.14798223913815992,0.024866508319973946,-0.23899902899954084,0.9360244076066776,-0.5698451509947002,left,0.0011712908744812012,-0.3317257327011591,-3.7093367489844558,-8.497703244417906,-0.2117521621089962,0.0003684507682919502,-0.0010303854942321777,3.1937828893229363,-0.002366006374359131
1745973441067723500,6.6607236328125,-0.41089266665431595,-0.008831772953271866,-0.14767738418515947,0.04049558565020561,-0.2393161128046793,0.9360447306988328,-0.5702648224483873,left,0.006438553333282471,-0.33132373524390807,-3.704010585525632,-8.501425479811429,-0.2115167127132746,-0.007912383414804935,-0.00020629167556762695,3.190055393232405,-0.0035790205001831055
1745973441107723800,6.700723876953125,-0.41050048677868095,-0.023091107606887817,-0.14737309323195183,0.014904120936989784,-0.23982348226005967,0.9359476307966413,-0.5712823186391299,left,0.0020577311515808105,-0.3314100448035987,-3.7005665825515983,-8.502624918729067,-0.2115843406705624,-0.01819992996752262,0.00034034252166748047,3.190855895960331,0.0020543038845062256
1745973441147723800,6.740723876953125,-0.41018830594708156,-0.006212074309587479,-0.14706333379335174,0.009222064167261124,-0.2402028026037606,0.9358437782523216,-0.5721435695554891,left,-0.0006104111671447754,-0.3318862323988426,-3.6973055349290367,-8.502385264754295,-0.21182860093340933,-0.018823273479938507,-0.003207176923751831,3.195271082054078,0.002529323101043701
1745973441187723500,6.7807236328125,-0.41018830594708156,-0.004729739390313625,-0.14706333379335174,-0.00545375794172287,-0.2402028026037606,0.9358437782523216,-0.5721435695554891,left,0.0058174729347229,-0.3318862323988426,-3.6973055349290367,-8.502385264754295,-0.21182860093340933,-0.0052884044125676155,0.0005515813827514648,3.195271082054078,-0.0013702809810638428
1745973441227723500,6.8207236328125,-0.4107265818835762,0.0013539823703467846,-0.14710213302442018,0.00030809175223112106,-0.24034918688724638,0.9356776378201698,-0.5728154896317056,left,0.0013943314552307129,-0.3328161661614905,-3.700693716062605,-8.497666419538856,-0.212368925156691,-0.027083445340394974,-0.0002040266990661621,3.203891610883176,0.00005793571472167969
1745973441267723500,6.8607236328125,-0.4115061217181206,-0.008219437673687935,-0.147209917818489,-0.028591830283403397,-0.2403510118067914,0.9354925717944917,-0.5733341491598108,left,0.004735231399536133,-0.33413737573907915,-3.7056203588098287,-8.490891810837388,-0.21310617198923193,-0.0269868653267622,-0.002678096294403076,3.2161344218626615,-0.005608975887298584
1745973441307723500,6.9007236328125,-0.4124632135528516,-0.01722133904695511,-0.1474957827329905,-0.012250762432813644,-0.2406175389360006,0.9352925972072009,-0.5742326973671573,left,-0.0001100301742553711,-0.3345686501225312,-3.7131887482374903,-8.486069505247473,-0.2134850172614952,-0.007542282342910767,-0.0017974376678466797,3.2201296289786696,-0.0023480653762817383
1745973441347723500,6.9407236328125,-0.4135624675590801,-0.017322173342108727,-0.14792481014141592,-0.0198562853038311,-0.24095993652514558,0.9351019277635586,-0.5751875122862948,left,0.00021016597747802734,-0.33445780898297695,-3.722658295111358,-8.482309275931119,-0.2136371258844059,-0.009939124807715416,-0.0030518174171447754,3.219102916279435,0.0002639889717102051
1745973441387723800,6.980723876953125,-0.41405498398341545,-0.00641255360096693,-0.14807776330223163,0.005048373714089394,-0.2412230553036017,0.9349817672256346,-0.5758701881784977,left,-0.0012851953506469727,-0.3344862787795216,-3.726798755916953,-8.480390875089167,-0.21376005280529017,-0.011713940650224686,-0.003762274980545044,3.2193665356516834,0.0005285143852233887
1745973441427723500,7.0207236328125,-0.41372136588580366,0.0022337455302476883,-0.14782005495440081,0.02184833399951458,-0.24135425592745682,0.934946316239252,-0.5761881319697342,left,-0.006007730960845947,-0.33492776592415,-3.7233974230408666,-8.48033183837831,-0.2139454117370307,-0.013850631192326546,-0.0032649338245391846,3.223455850791931,-0.0003478825092315674
1745973441467723500,7.0607236328125,-0.41292577247270357,0.007411968894302845,-0.14735265992196234,0.017807455733418465,-0.24138757425205892,0.934970651057046,-0.5762297193003706,left,0.004597127437591553,-0.3355207092780923,-3.7158819328442214,-8.481539460602402,-0.21412388202502675,-0.018224459141492844,-0.0005588829517364502,3.2289468494236466,0.0008726716041564941
1745973441507723500,7.1007236328125,-0.41247829646243195,0.01623937115073204,-0.14698649269820557,0.005254082381725311,-0.2412997886757219,0.9349546800621193,-0.5762062395556751,left,0.006782829761505127,-0.3365596203644069,-3.710739309258759,-8.480123164063691,-0.21454372002413274,-0.02804938331246376,0.000249713659286499,3.2385654493793843,0.004209607839584351
1745973441547723500,7.1407236328125,-0.412578174471682,0.029017649590969086,-0.14683058076291375,-0.012268736958503723,-0.24097271298400283,0.9349056697426007,-0.5759200788057686,left,0.00734025239944458,-0.3380795003626312,-3.709608259402215,-8.475233638456464,-0.21523040135111304,-0.032056231051683426,-0.00009244680404663086,3.252630215089023,0.006528884172439575
1745973441587723500,7.1807236328125,-0.4133784365340246,0.04572102427482605,-0.14712467706949334,-0.03369532525539398,-0.24023585521184304,0.9349110313382017,-0.5748549296968958,left,0.004886925220489502,-0.33934889880120356,-3.71472808663398,-8.468474227324128,-0.2158293273439628,-0.0031710155308246613,-0.00354766845703125,3.264371506287157,0.004163533449172974
1745973441627723800,7.220723876953125,-0.4141252703261663,0.04911864176392555,-0.14761193136948852,-0.03498689830303192,-0.23909272602103582,0.9350800367444028,-0.5727349846551626,left,-0.00034731626510620117,-0.3399416707270967,-3.7202722767576573,-8.463924893456698,-0.21603390278479676,0.01701986975967884,-0.002761334180831909,3.2698525680467485,0.000988394021987915
1745973441667723800,7.260723876953125,-0.41461353557659036,0.036123521625995636,-0.14800903463100648,-0.025663306936621666,-0.23801917949799067,0.93527400603368,-0.5706476725552655,left,-0.0013426542282104492,-0.3403130889851928,-3.723915017174184,-8.460995269745588,-0.21610790915121766,0.006529012694954872,-0.0007146894931793213,3.2732863418877125,-0.002600431442260742
1745973441707723500,7.3007236328125,-0.4153113933596545,0.006510771811008453,-0.14837199235210438,-0.01885712891817093,-0.23750058198691618,0.9353050786365242,-0.5697942977262911,left,-0.0018834471702575684,-0.34067826761032177,-3.7293358731791373,-8.45729992235899,-0.21629483985814973,-0.0048311809077858925,-0.0007375478744506836,3.2766619558006522,-0.0062087178230285645
1745973441747723500,7.3407236328125,-0.4164255827740412,-0.020686056464910507,-0.1488186839426547,-0.03668849915266037,-0.23757577530597623,0.935159496412726,-0.57025455898061,left,0.005912125110626221,-0.3408391791613018,-3.7385435542464256,-8.452657064989209,-0.21653501070245348,-0.01474695187062025,-0.0028502941131591797,3.2781492717489598,-0.005606293678283691
1745973441787723500,7.3807236328125,-0.41728730870147074,-0.00849144160747528,-0.14908679154954374,0.012807339429855347,-0.23790030972866677,0.9349718903052756,-0.5712028319600813,left,-0.013758480548858643,-0.3410492486389421,-3.74554671100676,-8.448802727648616,-0.2168042079195792,-0.020783089101314545,-0.004233628511428833,3.2800907612055537,0.00760313868522644
1745973441827723500,7.4207236328125,-0.4167906510129596,-0.008258763700723648,-0.1487349445632365,0.007994414307177067,-0.2381516709939091,0.9349251745586771,-0.5717312536888306,left,0.011328577995300293,-0.3414575823316607,-3.7408076997861266,-8.449436349377036,-0.21697128398582566,-0.01493293046951294,-0.0024185478687286377,3.2838641422644255,0.002390950918197632
1745973441867723800,7.460723876953125,-0.4166041651244552,0.005563057959079742,-0.14855019217482027,0.017469674348831177,-0.23829022782575512,0.9348771266225233,-0.572084824393832,left,-0.0002351999282836914,-0.341844944240016,-3.7387168649867175,-8.448969900909066,-0.2171525862013129,-0.009856019169092178,-0.0023490190505981445,3.2874431697949764,0.005063116550445557
1745973441907723800,7.500723876953125,-0.4166041651244552,0.008694594725966454,-0.14855019217482027,-0.0002013910561800003,-0.23829022782575512,0.9348771266225233,-0.572084824393832,left,0.008291006088256836,-0.341844944240016,-3.7387168649867175,-8.448969900909066,-0.2171525862013129,0.0019916249439120293,-0.0026800930500030518,3.2874431697949764,0.0022121965885162354
1745973441947723500,7.5407236328125,-0.4166041651244552,0.0028125960379838943,-0.14855019217482027,-0.008619729429483414,-0.23829022782575512,0.9348771266225233,-0.572084824393832,left,0.001459658145904541,-0.341844944240016,-3.7387168649867175,-8.448969900909066,-0.2171525862013129,0.004818867892026901,-0.0017087757587432861,3.2874431697949764,0.002309262752532959
1745973441987723500,7.5807236328125,-0.4170244304507023,-0.00020430306904017925,-0.14872238867044893,-0.0047752391546964645,-0.23799937831063234,0.9348715845478714,-0.5716767026258874,left,0.005967557430267334,-0.34229363544735725,-3.7416695773124693,-8.446048460504413,-0.21737756680847536,-0.003271106630563736,-0.0003383159637451172,3.2915885990366336,0.0022724270820617676
1745973442027723500,7.6207236328125,-0.4178370607390736,-0.00950805377215147,-0.14903504432936507,-0.01391597930341959,-0.23802776271150125,0.934763176098822,-0.5719838779670723,left,-0.003501296043395996,-0.3425145512847687,-3.7482366807430982,-8.44234025363624,-0.21759821472476512,-0.005098864436149597,-0.001938462257385254,3.2936291649535296,0.001434028148651123
1745973442067723500,7.6607236328125,-0.4178370607390736,-0.005531631875783205,-0.14903504432936507,0.0013319626450538635,-0.23802776271150125,0.934763176098822,-0.5719838779670723,left,0.004187583923339844,-0.3425145512847687,-3.7482366807430982,-8.44234025363624,-0.21759821472476512,0.019335851073265076,-0.0018808245658874512,3.2936291649535296,-0.0003412961959838867
1745973442107723800,7.700723876953125,-0.418257709173969,-0.0033059301786124706,-0.14944616049533552,-0.01724489964544773,-0.2380580212212873,0.9348174478893497,-0.5718130813717904,left,0.005758106708526611,-0.34123289119646455,-3.7534988390550015,-8.444613459265232,-0.21704925797534616,0.02754686400294304,-0.0025250017642974854,3.281787628251314,0.0014932453632354736
1745973442147723800,7.740723876953125,-0.4183294309415867,0.011880552396178246,-0.14968379446128055,0.0015111733227968216,-0.23781316519166487,0.9349398267594639,-0.5710916224199992,left,-0.0037679076194763184,-0.34040873792235776,-3.7552021358415484,-8.446813015136122,-0.21662675294169428,0.02783282846212387,-0.004612267017364502,3.2741704312458633,-0.0005196630954742432
1745973442187723500,7.7807236328125,-0.4175514219365177,0.003463270142674446,-0.14948180757489515,0.02717113308608532,-0.2376298829243472,0.93511106388483,-0.570376003049219,left,-0.002775907516479492,-0.33985612279126537,-3.749362469902634,-8.451384560835361,-0.21622786440278646,0.01176176406443119,-0.0006375610828399658,3.2690617099300026,-0.0026581883430480957
1745973442227723500,7.8207236328125,-0.41637319276284507,-0.00946972705423832,-0.1488946812134918,0.03723103553056717,-0.23782678128182194,0.9351720820105,-0.5705536330032561,left,-0.0016366839408874512,-0.339967770869051,-3.739254625125229,-8.455462185537815,-0.2161521933486721,-0.015680182725191116,0.0018470287322998047,3.270093975587189,-0.004219025373458862
1745973442267723500,7.8607236328125,-0.4157805021858806,-0.029700079932808876,-0.14849132882766042,0.0068465545773506165,-0.2384152337232918,0.9350804307836469,-0.5716823734113625,left,0.008962273597717285,-0.33999551538333017,-3.7342058173030614,-8.457593936869502,-0.21617822417800744,-0.01591981016099453,0.0016512274742126465,3.2703502884358167,-0.0028133392333984375
1745973442307723500,7.9007236328125,-0.4159171671404428,-0.01347634382545948,-0.14839471660180487,0.0069352006539702415,-0.23893916610254542,0.9349165544172567,-0.572886050235668,left,-0.00195467472076416,-0.3401940070537094,-3.7350992590114473,-8.456489775019884,-0.2163747153073891,-0.01636452041566372,-0.0011927783489227295,3.2721853949084876,0.0037563741207122803
1745973442347723500,7.9407236328125,-0.41566949038763956,-0.01231531985104084,-0.14821614682099502,0.010968368500471115,-0.23925445940729864,0.9348628877457877,-0.5734975377771291,left,0.0018440485000610352,-0.34017204955846914,-3.733033558653295,-8.457480539622903,-0.216380413212195,0.004716131836175919,-0.0009806454181671143,3.2719825658127664,-0.0015842318534851074
1745973442387723800,7.980723876953125,-0.4154385759436784,-0.015912629663944244,-0.14806972357051093,0.016981622204184532,-0.23958253056714038,0.9348166301857331,-0.5741007722841762,left,-0.0005517005920410156,-0.3399973301890531,-3.7313112649053335,-8.45886468745768,-0.2163175109696887,-0.007509294897317886,0.00025650858879089355,3.2703672395706174,0.0005083680152893066
1745973442427723500,8.0207236328125,-0.4152743883352751,-0.015707777813076973,-0.14782533250266272,0.005434533581137657,-0.24002323163794717,0.9346888988115528,-0.5751051411730458,left,0.0025528669357299805,-0.3403817785550862,-3.7294147836342453,-8.458326342797278,-0.216547997899404,-0.018084816634655,-0.0007973015308380127,3.273921132659912,-0.001085728406906128
1745973442467723500,8.0607236328125,-0.4154449501663577,-0.006784526631236076,-0.14774671769645586,0.000425899401307106,-0.24034044163500107,0.9345538035813715,-0.5759381844118502,left,-0.000156402587890625,-0.34082490540708354,-3.730271692724526,-8.456362349247932,-0.21683271911120938,-0.013734390959143639,-0.0017732083797454834,3.2780171698018905,0.0005188286304473877
1745973442507723500,8.1007236328125,-0.41532924475854915,0.0021854452788829803,-0.1476139526015699,-0.009747016243636608,-0.24040831448893765,0.9345184694217469,-0.5761503816420509,left,0.010289907455444336,-0.3411871220071525,-3.728813895131647,-8.455706515687703,-0.2170001332530824,-0.004459946416318417,-0.002505749464035034,3.2813647266641257,-0.001932382583618164
1745973442547723500,8.1407236328125,-0.41532924475854915,0.014170090667903423,-0.1476139526015699,0.007667194120585918,-0.24040831448893765,0.9345184694217469,-0.5761503816420509,left,-0.007744133472442627,-0.3411871220071525,-3.728813895131647,-8.455706515687703,-0.2170001332530824,0.007968436926603317,-0.003197908401489258,3.2813647266641257,0.002095431089401245
1745973442587723500,8.1807236328125,-0.4148140286057347,0.018001865595579147,-0.14749820481432233,0.005167876370251179,-0.23990821100214357,0.9346975623777961,-0.5749663586492733,left,0.009023070335388184,-0.3412093198533112,-3.7244273506104943,-8.457560034599899,-0.21686105599585115,0.010902006179094315,-0.004378080368041992,3.2815698938474056,-0.004661738872528076
1745973442627723800,8.220723876953125,-0.41501392472702786,-0.0020733699202537537,-0.14764367769614137,0.0013291256036609411,-0.23976993352181036,0.9347239722681614,-0.5746812237743831,left,-0.0007443428039550781,-0.34107157517250186,-3.72630015874505,-8.457229195210337,-0.21680098861828978,-0.0023941053077578545,-0.0004756748676300049,3.280297097432613,-0.0015743374824523926
1745973442667723800,8.260723876953126,-0.41519308151084444,-0.004802376963198185,-0.1475753761216952,0.00925240758806467,-0.23997309903513944,0.9346083717226562,-0.5753005754929855,left,-0.00019168853759765625,-0.3416242789756464,-3.72708341807723,-8.454901044523716,-0.21712098944920147,-0.02761949598789215,-0.0008876323699951172,3.28540435744375,0.00019025802612304688
1745973442707723500,8.3007236328125,-0.41571460980823055,-0.019563212990760803,-0.14759749136155748,-0.011063276790082455,-0.24036134761922687,0.9344022037828162,-0.5764210100333302,left,0.003964722156524658,-0.3422735538988518,-3.7306300046429035,-8.451002868041396,-0.21756321536195922,-0.019933784380555153,-0.0006064176559448242,3.2914030133366583,-0.002539217472076416
1745973442747723500,8.3407236328125,-0.41628279148382685,-0.0031958017498254776,-0.147649468096977,-0.005394546780735254,-0.24070314847036595,0.9342025619699161,-0.5774551008796877,left,0.003944873809814453,-0.34292833206312034,-3.734559160785377,-8.446908876726031,-0.21800718459097507,-0.02398410066962242,0.0005627572536468506,3.2974510613292454,0.006445258855819702
1745973442787723500,8.3807236328125,-0.4173242192213545,0.007792883552610874,-0.14793405451742514,-0.031255289912223816,-0.24072020518880197,0.934014566436649,-0.5779789567105296,left,0.007125139236450195,-0.34386607552784676,-3.742098908640444,-8.440184536907076,-0.2185997939197937,-0.019094355404376984,-0.0008728206157684326,3.3061101686030625,0.004117220640182495
1745973442827723500,8.4207236328125,-0.41792190080810665,0.01050427183508873,-0.14807674772777502,-0.009671352803707123,-0.2404900380533089,0.9339337447756892,-0.5778756767020115,left,-0.0005950331687927246,-0.34482313760770733,-3.745856799869239,-8.43505068114996,-0.2191013006995237,-0.015238163992762566,-0.002316892147064209,3.3149449247047302,0.0017092525959014893
1745973442867723800,8.460723876953125,-0.41851994810556287,-0.003649403341114521,-0.14824250545874365,-0.0058247363194823265,-0.24042430568506024,0.9338382670835045,-0.578037350259572,left,-0.0014556050300598145,-0.345443413975229,-3.750064480692148,-8.430928632783889,-0.21946848150169476,-0.0059209223836660385,-0.0012247860431671143,3.3206688553094863,-0.0008769333362579346
1745973442907723800,8.500723876953124,-0.41851994810556287,-0.016293909400701523,-0.14824250545874365,0.015115062706172466,-0.24042430568506024,0.9338382670835045,-0.578037350259572,left,-0.005137145519256592,-0.345443413975229,-3.750064480692148,-8.430928632783889,-0.21946848150169476,0.001680854707956314,0.0010203123092651367,3.3206688553094863,0.0008859634399414062
1745973442947723500,8.5407236328125,-0.4183397034073532,-0.03161505237221718,-0.14811256591796315,0.005768915638327599,-0.241195890342761,0.9337167095471316,-0.579461034404509,left,0.0015125274658203125,-0.3447295225721731,-3.749506554548442,-8.433768240123987,-0.21922624145058373,0.014586984179913998,-0.0016335546970367432,3.314080709090829,-0.004089474678039551
1745973442987723500,8.5807236328125,-0.41864427099790275,-0.02315935306251049,-0.14835453819810548,-0.003340662457048893,-0.24179978314739153,0.9336414940453257,-0.5804709826526795,left,0.004528939723968506,-0.3433707741085357,-3.75390245141983,-8.436732350626587,-0.2187173543150563,0.02459762804210186,-0.0005977749824523926,3.3015368693381544,0.000520169734954834
1745973443027723500,8.6207236328125,-0.4192665982379067,-0.00636330246925354,-0.14874654564590012,-0.022105008363723755,-0.2420073150404011,0.9335982603305892,-0.5808247420365203,left,0.0071294307708740234,-0.34246622304480995,-3.7603660944759842,-8.43711871959567,-0.21840583925862292,0.006924336776137352,-0.001752018928527832,3.293182882490754,0.001272052526473999
1745973443067723500,8.6607236328125,-0.42058996699179474,0.0010054344311356544,-0.1493470802926765,-0.03484169393777847,-0.24190298905107385,0.9334857422471157,-0.5809220374791865,left,0.005921423435211182,-0.3425084535589066,-3.77147142585814,-8.43200824471414,-0.21859246935338209,-0.008850829675793648,-0.00369948148727417,3.293572758591175,-0.0020765960216522217
1745973443107723800,8.700723876953125,-0.4216816793028098,0.00980717595666647,-0.14974795374514763,-0.02341017685830593,-0.24168187078348488,0.9333711578090356,-0.5808934550578587,left,0.0021150708198547363,-0.3432292871225898,-3.7797017863258717,-8.425717620137334,-0.2190513930574508,-0.011170838959515095,-0.006938159465789795,3.3002304629147052,-0.001971691846847534
1745973443147723800,8.740723876953124,-0.42230325821597897,0.009768003597855568,-0.1499139066156195,-0.007674342021346092,-0.24151552203135865,0.9332841767904668,-0.5808935625734833,left,0.0011914372444152832,-0.34402940229502726,-3.783854814352095,-8.420954935780166,-0.2194916582947659,-0.019701097160577774,-0.006093412637710571,3.3076182350784538,0.0010165274143218994
1745973443187723500,8.7807236328125,-0.42243369208046533,0.014787495136260986,-0.1498396293740235,0.005867833271622658,-0.24135868688285594,0.9332357782219847,-0.5808296023342344,left,-0.0010986924171447754,-0.34494576798623405,-3.7837092684015627,-8.417693888157606,-0.21992075437414105,-0.017144497483968735,-0.0035609006881713867,3.3160765590831636,0.0017743110656738281
1745973443227723500,8.8207236328125,-0.4220194711367076,0.013266714289784431,-0.14955583144822465,0.0033318495843559504,-0.24117133177466055,0.9332615235016829,-0.5805385158321876,left,0.005533993244171143,-0.3457357129112259,-3.779147659574449,-8.416867958727478,-0.22020949902963483,-0.0139998784288764,-0.0005598068237304688,3.3233658393085,0.0022295117378234863
1745973443267723500,8.8607236328125,-0.422434583413977,0.01481631025671959,-0.14966125337594624,-0.024209287017583847,-0.24089155632282502,0.9332263064957356,-0.5802424455621827,left,0.007615983486175537,-0.34651528888263494,-3.7815781015917658,-8.412932957366108,-0.22059309260494225,-0.011694367043673992,0.0003726184368133545,3.330557504378259,-0.0006267726421356201
1745973443307723500,8.9007236328125,-0.4231694319264224,0.018968280404806137,-0.1500608592475717,-0.005625581368803978,-0.2404291599467962,0.9332545693548435,-0.5794731892411068,left,-0.009592533111572266,-0.34669694110427146,-3.7875109987720843,-8.409600013551115,-0.22070674248424285,0.021478991955518723,-0.00010862946510314941,3.3322330363750456,0.0000068247318267822266
1745973443347723800,8.940723876953125,-0.4229259851656639,0.020387470722198486,-0.15010823537148976,-0.005895343609154224,-0.23994748736118962,0.9334221438773999,-0.5783249628469609,left,0.009108483791351318,-0.34647510858425273,-3.7857667854532595,-8.41119575830996,-0.22049010075099287,0.014019552618265152,-0.0015372931957244873,3.330186917500198,0.0004966557025909424
1745973443387723800,8.980723876953125,-0.4229259851656639,0.008692094124853611,-0.15010823537148976,-0.006201640702784061,-0.23994748736118962,0.9334221438773999,-0.5783249628469609,left,0.0013518929481506348,-0.34647510858425273,-3.7857667854532595,-8.41119575830996,-0.22049010075099287,-0.0056142378598451614,-0.0005194544792175293,3.330186917500198,0.0022318363189697266
1745973443427723500,9.0207236328125,-0.4233845381784306,0.01029486395418644,-0.1503558532408099,-0.017283424735069275,-0.23936278899792565,0.9334829614065525,-0.5773136514457411,left,0.0035591721534729004,-0.3469794475925262,-3.788932848268747,-8.407926527380942,-0.22069926971897827,-0.002018124097958207,-0.002281397581100464,3.3348385426983236,0.0009428262710571289
1745973443467723500,9.0607236328125,-0.42394909047637824,0.021480510011315346,-0.15066879056237512,-0.01525096409022808,-0.2389254860944448,0.9335187590461639,-0.576566722398664,left,0.0010034441947937012,-0.3471932861776575,-3.7933854437634347,-8.40513601987958,-0.2208081701525246,0.005016348324716091,-0.0029276013374328613,3.336810427293181,0.003636300563812256
1745973443507723500,9.1007236328125,-0.4241190686409652,0.028244316577911377,-0.15081473826871294,-0.0018716566264629364,-0.2383945735584546,0.9336121553297949,-0.5755481596174573,left,0.0027647018432617188,-0.3474907603008028,-3.7944054344609377,-8.40358586782813,-0.2208874676772189,-0.002255094237625599,-0.00224459171295166,3.3395535885214804,0.004293322563171387
1745973443547723500,9.1407236328125,-0.42414376292789974,0.016527066007256508,-0.15083189796702245,-0.0059827216900885105,-0.2379238465621664,0.9336819320474696,-0.5746973228728793,left,0.002642333507537842,-0.3480646594283838,-3.7938235429197547,-8.401744039353728,-0.22108822974119174,-0.002620706567540765,-0.005023270845413208,3.3448446806669234,0.00134962797164917
1745973443587723500,9.1807236328125,-0.42414376292789974,0.01090475544333458,-0.15083189796702245,0.015228047966957092,-0.2379238465621664,0.9336819320474696,-0.5746973228728793,left,0.004157543182373047,-0.3480646594283838,-3.7938235429197547,-8.401744039353728,-0.22108822974119174,-0.0003318882081657648,-0.002318352460861206,3.3448446806669234,0.004515469074249268
1745973443627723800,9.220723876953125,-0.42338949951657395,-0.002609054557979107,-0.15045799260012468,0.014306747354567051,-0.23770188714663754,0.9337736944846882,-0.5741790128291777,left,0.0027834177017211914,-0.34857862999775835,-3.7867785928443074,-8.403034663686157,-0.2211941529986108,0.004872535355389118,-0.0038386285305023193,3.349582230582833,0.0049269795417785645
1745973443667723800,9.260723876953126,-0.4229326609995402,-0.014055928215384483,-0.1503562148262346,0.019926555454730988,-0.23786796657699524,0.9338419209046506,-0.5742263471347654,left,-0.0010947585105895996,-0.34781941116598813,-3.7839822401240464,-8.407080724206565,-0.22079671790857167,0.03156115859746933,-0.001408994197845459,3.3425837499976154,-0.00047898292541503906
1745973443707723500,9.3007236328125,-0.42229861673575403,-0.018690209835767746,-0.1503136581708385,0.019848207011818886,-0.23815191065933436,0.9339730126468683,-0.5742466785249544,left,-0.0014778971672058105,-0.34615576343726145,-3.780924606119096,-8.414538638997078,-0.21996303744607484,0.043965425342321396,-0.0011689066886901855,3.327241219437122,-0.0010132193565368652
1745973443747723500,9.3407236328125,-0.4214287500448141,-0.016981519758701324,-0.15021109195504564,0.022864555940032005,-0.23846308904266464,0.9341438040303724,-0.5741983972601358,left,0.00040584802627563477,-0.34421361577828896,-3.7762399554342028,-8.423705111271142,-0.21896849612091798,0.043974511325359344,0.002381831407546997,3.309318609255552,-0.0035536587238311768
1745973443787723500,9.3807236328125,-0.42086600740575525,-0.02094152569770813,-0.15019903427106146,0.01693435199558735,-0.23882089266309184,0.9342548822970836,-0.5743723311191982,left,-0.001658320426940918,-0.34245666850884987,-3.7738685501277445,-8.431122694051265,-0.21811149279600855,0.03137277811765671,-0.000024437904357910156,3.2930946196854114,-0.00484427809715271
1745973443827723500,9.4207236328125,-0.4205267583006688,-0.02997726760804653,-0.15015354209862292,0.010381238535046577,-0.23929259886076515,0.9342654957602292,-0.574994989170778,left,0.004042506217956543,-0.3412794886588653,-3.772588154928386,-8.435935647290945,-0.21757965333130802,0.012749440968036652,0.0015367567539215088,3.282218420884013,-0.004936665296554565
1745973443867723800,9.460723876953125,-0.4202504195368839,-0.023940373212099075,-0.1499865080524956,0.022671859711408615,-0.23988013149525644,0.9341843764914818,-0.5760566455978214,left,-0.005194962024688721,-0.3407754349159728,-3.7709313276320695,-8.438487085339426,-0.21739584468506798,-0.004699504002928734,0.0007735788822174072,3.277560073684156,0.0012340843677520752
1745973443907723800,9.500723876953124,-0.41922370755299504,-0.016581593081355095,-0.1495046814464838,0.028681859374046326,-0.24040435977765148,0.9341971724892989,-0.5768059422636793,left,0.0006555318832397461,-0.3402612715544545,-3.7629508502721785,-8.443892159253359,-0.21709365117512813,0.01436362974345684,-0.0008837580680847168,3.272807326199114,-0.0021453499794006348
1745973443947723500,9.5407236328125,-0.4182105764072374,-0.0037550050765275955,-0.14916130239454695,0.021857885643839836,-0.24067088795657185,0.9343068321904543,-0.5769036465729208,left,0.0018979310989379883,-0.3393488621021981,-3.755605455945432,-8.450425360414386,-0.21656200642378237,0.01930229365825653,0.0005977749824523926,3.2643712140262124,0.0027761757373809814
1745973443987723500,9.5807236328125,-0.41750660690460323,0.008433048613369465,-0.14898700448151803,0.005438236519694328,-0.24061820663417713,0.934448295103179,-0.5764496694280115,left,0.0066890716552734375,-0.3386633229338899,-3.750562201081216,-8.455110887882112,-0.21612999340417857,0.020191852003335953,0.0011868178844451904,3.258030905088782,-0.0013724267482757568
1745973444027723500,9.6207236328125,-0.4177187852296914,0.012347335927188396,-0.1492624797094837,-0.014151649549603462,-0.2403703638411397,0.9345459009449821,-0.5757905790597032,left,0.009030640125274658,-0.3379791275146258,-3.753259477341175,-8.456350658810138,-0.21579345552150783,0.023180745542049408,0.00039011240005493164,3.2517017020672556,-0.0034841597080230713
1745973444067723500,9.6607236328125,-0.41844446258505397,0.013991173356771469,-0.1497730155918092,-0.017435159534215927,-0.2399813116535957,0.9346158792766767,-0.5749827694636845,left,-0.0035802721977233887,-0.33742993531756643,-3.7601200107604265,-8.455254680266975,-0.2155690435811631,0.02294018678367138,-0.006240665912628174,3.2466201610192655,-0.0021651387214660645
1745973444107723800,9.700723876953125,-0.4184403283682067,0.011936413124203682,-0.14989562154917938,0.014717776328325272,-0.2397182286597031,0.9347123470809905,-0.5743274800693325,left,-0.007935523986816406,-0.33707817325306993,-3.760549049827456,-8.456313833931087,-0.2153585184696271,0.0027438905090093613,-0.00238153338432312,3.243364958615601,-0.00354921817779541
1745973444147723800,9.740723876953124,-0.41804000859971374,-0.006478060036897659,-0.14965776613160287,0.002765732817351818,-0.2397646480189859,0.9347191469346537,-0.5744061964358818,left,0.005707681179046631,-0.3373540417727005,-3.7568002186879514,-8.45700006262958,-0.2154426400495413,-0.018281348049640656,-0.003032863140106201,3.245917857968807,-0.005293607711791992
1745973444187723500,9.7807236328125,-0.41799899135913715,-0.0028597430791705847,-0.14948273218000302,0.0010687103495001793,-0.2399636267026799,0.9346227652505017,-0.5749814416558954,left,0.006084561347961426,-0.33796598885404494,-3.75564637247771,-8.455337682375312,-0.2157606695427839,-0.02363327145576477,-0.001379460096359253,3.251580121514201,-0.0009273290634155273
1745973444227723500,9.8207236328125,-0.41824440872361446,0.009200979955494404,-0.1494075453498131,-0.003670507576316595,-0.240017620201804,0.9345072352532842,-0.575398852804792,left,0.0013712644577026367,-0.33890913001039824,-3.756474055473506,-8.45160960176289,-0.21625266389125955,-0.022237436845898628,-0.003958314657211304,3.260304402978718,-0.00012826919555664062
1745973444267723500,9.8607236328125,-0.4183499225436218,0.015155674889683723,-0.14931942823976874,-0.0011463272385299206,-0.2398488742932127,0.9344618929614573,-0.575311004923512,left,0.0030270814895629883,-0.3398657434415019,-3.756097038854658,-8.448359660056234,-0.21669621561673635,-0.023650549352169037,-0.0019315779209136963,3.269150557257235,-0.00017368793487548828
1745973444307723500,9.9007236328125,-0.4182129634341992,0.008985883556306362,-0.14899718327399275,0.0042647793889045715,-0.23971153054084404,0.9343792113361226,-0.5754054330806113,left,0.0038219690322875977,-0.34147998751308434,-3.752791567568481,-8.44404004329145,-0.2174249342792327,-0.042945124208927155,-0.00235787034034729,3.2840710630133745,-0.0018768310546875
1745973444347723800,9.940723876953125,-0.4181635589064667,-0.0008764723315834999,-0.14868811700738654,0.011515209451317787,-0.23976666343494485,0.9342465562808421,-0.5759044405563081,left,-0.000731050968170166,-0.34298652279496644,-3.750361125551164,-8.439694707563518,-0.21814480539994088,-0.03053577058017254,-0.00048801302909851074,3.2979885292068123,-0.001439124345779419
1745973444387723800,9.980723876953125,-0.41776659692730195,-0.0016398194711655378,-0.14832547653593475,0.00798159558326006,-0.23993621911036875,0.9341769186503965,-0.5763857745025137,left,0.0018935203552246094,-0.3437965610621769,-3.745925481191277,-8.438738429751991,-0.21850315807640375,-0.019602887332439423,-0.0020656585693359375,3.3054683635681865,0.003040492534637451
1745973444427723500,10.0207236328125,-0.41778242169582624,-0.00119857769459486,-0.14818974357432596,-0.0004018610343337059,-0.24006085057353688,0.9340919437982919,-0.5768184620070259,left,0.004687249660491943,-0.34441860566764315,-3.7452240549236535,-8.436798401600122,-0.21882139048367993,-0.017347877845168114,0.0012751221656799316,3.3112109988734124,0.0017732977867126465
1745973444467723500,10.0607236328125,-0.41796373272721643,0.0018878101836889982,-0.14812048342186224,0.0009426302276551723,-0.24010821978212588,0.9339987296336143,-0.5771596642162181,left,0.00238114595413208,-0.34517480880231916,-3.7457363883599637,-8.433828445878625,-0.21921393388211827,-0.020429577678442,0.00045946240425109863,3.3181901902362703,0.002030014991760254
1745973444507723500,10.1007236328125,-0.41812082993323724,0.001629058737307787,-0.1480118011727136,-0.0011553787626326084,-0.24014257082175489,0.9338967792412209,-0.5775126652385216,left,-0.0011571645736694336,-0.34610377735562686,-3.7458079922914505,-8.430418929696083,-0.21968331340606242,-0.017825599759817123,-0.001354306936264038,3.3267616192266343,0.0007323026657104492
1745973444547723500,10.1407236328125,-0.4183968212388721,0.004781797528266907,-0.1480249133788763,-0.005182263907045126,-0.24014747083206742,0.9338185797064416,-0.5777415159099342,left,0.002957940101623535,-0.3466906846286742,-3.7473406086862084,-8.427599196100234,-0.22000144407291214,-0.013840336352586746,0.0007372200489044189,3.3321754609689114,0.0016883313655853271
1745973444587723500,10.1807236328125,-0.41886597714757706,0.007759084925055504,-0.1480779904487192,-0.005773682147264481,-0.24009430192605982,0.9337087483295756,-0.5779757437366946,left,0.0013018250465393066,-0.34759816941518623,-3.750062727126479,-8.42307441215217,-0.2204895106164596,-0.028303179889917374,-0.0012967288494110107,3.3405437686026094,0.0019494891166687012
1745973444627723800,10.220723876953125,-0.419347767476885,0.00030105654150247574,-0.14812316512213913,-0.004953101743012667,-0.2401063127216347,0.9335815888610082,-0.5783500465959263,left,0.0025364160537719727,-0.3484936947506311,-3.752900873161852,-8.418530923503637,-0.22098392677595044,-0.017679419368505478,-0.001293182373046875,3.348799263511598,-0.001901388168334961
1745973444667723800,10.260723876953126,-0.4197913910259927,0.004597553983330727,-0.1482054291650853,-0.001123982947319746,-0.24011173564558727,0.9334838059531921,-0.5786266067290158,left,-0.0005219578742980957,-0.34910280664464594,-3.755803024344146,-8.41500099581182,-0.22133570696465243,-0.012322740629315376,-0.0010984241962432861,3.354413011740148,0.001951664686203003
1745973444707723500,10.3007236328125,-0.4197913910259927,0.009626366198062897,-0.1482054291650853,0.004685651045292616,-0.24011173564558727,0.9334838059531921,-0.5786266067290158,left,-0.000030875205993652344,-0.34910280664464594,-3.755803024344146,-8.41500099581182,-0.22133570696465243,-0.012407602742314339,-0.0008040070533752441,3.354413011740148,0.0011127889156341553
1745973444747723500,10.3407236328125,-0.4191650056819809,0.009067066013813019,-0.14773352124761405,0.018202723935246468,-0.23991502069961942,0.9334879025323796,-0.5784030924268467,left,0.0013124346733093262,-0.3504232650627766,-3.748725341042876,-8.413298868069052,-0.22184666821654178,-0.024187400937080383,0.0012567341327667236,3.36657837356925,0.002210855484008789
1745973444787723500,10.3807236328125,-0.41876606911575154,-0.0036959918215870857,-0.14733673582712553,0.013201362453401089,-0.2400116885568093,0.9334131312070274,-0.5787979910464812,left,-0.0007305145263671875,-0.351500569369842,-3.743891345015168,-8.41147515977323,-0.22231961305348713,-0.024098839610815048,0.0015541613101959229,3.3764991713419557,-0.0014148056507110596
1745973444827723500,10.4207236328125,-0.4188866075613138,-0.012446906417608261,-0.1472238929768034,-0.008498921059072018,-0.24023895838805817,0.9332913240696856,-0.5794730374450124,left,0.004733443260192871,-0.3521072918229785,-3.7440716700181365,-8.409151100739836,-0.22266059683406156,-0.013727090321481228,-0.00009593367576599121,3.3820845702588556,-0.0013533532619476318
1745973444867723800,10.460723876953125,-0.4188866075613138,0.013225631788372993,-0.1472238929768034,0.02863376960158348,-0.24023895838805817,0.9332913240696856,-0.5794730374450124,left,-0.007461130619049072,-0.3521072918229785,-3.7440716700181365,-8.409151100739836,-0.22266059683406156,-0.012457216158509254,0.0010656416416168213,3.3820845702588556,0.009283185005187988
1745973444907723800,10.500723876953124,-0.418314980518442,0.007977064698934555,-0.14682567510832292,-0.0018412917852401733,-0.24013563689087045,0.933297654999005,-0.5793592690384666,left,0.007872939109802246,-0.35303718646012844,-3.737984751319885,-8.408412265071272,-0.22300786003405967,-0.0029555736109614372,-0.0009772181510925293,3.390642847506702,-0.00020951032638549805
1745973444947723500,10.5407236328125,-0.418314980518442,0.0007418221794068813,-0.14682567510832292,-0.016508929431438446,-0.24013563689087045,0.933297654999005,-0.5793592690384666,left,0.0047411322593688965,-0.35303718646012844,-3.737984751319885,-8.408412265071272,-0.22300786003405967,-0.00040620239451527596,-0.0010643303394317627,3.390642847506702,0.0028759241104125977
1745973444987723500,10.5807236328125,-0.41970732760255774,0.004545561037957668,-0.14743819047810908,-0.028882518410682678,-0.23985516209539018,0.9331966029205715,-0.5791868303255544,left,0.002348601818084717,-0.35340120031611333,-3.7491853597700593,-8.402071956133842,-0.22332830700632217,0.004630528390407562,-0.004428744316101074,3.3939921579346057,0.0018360912799835205
1745973445027723500,10.6207236328125,-0.4210299385027374,0.0034525436349213123,-0.1481494002626496,-0.03560338914394379,-0.2395660667819009,0.9331629022019999,-0.5787976684493287,left,0.00039076805114746094,-0.353074465325206,-3.7607477872699495,-8.398117665550112,-0.22330902160692212,0.01646740362048149,-0.0036717653274536133,3.390985669595003,0.0018994510173797607
1745973445067723500,10.6607236328125,-0.42213331727293385,0.01577921397984028,-0.14873083416792984,-0.029482778161764145,-0.23915768374974228,0.933153329192294,-0.5781888221670322,left,0.0041329264640808105,-0.3530833404586751,-3.769999599739909,-8.393935411429405,-0.22339995441069588,0.0005984548479318619,-0.0013475418090820312,3.391067502659559,-0.00007954239845275879
1745973445107723800,10.700723876953125,-0.423451661241572,0.004720067605376244,-0.14931106503465114,-0.021074119955301285,-0.2388592209127516,0.9330612739102724,-0.5779669237231434,left,-0.0012691020965576172,-0.35346856664401066,-3.78052537766844,-8.387766367405652,-0.22371663903397213,-0.01302618719637394,-0.0005237460136413574,3.3946120433986184,0.000720590353012085
1745973445147723800,10.740723876953124,-0.42395881032636035,-0.005175202153623104,-0.14940325855890144,-0.0019643958657979965,-0.23881477610887986,0.932955388135249,-0.5781965820424023,left,0.0011539459228515625,-0.35423477785537943,-3.783707514835894,-8.383474807691574,-0.22414371173828912,-0.01653335802257061,-0.003240227699279785,3.4016605006054044,-0.0007002055644989014
1745973445187723500,10.7807236328125,-0.42395881032636035,-0.020476441830396652,-0.14940325855890144,0.006523380056023598,-0.23881477610887986,0.932955388135249,-0.5781965820424023,left,0.0005987286567687988,-0.35423477785537943,-3.783707514835894,-8.383474807691574,-0.22414371173828912,0.0031574927270412445,-0.002472102642059326,3.4016605006054044,-0.00001284480094909668
1745973445227723500,10.8207236328125,-0.42404646578297783,-0.01931462436914444,-0.1494381815164375,0.007725281175225973,-0.23951075245182457,0.9328427673524303,-0.5794748598679094,left,0.0015650391578674316,-0.35335001326219617,-3.7856793994307516,-8.385883037877083,-0.2238463467440318,0.028516242280602455,-0.0016356706619262695,3.3935210332915187,0.0022721588611602783
1745973445267723500,10.8607236328125,-0.4239519123614734,-0.007355214096605778,-0.14965540777699807,-0.0022720550186932087,-0.23970312981160427,0.9329422108398383,-0.5794269560280996,left,0.001707613468170166,-0.35170027455143676,-3.78718425103575,-8.391331950932742,-0.2230793274197791,0.05169243365526199,-0.00225105881690979,3.378337784945965,0.00039386749267578125
1745973445307723500,10.9007236328125,-0.4240530599558498,-0.0019887443631887436,-0.15005162449401369,-0.010365882888436317,-0.2396512364378762,0.9330993789885319,-0.5788524972260585,left,0.004167318344116211,-0.34986135915419525,-3.7905826613023876,-8.396596739593148,-0.2222098164192791,0.045344363898038864,-0.002664893865585327,3.36140213997513,-0.002253204584121704
1745973445347723800,10.940723876953125,-0.4243875414093348,-0.0014014970511198044,-0.15044704408986637,-0.009742876514792442,-0.23948784732573902,0.9332016518036529,-0.5782809377379056,left,0.000769197940826416,-0.34872518796644003,-3.794961022517085,-8.398803894248605,-0.2216886790564322,0.020343473181128502,-0.0011165142059326172,3.350933060669899,-0.005037248134613037
1745973445387723800,10.980723876953125,-0.4243875414093348,-0.009081494063138962,-0.15044704408986637,-0.01253963727504015,-0.23948784732573902,0.9332016518036529,-0.5782809377379056,left,0.0031998753547668457,-0.34872518796644003,-3.794961022517085,-8.398803894248605,-0.2216886790564322,-0.004287874326109886,-0.0019269585609436035,3.350933060669899,-0.006161034107208252
1745973445427723500,11.0207236328125,-0.42580750377583104,-0.004973874427378178,-0.15100146876202117,-0.025005508214235306,-0.23967204471892617,0.9329947838373023,-0.5790519375341306,left,0.0033751726150512695,-0.34887072461569346,-3.80668185544908,-8.392962182483076,-0.22198325611269018,-0.023585660383105278,-0.0009277164936065674,3.3522742461457846,-0.001375824213027954
1745973445467723500,11.0607236328125,-0.4270667947123165,0.005218071863055229,-0.15138704018706506,-0.021592894569039345,-0.2396831037727094,0.9327857300743012,-0.5796146556164263,left,0.0007156133651733398,-0.34976883618738797,-3.8159991343706845,-8.38541834297478,-0.22258620991708206,-0.0317104272544384,-0.0023603439331054688,3.3605499070599674,0.0011333227157592773
1745973445507723500,11.1007236328125,-0.42800322532441876,0.010526202619075775,-0.15158579495273236,-0.022497035562992096,-0.23951423517768464,0.9326167104015222,-0.5798418694627163,left,0.0025878548622131348,-0.35113845632005175,-3.821936123204231,-8.377645955407619,-0.22333983867754859,-0.03235144913196564,-0.002938508987426758,3.373164766222238,0.0016438961029052734
1745973445547723500,11.1407236328125,-0.42864301244607933,0.014007728546857834,-0.15173268923540018,-0.010170647874474525,-0.23922758949957534,0.9325312530688068,-0.5796736402797446,left,-0.0016936063766479492,-0.35223456787780666,-3.8257559737533327,-8.371830547127127,-0.2239031299581268,-0.01123158261179924,-0.002694547176361084,3.3832559521257877,0.0003973245620727539
1745973445587723500,11.1807236328125,-0.42894015475404323,0.015772808343172073,-0.15187793359798898,-0.011758605018258095,-0.23885286013593524,0.9325620590838644,-0.5790502031122378,left,0.0025792717933654785,-0.3526411409015435,-3.827671159724891,-8.369442190685868,-0.22407655227551243,0.006494145840406418,-0.0017904341220855713,3.386998061263561,-0.0025385618209838867
1745973445627723800,11.220723876953125,-0.42866060017998214,0.02051052264869213,-0.15187023055681953,0.027009865269064903,-0.23849003657172943,0.9326969332257607,-0.5781645099817231,left,-0.012912392616271973,-0.35248985479629036,-3.8255443768292663,-8.370977729690074,-0.2239069855480048,0.012899150140583515,-0.002591043710708618,3.3856057301223275,0.0015898644924163818
1745973445667723800,11.260723876953126,-0.42759151528988476,-0.0026790108531713486,-0.15150053958655402,0.009133892133831978,-0.23833684206104613,0.932876556893774,-0.5774877809884273,left,0.008649230003356934,-0.3521462842930402,-3.8170749469086527,-8.376120353275537,-0.22357164744351216,0.009945523925125599,-0.00040408968925476074,3.382443466699123,-0.004627883434295654
1745973445707723500,11.3007236328125,-0.4274596193715239,-0.005219306796789169,-0.15140868888042822,0.007494506426155567,-0.23848577816340752,0.93285318548285,-0.5777728497312379,left,0.0024433135986328125,-0.35213635026595935,-3.8159839368015525,-8.376654606282711,-0.22357295716551717,-0.019913870841264725,0.00008949637413024902,3.382351989023387,0.0028258562088012695
1745973445747723500,11.3407236328125,-0.4277108530897453,0.00010277610272169113,-0.1513659708644381,0.001722593791782856,-0.23863095508697071,0.9327359639690386,-0.5783153399393637,left,0.0010231733322143555,-0.3527766280633124,-3.817189513199031,-8.373723813527821,-0.22393581863206816,-0.012016586028039455,-0.0035720765590667725,3.3882451387152073,0.0004532933235168457
1745973445787723500,11.3807236328125,-0.4277108530897453,0.008823097683489323,-0.1513659708644381,-0.007472063414752483,-0.23863095508697071,0.9327359639690386,-0.5783153399393637,left,0.002887904644012451,-0.3527766280633124,-3.817189513199031,-8.373723813527821,-0.22393581863206816,-0.007841898128390312,-0.00195920467376709,3.3882451387152073,0.006218463182449341
1745973445827723500,11.4207236328125,-0.4283649673653636,0.02371542900800705,-0.151526110037274,-0.009007899090647697,-0.2383136727433651,0.9326558829890432,-0.5780864106892799,left,0.003064274787902832,-0.3538769935193381,-3.8211148699492212,-8.367828325748443,-0.2244979410036389,-0.018092341721057892,-0.0017410516738891602,3.398369350105524,0.0033326148986816406
1745973445867723800,11.460723876953125,-0.4287801915166326,0.013333788141608238,-0.15163267084487056,-0.010285438038408756,-0.2379315024090154,0.932633296778447,-0.577609826767611,left,0.0026507973670959473,-0.354784271627831,-3.823305657991767,-8.363433305659889,-0.22492466225711652,-0.00585267785936594,-0.0024904608726501465,3.4067139846026895,-0.002327948808670044
1745973445907723800,11.500723876953124,-0.42858848014207074,0.017597554251551628,-0.15152690337322497,0.008721568621695042,-0.2375955812975517,0.9326920265405549,-0.5769917884657483,left,0.0003737211227416992,-0.355338852690855,-3.8209164247676726,-8.362446632710098,-0.22510770047322237,-0.0035655598621815443,-0.004483252763748169,3.4118133535683155,0.0003510415554046631
1745973445947723500,11.5407236328125,-0.4281263951188242,0.011658145114779472,-0.15128786833956753,0.01479833573102951,-0.2373484915546531,0.9327592564591857,-0.5764890363933753,left,0.001754462718963623,-0.35585663423796854,-3.8163179910615086,-8.362603284576535,-0.22525070078918064,-0.007999581284821033,-0.0015759170055389404,3.416573407576978,-0.001481086015701294
1745973445987723500,11.5807236328125,-0.4281263951188242,0.009512452408671379,-0.15128786833956753,0.01903679594397545,-0.2373484915546531,0.9327592564591857,-0.5764890363933753,left,-0.0004013180732727051,-0.35585663423796854,-3.8163179910615086,-8.362603284576535,-0.22525070078918064,-0.007507513277232647,0.0002474188804626465,3.416573407576978,-0.0004883408546447754
1745973446027723500,11.6207236328125,-0.4268735555893907,0.006020769476890564,-0.15063230675788888,0.018019357696175575,-0.23728278775223136,0.9328505651396678,-0.5762208448644222,left,0.0004917383193969727,-0.3565124715164149,-3.8049092928186057,-8.36533592441082,-0.22538070608151406,-0.005755554884672165,-0.00022327899932861328,3.422601289564371,-0.0005978643894195557
1745973446067723500,11.6607236328125,-0.4268735555893907,0.001678205095231533,-0.15063230675788888,0.005332344211637974,-0.23728278775223136,0.9328505651396678,-0.5762208448644222,left,0.005279242992401123,-0.3565124715164149,-3.8049092928186057,-8.36533592441082,-0.22538070608151406,-0.003842366859316826,0.0006338059902191162,3.422601289564371,-0.001705169677734375
1745973446107723800,11.700723876953125,-0.42641927336779517,-0.0013364017941057682,-0.15034531852549018,-0.0013298648409545422,-0.23727704090556348,0.9328583304542578,-0.5762271476029623,left,0.0021886229515075684,-0.3569934569436685,-3.8004274712294337,-8.365563887947797,-0.22554647480334983,-0.004595945589244366,0.00033342838287353516,3.427021151833236,-0.0015756189823150635
1745973446147723800,11.740723876953124,-0.42641927336779517,-0.007467328570783138,-0.15034531852549018,-0.0038706462364643812,-0.23727704090556348,0.9328583304542578,-0.5762271476029623,left,0.002894759178161621,-0.3569934569436685,-3.8004274712294337,-8.365563887947797,-0.22554647480334983,-0.004230101592838764,-0.0004260838031768799,3.427021151833236,-0.002424776554107666
1745973446187723500,11.7807236328125,-0.4267513461915522,-0.009737825952470303,-0.15034248425540522,0.005595862865447998,-0.23760760659839494,0.9327080527585004,-0.5771154347639098,left,0.0018184781074523926,-0.35736479981836217,-3.8026781727656718,-8.363142798280716,-0.22582188068770093,-0.016029272228479385,-0.002044498920440674,3.430433006103337,0.002004772424697876
1745973446227723500,11.8207236328125,-0.42683104001049116,-0.018201448023319244,-0.15020795148908833,0.012773619964718819,-0.2380382986158095,0.9325598182069547,-0.5781523859137064,left,0.005653798580169678,-0.3577167047112773,-3.8028447615042325,-8.361739945745468,-0.22606961517867089,-0.0166703499853611,-0.0023669004440307617,3.4336657044142482,0.002213984727859497
1745973446267723500,11.8607236328125,-0.42673584476844517,-0.015028806403279305,-0.14998946321999898,0.015941990539431572,-0.23850056612365766,0.9324217995771408,-0.5792138678332837,left,0.0005826354026794434,-0.358064887422204,-3.801553552649915,-8.361013385036587,-0.22629653933945706,-0.015263157896697521,-0.004888087511062622,3.4368639159336682,0.007243126630783081
1745973446307723500,11.9007236328125,-0.4262406753781753,-0.008912662975490093,-0.14967714442504662,0.018707169219851494,-0.2388087225706516,0.9323850161967491,-0.5797838636116485,left,0.0012669563293457031,-0.3581740631324321,-3.797257901282608,-8.362553015694022,-0.22632987791835665,0.006895034573972225,-0.004319101572036743,3.437866663235426,0.0018807947635650635
1745973446347723800,11.940723876953125,-0.4255929021436446,-0.007639298215508461,-0.1494212238869603,0.009207036346197128,-0.23897341179688383,0.9324415441580773,-0.5798818079126444,left,0.006212949752807617,-0.3578065208600165,-3.792361361412704,-8.366161269319058,-0.2260924125915149,0.016102291643619537,-0.0030179619789123535,3.434490757061541,-0.0006980597972869873
1745973446387723800,11.980723876953125,-0.4248677230249646,0.0073967622593045235,-0.1492009725369173,0.037407539784908295,-0.23902760798367453,0.9325539736188405,-0.5796626468446402,left,-0.0050612688064575195,-0.35720758031886907,-3.787140704154968,-8.37078191485703,-0.2257165598840955,0.020204128697514534,0.00016191601753234863,3.4289883602529763,0.0014117062091827393
1745973446427723500,12.0207236328125,-0.42292530294274866,0.003992857411503792,-0.1484042317078079,0.03740799054503441,-0.2389894282069597,0.9327859279651746,-0.5790438030143404,left,0.005511641502380371,-0.3569545594199076,-3.771230018317699,-8.37891319886446,-0.22532311983514494,0.008414827287197113,0.00008127093315124512,3.4266637166976928,-0.0038979649543762207
1745973446467723500,12.0607236328125,-0.4217880714533504,-0.003253479953855276,-0.14781963839140516,0.0362425297498703,-0.23917699260197836,0.9328365575839264,-0.5792283073902782,left,0.0000622868537902832,-0.3571697199620236,-3.7613968988284467,-8.382523790577054,-0.22529889371813697,-0.015047388151288033,0.0005723536014556885,3.428640569728613,-0.002102375030517578
1745973446507723500,12.1007236328125,-0.42087394299417796,-0.0060058822855353355,-0.14719314348514956,0.016308646649122238,-0.23945250514825217,0.9327864965117719,-0.57982461574473,left,0.00294417142868042,-0.35802561322576926,-3.752532332110405,-8.383277239292859,-0.22562358107522618,-0.027514247223734856,-0.0029744505882263184,3.436502973666787,-0.0005543529987335205
1745973446547723500,12.1407236328125,-0.4203597652618496,0.0028580930083990097,-0.14678504315619736,0.011656051501631737,-0.23962269600609382,0.9327300646990082,-0.5802665502456545,left,0.0031931400299072266,-0.35878744612930125,-3.7471518081158397,-8.382812544390559,-0.22594168493427966,-0.013221857137978077,-0.0019088983535766602,3.4434994084253905,-0.00025153160095214844
1745973446587723500,12.1807236328125,-0.41969086789375043,0.011765732429921627,-0.14640525844063276,0.019539177417755127,-0.2395162753506902,0.9327739210687753,-0.5800358973383367,left,0.0012921690940856934,-0.3593914273093771,-3.7406954715833067,-8.383416355502606,-0.22611989984208453,-0.012154188007116318,0.0004623234272003174,3.4490447675928473,0.0002612471580505371
1745973446627723800,12.220723876953125,-0.41955795483320835,-0.004735390655696392,-0.1462473608191572,-0.005149455741047859,-0.23949013411480047,0.9327449885636506,-0.5800985419372979,left,0.005194187164306641,-0.35996282064613633,-3.7387779475241896,-8.382112287166715,-0.2263689659462853,-0.014234079979360104,-0.00119820237159729,3.454289682509005,-0.001286834478378296
1745973446667723800,12.260723876953126,-0.41955795483320835,0.00042010145261883736,-0.1462473608191572,-0.004604818765074015,-0.23949013411480047,0.9327449885636506,-0.5800985419372979,left,0.005404531955718994,-0.35996282064613633,-3.7387779475241896,-8.382112287166715,-0.2263689659462853,-0.0025279801338911057,-0.0016048252582550049,3.454289682509005,0.0005631744861602783
1745973446707723500,12.3007236328125,-0.42029285813964473,0.005603221245110035,-0.14656506810636727,-0.018845997750759125,-0.23938815495034965,0.9326823306090356,-0.5801004776110177,left,0.0017810463905334473,-0.36012232799930977,-3.744712013748288,-8.378859422850608,-0.22652975489384836,0.007663407362997532,-0.0026882290840148926,3.455753617581725,0.0009011924266815186
1745973446747723500,12.3407236328125,-0.42117491533805007,0.012988997623324394,-0.14710931625481355,-0.029544465243816376,-0.23905992217829472,0.9327120841641432,-0.5795002078749927,left,0.0014913082122802734,-0.35970457025858343,-3.752691029803455,-8.376869710338115,-0.22640084582966952,0.019328847527503967,-0.004244714975357056,3.451919153985381,-0.0003374814987182617
1745973446787723500,12.3807236328125,-0.42188202089363025,0.024280710145831108,-0.14763193008701972,-0.030112436041235924,-0.23849705548609007,0.9328187195015842,-0.5783566089365548,left,0.0017331838607788086,-0.35929597272919767,-3.759190620955825,-8.37550017555058,-0.22621480549207054,0.020467938855290413,-0.005575895309448242,3.448168277019262,0.0015100538730621338
1745973446827723500,12.4207236328125,-0.423379872615814,0.04504819214344025,-0.14863922205547256,-0.07387479394674301,-0.23739581071135074,0.9329839097046192,-0.5762400203731539,left,0.002158045768737793,-0.35884844488322554,-3.7723654520884153,-8.371266483503579,-0.22603225844791047,0.03969346359372139,-0.002944439649581909,3.4440593803957102,0.0032405853271484375
1745973446867723800,12.460723876953125,-0.4245526137855618,0.047917481511831284,-0.1496808873358779,-0.03295646607875824,-0.23601718913104555,0.9333021675245078,-0.5732907135152296,left,-0.007658421993255615,-0.35780127490478386,-3.7836633834332227,-8.370117897990346,-0.22547366909714162,0.05864816904067993,0.005099684000015259,3.4344425340056417,0.0010906457901000977
1745973446907723800,12.500723876953124,-0.4247381076084042,0.016730686649680138,-0.15020633933302982,-0.015158440917730331,-0.23508917149965036,0.9336195260654577,-0.5710286709203324,left,-0.0017241835594177246,-0.35660242088605615,-3.7869101102694867,-8.373161503469943,-0.22477903399880808,0.04775336757302284,0.0017330646514892578,3.423427803516388,-0.005242735147476196
1745973446947723500,12.5407236328125,-0.4248783562548224,-0.022960765287280083,-0.1505710543579881,-0.009335595183074474,-0.23497089218120149,0.9337622878627203,-0.570411013589568,left,-0.0017365813255310059,-0.3551027004867263,-3.7901965845942494,-8.377298749405146,-0.2240646766049031,0.03204071521759033,0.0008407533168792725,3.4096421470090745,-0.00528678297996521
1745973446987723500,12.5807236328125,-0.42523576551136083,-0.03772231936454773,-0.1508504776411013,0.005782630294561386,-0.2355491829458106,0.9337001463295693,-0.5713572713679808,left,-0.002940952777862549,-0.35367780905364954,-3.7951907396197315,-8.380361059585214,-0.22352771884176284,0.011412648484110832,0.0018378198146820068,3.3965368739813564,0.00010573863983154297
1745973447027723500,12.6207236328125,-0.4254728241377761,-0.03523004800081253,-0.1509409845376466,0.004884200170636177,-0.23630716378672367,0.9335611779904655,-0.5727949669978086,left,0.003731250762939453,-0.35276323706013923,-3.798457924722135,-8.38228647468984,-0.2232467921168953,-0.0016894703730940819,0.00005945563316345215,3.3881218045964836,0.0012787878513336182
1745973447067723500,12.6607236328125,-0.42573616270483866,-0.022822361439466476,-0.15096835482670745,0.002174551133066416,-0.23689857026003455,0.9334082556779174,-0.5740484309632196,left,0.0006468892097473145,-0.35247478731202514,-3.8010683994814753,-8.38217600005269,-0.22324094253164184,-0.007243935484439135,-0.0007134079933166504,3.3854671984344717,0.0005062520503997803
1745973447107723800,12.700723876953125,-0.4259549065373452,-0.006487151607871056,-0.1509253005292186,-0.012771835550665855,-0.2371839659971293,0.9332805489934142,-0.5748150258030204,left,0.01135408878326416,-0.35286108713629627,-3.802361361901462,-8.380152969792485,-0.22350093477914726,-0.017189495265483856,-0.002787649631500244,3.3890222605675455,0.0003934800624847412
1745973447147723800,12.740723876953124,-0.4265442470624824,0.0029055895283818245,-0.15104049399118938,0.004078928381204605,-0.23721678158721776,0.93314859421899,-0.5752235359287157,left,-0.0021965503692626953,-0.3536008569182604,-3.806261291949451,-8.375625847756861,-0.2239390415316965,-0.016914932057261467,-0.0024037957191467285,3.395829017972946,-0.0027601122856140137
1745973447187723500,12.7807236328125,-0.425791009557006,-0.005457701161503792,-0.1505143969054097,0.02503078244626522,-0.23737043334181862,0.9331150743128523,-0.5756003808464593,left,0.003059208393096924,-0.3544588628699227,-3.7987463862746953,-8.375833353027701,-0.22426936708833886,-0.020816052332520485,-0.00373724102973938,3.403721232527494,-0.003531903028488159
1745973447227723500,12.8207236328125,-0.4255808101277358,-0.009635472670197487,-0.15020058276417272,0.009120151400566101,-0.237688530053039,0.9329893701207563,-0.5764408471861608,left,0.0044100284576416016,-0.355244694725224,-3.795880183188617,-8.37419318460524,-0.22466585197200645,-0.029643211513757706,-0.0015389025211334229,3.4109476766496893,-0.0010742247104644775
1745973447267723500,12.8607236328125,-0.42586418856327096,-0.002026872243732214,-0.15010601676011387,-0.005071297287940979,-0.23795257664644764,0.9328211122769813,-0.5772993866422167,left,0.0048632025718688965,-0.356086143104805,-3.7970661781027912,-8.37050075982809,-0.22514756562909954,-0.02999194711446762,-0.003492206335067749,3.418682947076857,-0.000324249267578125
1745973447307723500,12.9007236328125,-0.4267496815631233,0.0027815462090075016,-0.1502806466337961,-0.02337857335805893,-0.23798694932824468,0.9326256122845012,-0.57788411701847,left,0.004839539527893066,-0.3571987856343399,-3.802899998822808,-8.363667114415763,-0.22580383097321557,-0.03571818396449089,-0.003937512636184692,3.4289076962321996,0.0021363496780395508
1745973447347723800,12.940723876953125,-0.4275267763013396,0.01267833262681961,-0.15033171067999263,-0.0034309476613998413,-0.2378945124738578,0.9324242916631648,-0.5783251695087481,left,-0.0010553598403930664,-0.3588834747231747,-3.806997497269511,-8.355441137862204,-0.2266968177886008,-0.050153784453868866,-0.0026124119758605957,3.4443811596959826,0.003910362720489502
1745973447387723800,12.980723876953125,-0.4281948620598051,0.010746767744421959,-0.15025950280493452,-0.010135130025446415,-0.2377856060694299,0.9322013247963818,-0.5788198029305784,left,0.004105210304260254,-0.36099133968304914,-3.8095556573197245,-8.346272327500582,-0.22777319355411368,-0.0545792430639267,-0.0026285946369171143,3.463727665200829,0.0066657960414886475
1745973447427723500,13.0207236328125,-0.42819676306487137,0.008566400036215782,-0.1498501916673284,0.015467719174921513,-0.23773601453885462,0.9320178166310747,-0.579323347891727,left,0.0009391307830810547,-0.3632589068045639,-3.8063004549160597,-8.339098490348459,-0.22884322854316774,-0.05110528692603111,-0.0026608705520629883,3.484522615948319,0.004992246627807617
1745973447467723500,13.0607236328125,-0.42796164911071866,-0.0008153580129146576,-0.14942292321343187,0.008619941771030426,-0.2377859082394985,0.9318841400076594,-0.5798226127604132,left,0.003161489963531494,-0.364931575142279,-3.801915371699631,-8.334678335818648,-0.2296136874743863,-0.026859723031520844,-0.0025013387203216553,3.4998505334615704,0.0017232298851013184
1745973447507723500,13.1007236328125,-0.42740259342810044,0.005365370772778988,-0.14901145912108388,0.029616856947541237,-0.23792469999696028,0.9318449586509285,-0.5801736781806122,left,-0.0038102269172668457,-0.3656415075685164,-3.7962244665816423,-8.334539804130792,-0.22989633516169286,-0.010596167296171188,-0.0006387531757354736,3.506353339484334,0.0026887357234954834
