time,seconds_elapsed,roll,rotationRateZ,quaternionY,rotationRateY,quaternionZ,quaternionW,yaw,devicelocation,accelerationZ,pitch,gravityX,gravityZ,quaternionX,rotationRateX,accelerationX,gravityY,accelerationY
1745973509427230500,0.21023046875,-0.027618995116568346,-0.01910652592778206,-0.01303655253798267,-0.026337243616580963,-4.889423042938549e-17,0.9813803310644058,-0.005392423409159853,left,0.05022859573364258,-0.3856122371968556,-0.25092896363213657,-9.083065676581858,-0.19163135580287166,-0.05173822492361069,-0.2937238812446594,3.6885409214541314,-0.044320136308670044
1745973509467230200,0.250230224609375,-0.34437767013869364,0.048340246081352234,-0.15284107697221921,-0.039713069796562195,-0.06057610330121893,0.9695973305227795,-0.18437702507064443,left,-0.0009284019470214844,-0.33944023289326686,-3.1219203069001433,-8.704158129420875,-0.1812486171010665,-0.03200327977538109,-0.004965662956237793,3.265215555895865,0.01371648907661438
1745973509507230200,0.290230224609375,-0.3489536558805181,0.084943026304245,-0.15494032862224486,-0.02813565731048584,-0.05974667194611185,0.9690631885792284,-0.18401258089857606,left,-0.0020684003829956055,-0.34200311365716113,-3.158846015976369,-8.681888429945706,-0.18259346176443556,-0.03584972396492958,0.004325747489929199,3.2889038899973033,0.005446970462799072
1745973509547230200,0.330230224609375,-0.34971538538722874,0.10562476515769958,-0.1552912969870375,-0.03864814713597298,-0.05737767982690412,0.9686567606193519,-0.1804045822896745,left,0.0013586878776550293,-0.34793342108262926,-3.1587200515091416,-8.661003462827205,-0.1851926874416795,-0.037743180990219116,0.004331469535827637,3.3436341358333825,-0.0065746009349823
1745973509587230200,0.370230224609375,-0.34884456340754827,0.08792226761579514,-0.1550745314551669,-0.05870432406663895,-0.05585127195325937,0.9687066891801484,-0.17734477934399398,left,0.005067765712738037,-0.3492812467528154,-3.1496333664730187,-8.659507671311497,-0.18557978665208275,-0.029850168153643608,0.0016693174839019775,3.3560566872939464,-0.009568274021148682
1745973509627230200,0.410230224609375,-0.34923228069616924,0.041133228689432144,-0.15558005029526256,-0.07933638989925385,-0.054187696939242594,0.9687757605880529,-0.17396884157348402,left,-0.00766599178314209,-0.34919946305044985,-3.1530843837097287,-8.658543794715404,-0.18528887639982158,-0.003458689898252487,-0.002583712339401245,3.3553029463171957,-0.012105822563171387
1745973509667230500,0.45023046875,-0.349284329156357,0.025170808658003807,-0.15606288904190058,0.019319936633110046,-0.05330970430517553,0.9691435936435682,-0.1714173613622306,left,-0.011346876621246338,-0.34527924198488624,-3.158012487761676,-8.6706726239264,-0.1832023588149166,0.11166328191757202,-0.007242977619171143,3.319153482310474,0.0004089474678039551
1745973509707230200,0.490230224609375,-0.34699004669084155,0.03951048478484154,-0.15561800207429363,0.04354193061590195,-0.05239142661546915,0.9698918059626288,-0.16790628039073882,left,0.009276986122131348,-0.339032363872524,-3.1451009837403894,-8.697224530765414,-0.17985552038424782,0.13164719939231873,-0.014506727457046509,3.2614436361417174,0.016056746244430542
1745973509747230200,0.530230224609375,-0.3447934301773667,0.011173967272043228,-0.1549156991202094,0.056085992604494095,-0.05204107129881975,0.9703851449271181,-0.16608967252188592,left,0.0038796663284301758,-0.33537488869880683,-3.129999860720336,-8.715280411937833,-0.1778918170821952,0.10656579583883286,-0.005603998899459839,3.227596019336581,0.002229452133178711
1745973509787230200,0.570230224609375,-0.34439467803248414,-0.019074009731411934,-0.1548127718264207,0.05396339297294617,-0.05208796437520523,0.9705190664946366,-0.16586903941678433,left,0.00233304500579834,-0.3340726775639049,-3.1279408823639154,-8.720476227015256,-0.1772355803898292,0.06133760139346123,-0.00252649188041687,3.215534410142898,-0.007787257432937622
1745973509827230200,0.610230224609375,-0.3436844627003437,-0.02182595059275627,-0.154475354426873,0.04587728530168533,-0.05245358055363347,0.9706275195261544,-0.16632820818803673,left,0.0026564598083496094,-0.3331933752740034,-3.1226980132743716,-8.725354646706581,-0.17682787848070733,0.031841546297073364,-0.00043767690658569336,3.207386759522557,-0.011034339666366577
1745973509867230200,0.650230224609375,-0.34333914319106246,-0.02491151914000511,-0.15427581027620163,0.015142504125833511,-0.053113204266945095,0.9707118677226223,-0.1674074465608098,left,0.0023561716079711914,-0.3320329672736536,-3.1209356797769665,-8.729930868580936,-0.1763416144375021,-0.001615375280380249,0.0013469457626342773,3.1966309722304342,-0.012007474899291992
1745973509907230500,0.69023046875,-0.34334553568896314,-0.018901677802205086,-0.15415435480882733,0.014734216034412384,-0.05389810540517059,0.9706881379280217,-0.16897827556589148,left,-0.00363236665725708,-0.33177891248770447,-3.12126476560086,-8.730675549468398,-0.17634020818641022,-0.04259787127375603,0.004575639963150024,3.194275349014997,-0.0068378746509552
1745973509947230500,0.73023046875,-0.34337187044777534,-0.018896272405982018,-0.15404644069365198,0.01029985025525093,-0.05440804872951967,0.9706271612846112,-0.17010570061615868,left,-0.002132236957550049,-0.3321631837300725,-3.1210812257274982,-8.729436947584151,-0.17661336825614027,-0.05273565277457237,0.0029860734939575195,3.197838009932637,-0.004019111394882202
1745973509987230200,0.770230224609375,-0.3432889796414605,-0.0016254466027021408,-0.1538021151743065,0.01947072520852089,-0.05511041422410224,0.9705094016498428,-0.17173885811277895,left,0.0008707046508789062,-0.3332360781916932,-3.1192011110693216,-8.726459977599978,-0.17725484642083666,-0.04025709629058838,0.0028682053089141846,3.2077824808418747,-0.0005490481853485107
1745973510027230200,0.810230224609375,-0.34312945106760934,-0.0012171771377325058,-0.15365197119857982,0.007926039397716522,-0.05531573928564795,0.9704693987953628,-0.17223052901832256,left,0.0016550421714782715,-0.3337575398487056,-3.11724588534832,-8.725380950191617,-0.1775399973583943,-0.02945249155163765,0.0002995431423187256,3.212614723303914,-0.0014286339282989502
1745973510067230200,0.850230224609375,-0.34296414675558695,-0.005840384401381016,-0.1534943301565294,0.006786317098885775,-0.05551224236819677,0.9704233574408582,-0.17271908931534716,left,0.000535130500793457,-0.33436532402074703,-3.115146282720566,-8.724055839067697,-0.17786635875380932,-0.02828371338546276,0.0010862648487091064,3.2182454226672648,0.0003911256790161133
1745973510107230200,0.890230224609375,-0.3431329141465719,-0.008624671958386898,-0.15343847065137114,-0.007280131336301565,-0.05577839887332836,0.9702999306130292,-0.17352015660672504,left,0.0031047463417053223,-0.33554718012674284,-3.1153365445956585,-8.719941974008083,-0.17850304668240546,-0.03226223960518837,-0.0019229352474212646,3.2291914718344805,-0.0013891160488128662
1745973510147230500,0.93023046875,-0.3434105591000187,-0.013164681382477283,-0.15347817312998027,0.008569395169615746,-0.05602648149745802,0.9702140562712008,-0.17419739564140002,left,-0.004835247993469238,-0.33615865566979075,-3.1170921560913323,-8.717215763914584,-0.1788578907491636,-0.024760909378528595,-0.0006991922855377197,3.23485285859704,0.0005980730056762695
1745973510187230500,0.97023046875,-0.342831691383012,-0.009867984801530838,-0.1530559248909435,0.020858917385339737,-0.05645026843722864,0.9701574019848235,-0.17515014615969418,left,0.003650367259979248,-0.3371498483930552,-3.110966074426472,-8.71599469768703,-0.17939297423080616,-0.0329546257853508,0.002502262592315674,3.2440275141775605,0.0022813081741333008
1745973510227230200,1.010230224609375,-0.3428319800960692,-0.019055545330047607,-0.15291325585462265,0.0031057000160217285,-0.056963271525070656,0.9700752767938161,-0.17632952505118482,left,0.004996359348297119,-0.3377985225634398,-3.1102605565056205,-8.714009661349653,-0.17979620733615348,-0.026830989867448807,0.002640962600708008,3.2500299694627524,0.0014404058456420898
1745973510267230200,1.050230224609375,-0.34347493283631875,-0.0192860160022974,-0.15306969372599938,-0.01572590507566929,-0.05745362806381736,0.9699354051598617,-0.17759590291233038,left,0.0035482048988342285,-0.3385222406809603,-3.1150697103530165,-8.709791166871785,-0.18026065481655323,-0.01416059024631977,0.0007459819316864014,3.256725375448167,0.003274083137512207
1745973510307230200,1.090230224609375,-0.3440147157665576,-0.012632457539439201,-0.15325945483932424,-0.01414952427148819,-0.057637623784202945,0.9698492192610872,-0.17814834830027387,left,0.002232849597930908,-0.33890794404712543,-3.1193466570198534,-8.706925256046652,-0.18050453992754834,-0.01874363422393799,0.0014894604682922363,3.260293004801869,0.005295783281326294
1745973510347230200,1.130230224609375,-0.34441124775678056,-0.00015802495181560516,-0.15333730076606228,0.0037119314074516296,-0.05778330857737974,0.9697209046602949,-0.17872617892305245,left,0.0009029507637023926,-0.33998642583048605,-3.121610218037665,-8.702372999569773,-0.1810804358469794,-0.029768116772174835,0.0032452642917633057,3.270265825022757,0.005743652582168579
1745973510387230200,1.170230224609375,-0.3447178936465837,0.015514286234974861,-0.15335803029401146,-0.009465334005653858,-0.05769895806552917,0.9695508635210062,-0.1789586282783191,left,0.0007284879684448242,-0.3418337587591772,-3.1222315648064014,-8.695714710724353,-0.1819979361012033,-0.03704598918557167,0.0031846463680267334,3.287339124898612,0.009204834699630737
1745973510427230500,1.21023046875,-0.3440488071892277,0.04309556633234024,-0.15300023428157414,0.010271350853145123,-0.057237081294190806,0.9694899216549666,-0.17821167988987982,left,0.0015895962715148926,-0.3435897960664207,-3.114460930804908,-8.692354294380545,-0.18276817472803047,-0.0365397073328495,0.001043081283569336,3.3035587305545806,0.0036873817443847656
1745973510467230200,1.250230224609375,-0.3433943855564137,0.033761415630578995,-0.1526758722593587,-0.0063707539811730385,-0.05640819527538384,0.9694000680277756,-0.17681893061869264,left,0.003000319004058838,-0.3459285062472722,-3.106161889015138,-8.687091843807696,-0.18377070435573745,-0.023163817822933197,-0.0027396976947784424,3.3251439548969266,-0.0067341625690460205
1745973510507230200,1.290230224609375,-0.3431549194198003,-0.0014325939118862152,-0.15254000172188703,0.0045560142025351524,-0.05591498383546516,0.969318254781971,-0.1760522667443264,left,-0.004401862621307373,-0.3475024919042489,-3.1023166117638348,-8.682895561161637,-0.18446428261102724,-0.01488047931343317,-0.00038999319076538086,3.3396611405491825,-0.006447255611419678
1745973510547230200,1.330230224609375,-0.3435747560121018,-0.021786075085401535,-0.15267902824589724,-0.00045857997611165047,-0.056216551782202376,0.9692669968451463,-0.17675357433064645,left,0.00017493963241577148,-0.34749799900178147,-3.1059669509649277,-8.681606690394878,-0.1845273816865976,-0.015796247869729996,-0.0009698867797851562,3.339619639495015,-0.0039017200469970703
1745973510587230200,1.370230224609375,-0.3441385449730446,-0.03179297223687172,-0.15282434599374964,0.0014878693036735058,-0.05695148472653665,0.9692020361198198,-0.17832240474965416,left,0.0005730986595153809,-0.3472064531573497,-3.111189361788332,-8.680770239570736,-0.1845226406395163,-0.008100222796201706,0.0002187192440032959,3.3369311310634013,0.0007101893424987793
1745973510627230200,1.410230224609375,-0.3449272057928671,-0.038206711411476135,-0.15309298100368632,-0.017395252361893654,-0.05773516546986445,0.9691450716318766,-0.1799659337986405,left,0.005726873874664307,-0.34655229803745385,-3.1187720720022916,-8.680366334944964,-0.18435567925575574,0.0073788948357105255,-0.001997053623199463,3.3308982806399463,-0.00045433640480041504
1745973510667230500,1.45023046875,-0.34588283444870543,-0.04067590832710266,-0.1535221667643808,-0.020633477717638016,-0.05821235802754298,0.9691176815347168,-0.18094859576602645,left,0.0029793977737426758,-0.34558392101147345,-3.128158032245934,-8.680412512174248,-0.18399205522660278,0.026143500581383705,-0.0011465251445770264,3.321964740338921,-0.0009506046772003174
1745973510707230200,1.490230224609375,-0.3469190241913627,-0.04519897699356079,-0.15401839549815385,-0.0041282568126916885,-0.05897186026773705,0.9691541832495161,-0.18232261809420458,left,-0.00038737058639526367,-0.3435361980210028,-3.1394571326345204,-8.683545549502968,-0.18314127722477247,0.04371889308094978,-0.0011719465255737305,3.303063640514016,0.0010779798030853271
1745973510747230200,1.530230224609375,-0.3473181964215906,-0.03096906654536724,-0.15425459391013338,0.013100733980536461,-0.05982094570303648,0.9692924378525908,-0.18362687396909066,left,-0.002191781997680664,-0.3407927860076825,-3.1459955944925544,-8.69077959240973,-0.18193152425956968,0.039518896490335464,-0.0008848011493682861,3.27771964816004,0.002358734607696533
1745973510787230200,1.570230224609375,-0.34696103721356764,-0.01838774047791958,-0.15409153335836487,0.01220437977463007,-0.06016269553033305,0.9693728934402295,-0.18409537057664174,left,0.003247976303100586,-0.33990282724708387,-3.1438819633394477,-8.694642697578669,-0.1815279790121779,0.01522846519947052,0.00039821863174438477,3.2694927948236465,0.000514596700668335
1745973510827230200,1.610230224609375,-0.34701697972078666,-0.01066877692937851,-0.15406517108397969,-0.002149255946278572,-0.060506860612908456,0.9693594508417319,-0.18478623906241576,left,0.002127707004547119,-0.33974705263378063,-3.144541596291959,-8.694945479917525,-0.1815078057596057,-0.009496739134192467,-0.0014799833297729492,3.2680525328874586,-0.0011910498142242432
1745973510867085600,1.65008544921875,-0.3466875312763947,0.012760287150740623,-0.15382211360151868,0.022443216294050217,-0.060630381169478935,0.9693093797823984,-0.1851429871240508,left,-0.000680814846418798,-0.3406057522689055,-3.140722330264747,-8.693338044720887,-0.18193917278427074,-0.02805132232606411,0.00032318857847712934,3.275990924671292,0.000621059094555676
1745973510907085300,1.690085205078125,-0.3467849377598537,0.0075158351100981236,-0.15374842989941878,0.013636761344969273,-0.06068175040774015,0.9691825379405193,-0.18553892318248286,left,0.0024938583374023438,-0.3420307603048172,-3.1399791106820105,-8.6886332280308,-0.18265927509313326,-0.03903689235448837,-0.00019434094429016113,3.2891593260630962,0.002175450325012207
1745973510947085300,1.730085205078125,-0.34688289722144644,0.0022713830694556236,-0.15367464036861203,0.004830307327210903,-0.060733145473664554,0.96905497882855,-0.18593528454874533,left,0.005666673183441162,-0.3434555870643533,-3.1392338452726603,-8.683909122118353,-0.18337925181285178,-0.050022464245557785,-0.0007120370864868164,3.3023195441484448,0.0037306249141693115
1745973510987085300,1.770085205078125,-0.3471124014411412,0.00047975615598261356,-0.15366343968728713,0.00429547717794776,-0.06088053311992939,0.9689310941819942,-0.18650626495336722,left,0.003992557525634766,-0.34462488058744467,-3.139911013881862,-8.67955151143074,-0.1839934047889864,-0.04230509325861931,-0.0007843673229217529,3.313114202146232,0.004798769950866699
1745973511027085300,1.810085205078125,-0.3471905706854628,-0.0010518401395529509,-0.15356179602265102,0.004261396825313568,-0.06100848894685615,0.9687962271833416,-0.18706540316663098,left,0.0051628947257995605,-0.3460905225786433,-3.1389339855432508,-8.674730959406494,-0.18474467395821223,-0.02219897136092186,0.00021949410438537598,3.3266385773688554,0.004322677850723267
1745973511067085300,1.850085205078125,-0.34724445611706034,-0.0007967493729665875,-0.15353325492349243,-0.0007420964539051056,-0.061054625651401094,0.9687413834713736,-0.1872812210172589,left,0.006578207015991211,-0.34666719848179534,-3.1387481075823307,-8.672756444463133,-0.18504061197096175,-0.012052064761519432,0.0003154277801513672,3.331958018825948,0.004707217216491699
1745973511107085600,1.89008544921875,-0.34724445611706034,0.0018658592598512769,-0.15353325492349243,0.004885656759142876,-0.061054625651401094,0.9687413834713736,-0.1872812210172589,left,0.0022125244140625,-0.34666719848179534,-3.1387481075823307,-8.672756444463133,-0.18504061197096175,-0.0009153792634606361,0.0002760589122772217,3.331958018825948,0.002726942300796509
1745973511147085300,1.930085205078125,-0.34724445611706034,-0.010061654262244701,-0.15353325492349243,-0.011477923020720482,-0.061054625651401094,0.9687413834713736,-0.1872812210172589,left,0.0032278895378112793,-0.34666719848179534,-3.1387481075823307,-8.672756444463133,-0.18504061197096175,0.010557236149907112,-0.0007680058479309082,3.331958018825948,0.0005789399147033691
1745973511187085300,1.970085205078125,-0.34849673710646795,-0.007006946951150894,-0.15413546020229063,-0.012872920371592045,-0.061141413263445396,0.96866849820945,-0.18761513087505013,left,0.0000622868537902832,-0.346226779493721,-3.1501071214646097,-8.670197407630086,-0.1848924760835425,0.016472311690449715,0.000923842191696167,3.3278955916926263,0.00035691261291503906
1745973511227085300,2.010085205078125,-0.34942337756121594,-0.00016317469999194145,-0.15460314132477487,-0.02504156529903412,-0.061146635606392476,0.9686293833777468,-0.18771356489305144,left,0.0033398866653442383,-0.34576293165268523,-3.1586680290609594,-8.668723827946186,-0.18470505078368246,0.010590308345854282,0.000017136335372924805,3.3236163069382307,0.0012980103492736816
1745973511267085300,2.050085205078125,-0.3501801620829706,0.014696111902594566,-0.15499639406956667,-0.02625306323170662,-0.06091787736238692,0.9685770883254015,-0.18739430144317423,left,0.0014721155166625977,-0.34580843336438305,-3.1651755112588402,-8.666188756510614,-0.18472534112504582,-0.0029368409886956215,-0.0010727643966674805,3.3240362859159704,0.0012990832328796387
1745973511307085300,2.090085205078125,-0.3509474735844103,0.026978138834238052,-0.15537949849808422,-0.028710804879665375,-0.06048070419322389,0.9684790754082416,-0.18678227906765382,left,0.0014095902442932129,-0.3465560943621625,-3.170968999968469,-8.661421395978332,-0.18506109294355638,-0.019099097698926926,-0.0005733370780944824,3.3309333519533273,0.0005876421928405762
1745973511347085600,2.13008544921875,-0.35192628400533565,0.03731634467840195,-0.15584383349835462,-0.027536723762750626,-0.05970810719537288,0.9682970059414682,-0.18572135948558693,left,0.000900566577911377,-0.3483518172659666,-3.1773785747498273,-8.652685131815076,-0.18587239398251204,-0.031556542962789536,-0.0010067224502563477,3.3474911035224792,-0.0020773112773895264
1745973511387085300,2.170085205078125,-0.3527713665633668,0.026456398889422417,-0.1562276426053314,-0.020634591579437256,-0.05889149948041302,0.9680983586764947,-0.18461273167158096,left,0.00013440847396850586,-0.3504956748203216,-3.1822026339054106,-8.643242180687189,-0.18684276537477348,-0.02972889505326748,-0.0019995570182800293,3.3672447285234925,-0.005847454071044922
1745973511427085300,2.210085205078125,-0.3535654481598384,0.009826714172959328,-0.1565683859577339,-0.01919163204729557,-0.05853912195513843,0.9679492170954795,-0.1842804373738553,left,-0.0031594038009643555,-0.35174246568814127,-3.1876091691240664,-8.63676743171513,-0.18744003097888728,-0.02678210660815239,0.002121478319168091,3.378725322958827,-0.0005060136318206787
1745973511467085300,2.250085205078125,-0.35428014066583485,-0.003907649777829647,-0.1568786051538654,-0.03012223355472088,-0.05850327217710923,0.9678596470291719,-0.1844185931845301,left,0.0007940530776977539,-0.35212125758431106,-3.1933366068601607,-8.633286019340156,-0.18765402120322192,-0.014545704238116741,0.004735618829727173,3.382212580552697,-0.0030710697174072266
1745973511507085300,2.290085205078125,-0.3561160162236601,-0.015847496688365936,-0.15772648908892947,-0.05194602906703949,-0.05863847124120261,0.9677170267330295,-0.18500629499871088,left,0.0029355883598327637,-0.35187735124895925,-3.209468241971731,-8.628181389677524,-0.18763667738055764,0.0018135951831936836,0.0028988122940063477,3.379967139713466,-0.0007141828536987305
1745973511547085300,2.330085205078125,-0.35868619814658514,-0.019636888056993484,-0.15895815236972255,-0.05037515610456467,-0.05877869045470334,0.9675560378314304,-0.1856393163752357,left,-0.004498779773712158,-0.35108948165576126,-3.2325676702693102,-8.622395207491516,-0.18738332612047753,0.01878436654806137,-0.0006102323532104492,3.3727132230624552,-0.0011979937553405762
1745973511587085300,2.370085205078125,-0.3600879064337055,-0.016102610155940056,-0.15969628174898418,-0.020629165694117546,-0.05888074602703708,0.967540856215972,-0.18585818322171396,left,0.004113972187042236,-0.34975749493250524,-3.2462305771797895,-8.62205209314227,-0.18680144865398035,0.030638836324214935,-0.00661042332649231,3.3604446931198235,0.00017884373664855957
1745973511627085600,2.41008544921875,-0.3603674568208858,0.001806681975722313,-0.15992384691900358,0.0050241295248270035,-0.05888536591886685,0.9676197125425209,-0.18567510247401534,left,-0.00252532958984375,-0.3485120029764667,-3.250114140614867,-8.625054197567701,-0.1861960790891335,0.027922313660383224,-0.008702367544174194,3.3489676058158278,0.004433542490005493
1745973511667085300,2.450085205078125,-0.35918316363547853,0.0015473220264539123,-0.15945764492828574,0.03523457422852516,-0.05880163451996028,0.9677990609127911,-0.18509964920528463,left,0.0008719563484191895,-0.3476272126178403,-3.2409374392077326,-8.631668062749505,-0.18568970945648888,0.038411255925893784,-0.007066071033477783,3.340810895106196,-0.001291424036026001
1745973511707085300,2.490085205078125,-0.3580454091295101,-0.022854812443256378,-0.15898336334199473,0.03965191915631294,-0.059034124333550944,0.9679874827668213,-0.18510921085664006,left,0.0006649494171142578,-0.3463428204298549,-3.2326156010642646,-8.639361539861559,-0.18503904283576947,0.033024370670318604,-0.004126995801925659,3.328966143533587,-0.0022670328617095947
1745973511747085300,2.530085205078125,-0.35648272209817156,-0.04405903071165085,-0.15820461566143976,0.04843944311141968,-0.05990132114193804,0.9681879714670096,-0.18631287093042254,left,0.004063129425048828,-0.3448662703361308,-3.2208228719398377,-8.648999136778711,-0.18437750004108253,0.010541360825300217,-0.0014832019805908203,3.315342399589717,0.0004628896713256836
1745973511787085300,2.570085205078125,-0.35537396815336825,-0.05670163780450821,-0.1574731821727065,0.03613058850169182,-0.06138654118688559,0.9682602685307865,-0.1889990604501457,left,0.006258547306060791,-0.34399365832497714,-3.2122368299022317,-8.655273979264496,-0.18413588900952346,-0.013761451467871666,-0.0007803738117218018,3.307287395688891,0.003930598497390747
1745973511827085300,2.610085205078125,-0.3551081808669662,-0.03734678030014038,-0.15713366790034486,0.017233096063137054,-0.06255500516730085,0.9682148215566823,-0.19134532036507448,left,0.006343245506286621,-0.3439079021432458,-3.210034643682837,-8.656393338683246,-0.18427094698295968,-0.014568393118679523,-0.0014748871326446533,3.306495660789311,0.007194578647613525
1745973511867085600,2.65008544921875,-0.35506678632618716,0.005757030099630356,-0.15701215835145974,-0.0032458361238241196,-0.06290529169576743,0.9681591661344565,-0.19214830680144454,left,0.010860919952392578,-0.34435420285677876,-3.2091631215453145,-8.655141877317428,-0.18454747249699247,-0.012057671323418617,-0.0051607489585876465,3.3106159555897117,0.009476900100708008
1745973511907085300,2.690085205078125,-0.35559206605552157,0.01987016759812832,-0.15729536676779812,-0.009506914764642715,-0.06258318237359377,0.9681118209780779,-0.19164017214332701,left,-0.001447439193725586,-0.34464609006294794,-3.2133725559338924,-8.65254835369289,-0.18466445798031528,0.009211989119648933,-0.0028300583362579346,3.313310016979277,0.0023707151412963867
1745973511947085300,2.730085205078125,-0.35545835136670384,0.01099521853029728,-0.15734899643522113,0.01033269427716732,-0.06208221702791646,0.9681764295759921,-0.1905292480097935,left,-0.0027332305908203125,-0.34438791650730893,-3.2125130164951083,-8.653779941314458,-0.18444868898008634,0.016581814736127853,-0.0013512372970581055,3.3109269212350245,-0.0014337599277496338
1745973511987085300,2.770085205078125,-0.3547548769476193,-0.018858376890420914,-0.1570328750288994,0.03569450601935387,-0.06214999403317551,0.9682573470933276,-0.1904735986836868,left,-0.0031540393829345703,-0.3440722478932584,-3.2067873323246836,-8.657017023539543,-0.18427055196412523,-0.006788857281208038,-0.0006952881813049316,3.308013079614937,-0.005371123552322388
1745973512027085300,2.810085205078125,-0.35375138579050275,-0.03575049340724945,-0.15646044224416567,0.04550125449895859,-0.06269786220153432,0.9683067192112743,-0.19141405033948955,left,-0.0018461346626281738,-0.3440713016175999,-3.198099583478272,-8.660233647498488,-0.1843124805873522,-0.017041824758052826,0.0013061165809631348,3.3080043117865916,-0.00457763671875
1745973512067085300,2.850085205078125,-0.35244490305187154,-0.04077349603176117,-0.15564078775908732,0.04643915966153145,-0.06375979519245238,0.9683391178796528,-0.19337776933050885,left,-0.000032007694244384766,-0.34416976786652864,-3.1866701347082853,-8.664099090754986,-0.1844717891725146,-0.02071124128997326,0.0014338195323944092,3.3089132433250543,-0.0024389922618865967
1745973512107085600,2.89008544921875,-0.3513329396080156,-0.03798288851976395,-0.15488998557896208,0.029979052022099495,-0.06492867492580665,0.9683452625488846,-0.19560231936869377,left,0.0029279589653015137,-0.34428465424223137,-3.1769030661925672,-8.66728005887866,-0.18466398985935298,-0.022595664486289024,0.0028316378593444824,3.309973858293891,-0.0009508728981018066
1745973512147085300,2.930085205078125,-0.35079973268221554,-0.03157168626785278,-0.15436882243294686,0.01669040322303772,-0.06607142374441981,0.9682572736311026,-0.19799145440763818,left,0.0010209083557128906,-0.3449582462230403,-3.1715143588915464,-8.666876738774777,-0.1851553967230229,-0.04005606472492218,0.0011858344078063965,3.316191125373542,0.00026720762252807617
1745973512187085300,2.970085205078125,-0.3505441896974479,-0.024288728833198547,-0.1540662016188645,0.02401365339756012,-0.06665707271691543,0.9681662433719045,-0.1993229836132508,left,0.005136013031005859,-0.3458384712094097,-3.1682956891059875,-8.664942555841803,-0.18567308528712473,-0.042397283017635345,-0.0017405450344085693,3.324313349291682,0.00030866265296936035
1745973512227085300,3.010085205078125,-0.3501383578457813,-0.022380642592906952,-0.15362649810530613,0.016978099942207336,-0.06742029666270483,0.9680421657112986,-0.20106902779776567,left,0.003387928009033203,-0.34711346843563684,-3.163322576868534,-8.662239142102003,-0.18640713940495962,-0.031158622354269028,-0.006425380706787109,3.336073929712176,0.0008994638919830322
1745973512267085300,3.050085205078125,-0.35003320202152083,-0.02541959658265114,-0.153450390843909,0.022062744945287704,-0.06795238179047855,0.9679889900458771,-0.20220631935414302,left,-0.0009515285491943359,-0.347413598646279,-3.1620681928932663,-8.66163065481484,-0.18663523614974434,-0.015476813539862633,-0.00505104660987854,3.3388413485988973,0.0030038654804229736
1745973512307085300,3.090085205078125,-0.3498579769462959,-0.03239265829324722,-0.15325993250200415,0.017075534909963608,-0.06872911431400332,0.9679897712604901,-0.20368082095001183,left,0.00194549560546875,-0.3469159134077267,-3.1611195138663053,-8.663744285967946,-0.18650295905507866,0.007338469848036766,-0.002912670373916626,3.334251974982023,0.004012644290924072
1745973512347085600,3.13008544921875,-0.3494384831667635,-0.016934581100940704,-0.15299517696079593,0.02597125433385372,-0.06942467385175045,0.9680397015612344,-0.2048850195407029,left,0.0014478564262390137,-0.3461315483653425,-3.1583792752474547,-8.667524389028548,-0.18620342370163342,0.005615099333226681,0.0009401440620422363,3.327017055292427,0.0051340460777282715
1745973512387085300,3.170085205078125,-0.34896236769752736,-0.015250680036842823,-0.15269800541350828,0.010921456851065159,-0.06994153956811504,0.9680661290056937,-0.205804656436286,left,0.002369821071624756,-0.3458392129683223,-3.154584559139609,-8.669940802520513,-0.18611651475302662,0.0028962534852325916,0.0020085275173187256,3.3243200712934136,-0.002374202013015747
1745973512427085300,3.210085205078125,-0.3491723491340385,-0.014651509001851082,-0.1527768276769785,-0.0034063132479786873,-0.07012281748186708,0.9680512937739272,-0.2061825669229218,left,0.0002601146697998047,-0.3456483956115383,-3.1566219101861117,-8.669874167025089,-0.18606094575204918,0.0029403953813016415,0.0012923777103424072,3.3225597836226224,-0.003875046968460083
1745973512467085300,3.250085205078125,-0.34949200945567954,-0.027109570801258087,-0.1528502414037651,0.0024207215756177902,-0.07053319382663546,0.9679981488022715,-0.20708416323173337,left,-0.00022774934768676758,-0.345608601824645,-3.1594384289115665,-8.668989200884104,-0.18612193973162508,-0.015193112194538116,-0.0005488991737365723,3.3221924116149544,-0.0056001245975494385
1745973512507085300,3.290085205078125,-0.35019253724334537,-0.03814272582530975,-0.15298111188059982,0.006083831191062927,-0.07133730939483623,0.9678406786822235,-0.20897565997357206,left,-0.003256678581237793,-0.3460980169651908,-3.164952516157925,-8.665245338180661,-0.18652672890951227,-0.042121171951293945,-0.000792771577835083,3.326707843212783,-0.005908608436584473
1745973512547085300,3.330085205078125,-0.3505854307561442,-0.03110617585480213,-0.15286087010719154,0.01230049878358841,-0.07229417206280264,0.9676206679256972,-0.2113036366756524,left,-0.00035268068313598633,-0.3475070028243664,-3.1667437834888696,-8.659590088897943,-0.18739615787077896,-0.07081126421689987,-0.0010908842086791992,3.3397026416033504,-0.0011656880378723145
1745973512587085300,3.370085205078125,-0.3509535263105375,-0.020476825535297394,-0.15270522058808692,0.006940285209566355,-0.07309214420613727,0.9673618639152984,-0.21342086613097527,left,0.002299368381500244,-0.3495351908927124,-3.1675957241430877,-8.652045664867758,-0.1885459097850307,-0.06859569251537323,-0.0023845434188842773,3.358396528418362,0.0015297234058380127
1745973512627085600,3.41008544921875,-0.3511783420694117,-0.010225172154605389,-0.15257242296916287,0.0079204635694623,-0.07358113779001767,0.9671676819428556,-0.21480082417403137,left,-0.000496983528137207,-0.3511954508542618,-3.1676182282358405,-8.646085879680514,-0.1894570341208452,-0.042698681354522705,-0.0012398064136505127,3.3736890823572874,0.00448840856552124
1745973512667085300,3.450085205078125,-0.35115940560575365,0.0015573492273688316,-0.15243614850633236,0.00557683827355504,-0.0737726484685878,0.9670671599373093,-0.21539840000651825,left,0.0032330751419067383,-0.35224299734307624,-3.166237295271456,-8.642822493970394,-0.1900049994674125,-0.01937006786465645,-0.00047346949577331543,3.383333109015226,0.004377007484436035
1745973512707085300,3.490085205078125,-0.35097205933699915,0.011220640502870083,-0.15233410699112634,0.007725981064140797,-0.07368741759688371,0.967058434473566,-0.21525759676272102,left,-0.0008393526077270508,-0.3526119371587097,-3.1641885460481047,-8.642243232777714,-0.19016453313490228,-0.00007382780313491821,0.00047406554222106934,3.3867285966724157,0.0030284225940704346
1745973512747085300,3.530085205078125,-0.3505973888170185,0.01003330573439598,-0.15220923365466316,0.003187131602317095,-0.07349546755853711,0.967115586133194,-0.21476060292179588,left,-0.00006669759750366211,-0.3524772006301104,-3.161107238906622,-8.64385651319325,-0.1900481961572854,0.010652594268321991,0.00006887316703796387,3.3854885334834455,0.0011732876300811768
1745973512787085300,3.570085205078125,-0.3504673063090538,0.007803560700267553,-0.15221641623180326,-0.0018724198453128338,-0.07329538801509487,0.9671693394679848,-0.21425653499731387,left,0.0017771124839782715,-0.3521460620044633,-3.1603675264552233,-8.645320156005024,-0.18984601556710684,0.008902658708393574,0.0003433823585510254,3.3824408363506198,0.0008414089679718018
1745973512827085300,3.610085205078125,-0.3504673063090538,0.011199264787137508,-0.15221641623180326,0.00400516577064991,-0.07329538801509487,0.9671693394679848,-0.21425653499731387,left,0.00047832727432250977,-0.3521460620044633,-3.1603675264552233,-8.645320156005024,-0.18984601556710684,-0.0015629883855581284,0.00023052096366882324,3.3824408363506198,0.00004455447196960449
1745973512867085600,3.65008544921875,-0.3500042902223154,0.010329537093639374,-0.15202463643942402,0.009713700041174889,-0.07299003639668895,0.967195135937592,-0.21361754716044973,left,-0.000722050666809082,-0.35257268667311525,-3.1558690459921954,-8.645425954467058,-0.18998542047847355,-0.008512388914823532,0.00040403008460998535,3.3863673621445893,-0.0011795759201049805
1745973512907085300,3.690085205078125,-0.34937704726717395,0.008680780418217182,-0.15171886621868053,0.013475557789206505,-0.07281514602636983,0.9672127767861202,-0.21324353097718066,left,-0.00001043081283569336,-0.3531411663025355,-3.149786218947172,-8.645593712249397,-0.1902072162765839,-0.010359242558479309,0.00047847628593444824,3.391598833057284,0.00042808055877685547
1745973512947085300,3.730085205078125,-0.3488435880291995,0.005989165976643562,-0.1514656624272546,0.007443251553922892,-0.07269958053314769,0.9672382152205992,-0.21296344255148614,left,0.0013725757598876953,-0.35346876674558814,-3.1447938174873586,-8.646227918499708,-0.19032394361217367,-0.003047768957912922,0.000025331974029541016,3.394613212442398,0.0002804100513458252
1745973512987085300,3.770085205078125,-0.3488435880291995,0.004339450038969517,-0.1514656624272546,0.0011119367554783821,-0.07269958053314769,0.9672382152205992,-0.21296344255148614,left,0.0033034682273864746,-0.35346876674558814,-3.1447938174873586,-8.646227918499708,-0.19032394361217367,-0.002603260101750493,0.0003166496753692627,3.394613212442398,0.0032214224338531494
1745973513027085300,3.810085205078125,-0.34846393698921996,0.012048297561705112,-0.1512877501552794,0.003253527218475938,-0.07249985151192147,0.9672444066075135,-0.21256878119460665,left,0.00214231014251709,-0.3539471430134013,-3.1409561390206218,-8.645894156500697,-0.19051009312342368,-0.009431426413357258,0.0017970502376556396,3.399014077749848,0.003618091344833374
1745973513067085300,3.850085205078125,-0.348373389463831,0.014484148472547531,-0.15122613631875756,-0.0036671648267656565,-0.0722447117537403,0.96720177610063,-0.21218289764437662,left,0.0019098520278930664,-0.3547677153314445,-3.1392201090082525,-8.643553730854391,-0.19087182288946164,-0.015243345871567726,0.002367943525314331,3.4065611321285365,0.0035020112991333008
1745973513107085600,3.89008544921875,-0.3485165588470371,0.01098586805164814,-0.1512665916793936,-0.0128601910546422,-0.07198660801731183,0.967132653679635,-0.21185357358854187,left,0.0033504366874694824,-0.35567344155237085,-3.139402479837835,-8.64020091329515,-0.19128713767951291,-0.014005190692842007,0.0011389851570129395,3.4148888154909014,0.002848803997039795
1745973513147085300,3.930085205078125,-0.3489586409026988,0.009760144166648388,-0.15147058016831025,-0.017225999385118484,-0.07174379777615085,0.9670649536990059,-0.21155204148559598,left,0.0037212371826171875,-0.35625461476833004,-3.142542823690176,-8.636945710891485,-0.19155932826637903,-0.0008427370339632034,0.00003248453140258789,3.420230761040747,0.0008628368377685547
1745973513187085300,3.970085205078125,-0.34980588218664566,0.005548217799514532,-0.1519270050795754,-0.027286415919661522,-0.07147470150058592,0.96702407430894,-0.21114146862962854,left,0.0001728534698486328,-0.3561425564797357,-3.1499905093476173,-8.634640356558561,-0.19150470847192622,0.016234463080763817,-0.0022658109664916992,3.4192008334711192,-0.0009966790676116943
1745973513227085300,4.010085205078125,-0.3505472779272825,0.01383284106850624,-0.1523859588719301,-0.015488645061850548,-0.07113950169918924,0.9670350362783476,-0.21048423803067884,left,-0.0032225847244262695,-0.3555757385561949,-3.157056502211094,-8.63412130112052,-0.19120893003853753,0.020221911370754242,-0.0025805234909057617,3.413990405346453,-0.001832336187362671
1745973513267085300,4.050085205078125,-0.3508533878521874,0.024629613384604454,-0.15265987563367772,-0.01996433362364769,-0.07058897667869181,0.967072653970554,-0.2093534086372594,left,0.0035824179649353027,-0.35530577589638057,-3.160015936538577,-8.634019594311713,-0.19100388474549357,0.003008555620908737,-0.001945585012435913,3.411508525402844,-0.0017963051795959473
1745973513307085300,4.090085205078125,-0.35115900210302464,0.029540665447711945,-0.15285974916944714,-0.011127704754471779,-0.06998197092326765,0.9670292655908354,-0.20830204344033737,left,-0.0002541542053222656,-0.35604027634008345,-3.161791714039445,-8.630698340934515,-0.1912870968068204,-0.027861831709742546,-0.0013141334056854248,3.418260630011558,-0.002964496612548828
1745973513347085600,4.13008544921875,-0.3514637910002502,0.034451715648174286,-0.15305953948490653,-0.0022910768166184425,-0.06937482628903217,0.9669853323219789,-0.20725039313180368,left,-0.004091024398803711,-0.35677505909981444,-3.1635563856244087,-8.627373580425978,-0.1915702028964703,-0.05873221904039383,-0.0006838440895080566,3.4250136114031076,-0.00413280725479126
1745973513387085300,4.170085205078125,-0.3515461401365265,0.021287951618433,-0.15292318975283867,-0.010202891193330288,-0.06897979422622527,0.9667514129470689,-0.2070367882237625,left,0.005257129669189453,-0.35977453691176886,-3.160715024718642,-8.61742910951674,-0.19299709804439139,-0.06540677696466446,-0.003489881753921509,3.452560666759312,-0.004661291837692261
1745973513427085300,4.210085205078125,-0.3521541481269967,0.017915036529302597,-0.1530311561534571,-0.006548091769218445,-0.06881418232894583,0.9665025740725494,-0.2072958465608996,left,-0.00011610984802246094,-0.3622223132899203,-3.163029439140856,-8.607547766971587,-0.1942129568314316,-0.06778167933225632,0.0008077621459960938,3.4750179977610705,0.005484551191329956
1745973513467085300,4.250085205078125,-0.35219850568461514,0.021114349365234375,-0.152879225268315,-0.0009921551682054996,-0.06865110050643336,0.9663019060840479,-0.20744185647200983,left,0.009168744087219238,-0.36463887810720674,-3.1605051813602447,-8.599500069594383,-0.19538541236947665,-0.05407465621829033,-0.001962602138519287,3.4971684547707436,0.0050201416015625
1745973513507085300,4.290085205078125,-0.35276326620754583,0.00871577300131321,-0.1530779475040641,-0.009400833398103714,-0.06840041638510516,0.9661568572270294,-0.20729982108288653,left,-0.0030735135078430176,-0.36597364892761713,-3.163745770716667,-8.593325764873624,-0.19603433003801735,-0.011305443942546844,-0.002321183681488037,3.5093943146154283,0.0008211135864257812
1745973513547085300,4.330085205078125,-0.35276326620754583,0.003795178607106209,-0.1530779475040641,-0.007351513020694256,-0.06840041638510516,0.9661568572270294,-0.20729982108288653,left,0.006088912487030029,-0.36597364892761713,-3.163745770716667,-8.593325764873624,-0.19603433003801735,0.021546579897403717,-0.005216240882873535,3.5093943146154283,0.00017908215522766113
1745973513587085300,4.370085205078125,-0.35360052309864054,0.0030004852451384068,-0.1536027987091822,-0.012471204623579979,-0.06807134983192767,0.9661816759412205,-0.20662575424938193,left,0.002989530563354492,-0.36514822073602315,-3.1719416443929074,-8.59338830871582,-0.19561520166008126,0.024461014196276665,-0.002648681402206421,3.5018346930161117,0.0030096471309661865
1745973513627085600,4.41008544921875,-0.35377727117297497,0.010859262198209763,-0.15378668642804394,0.002519245259463787,-0.067884017769524,0.9662453833936396,-0.20612504042718932,left,0.0042858123779296875,-0.36439394600641195,-3.174374424497783,-8.595303202426432,-0.19522081156289317,0.01793733984231949,-0.0028177499771118164,3.4949244752362367,0.003117084503173828
1745973513667085300,4.450085205078125,-0.35377727117297497,0.0045291646383702755,-0.15378668642804394,0.003504629712551832,-0.067884017769524,0.9662453833936396,-0.20612504042718932,left,-0.0001856684684753418,-0.36439394600641195,-3.174374424497783,-8.595303202426432,-0.19522081156289317,0.0028043845668435097,-0.000859677791595459,3.4949244752362367,0.0001601576805114746
1745973513707085300,4.490085205078125,-0.35341100379969886,-0.019399207085371017,-0.15367735522607123,0.015940744429826736,-0.06784594946791325,0.9663324205790922,-0.20584982935053484,left,-0.003039836883544922,-0.3637722615729254,-3.171977592489123,-8.598501706206799,-0.19488890688046745,0.020922519266605377,0.0012146830558776855,3.4892274326384065,-0.003966152667999268
1745973513747085300,4.530085205078125,-0.3531109055362415,-0.025155428797006607,-0.15357573682406098,0.012998934835195541,-0.06828633647504033,0.966454938309656,-0.2064077402914944,left,-0.0017619729042053223,-0.36228309565615946,-3.1711902415037154,-8.604319452574849,-0.1942068322438139,0.039459917694330215,0.002761274576187134,3.4755753393828868,0.0011298954486846924
1745973513787085300,4.570085205078125,-0.3525604469182388,-0.015088159590959549,-0.15341600113911746,0.007780123967677355,-0.06860424724993258,0.96664006633647,-0.2065852129430895,left,0.0027610063552856445,-0.3604004228662788,-3.1687074847772716,-8.612189455297589,-0.19329787325958409,0.04253532364964485,0.00012853741645812988,3.458305055630207,-0.00141221284866333
1745973513827085300,4.610085205078125,-0.3523090398633123,-0.011488129384815693,-0.1534176877914027,-0.012616688385605812,-0.06872521720461322,0.9667964577972049,-0.20645416098345498,left,0.00604170560836792,-0.358712898184986,-3.168551417432725,-8.618450853779912,-0.1924689897985394,0.031227149069309235,-0.0006996691226959229,3.442814348770678,0.0008944571018218994
1745973513867085600,4.65008544921875,-0.3527383565792487,-0.004981099162250757,-0.1536999639906876,-0.02253543771803379,-0.06870220891619591,0.9668413316051423,-0.20630950561957054,left,0.005473136901855469,-0.3577831232291761,-3.1733556028440595,-8.620089853158593,-0.19202615948872523,0.01658692955970764,-0.0004093647003173828,3.4342750684842467,0.001561194658279419
1745973513907085300,4.690085205078125,-0.3538111002829095,0.006996242795139551,-0.15423084532393636,-0.030737876892089844,-0.06855491100678437,0.9667654706922609,-0.20620966003502392,left,0.007642507553100586,-0.3577413664684654,-3.1826506699338553,-8.616815361532568,-0.19203522652699467,-0.006659826263785362,-0.0034599602222442627,3.4338916221246123,0.0025989115238189697
1745973513947085300,4.730085205078125,-0.3548131807061848,0.009013156406581402,-0.15471599719286552,-0.022675277665257454,-0.06825860968296023,0.9666629014945857,-0.2058869009980042,left,-0.0011480450630187988,-0.35820345377490304,-3.190731977319717,-8.612132756674288,-0.19226644620952404,-0.002897098893299699,-0.005487322807312012,3.4381358355656264,-0.0016307532787322998
1745973513987085300,4.770085205078125,-0.3556392577955757,0.014216233044862747,-0.15515312453791863,-0.028336822986602783,-0.06789018271744592,0.9665994947991486,-0.20533491421552025,left,0.0042476654052734375,-0.3584360938341105,-3.1975667917758224,-8.608744283279776,-0.19236348570998574,0.002411450957879424,-0.004142791032791138,3.4402722630724307,-0.0036591291427612305
1745973514027085300,4.810085205078125,-0.3563773404970777,0.02867119573056698,-0.15557825057523267,0.002866489812731743,-0.06737446345212945,0.9665530584710215,-0.2044619170989915,left,-0.010919570922851562,-0.3586745805716213,-3.2036335444688797,-8.605612999516724,-0.192435100915127,0.0006447084015235305,-0.0037473738193511963,3.4424624665930863,-0.00452771782875061
1745973514067085300,4.850085205078125,-0.35566668921851335,0.014380795881152153,-0.15531337641404386,0.011968367733061314,-0.06696370190794837,0.9666244665259339,-0.20351010213573323,left,0.006079316139221191,-0.35887469406134853,-3.197277161179483,-8.607240892979503,-0.19243334426294997,-0.0062617347575724125,-0.002415180206298828,3.4442999111533164,-0.003629148006439209
1745973514107085600,4.89008544921875,-0.3550776595577426,0.006724544335156679,-0.15497363062538763,0.02598574571311474,-0.06690760548823883,0.9665992264335097,-0.20345912872627286,left,-0.005249738693237305,-0.35979883975989607,-3.1910987648054956,-8.606134977564215,-0.19285334593773473,-0.030714822933077812,-0.0010535120964050293,3.4527836618602272,0.00016611814498901367
1745973514147085300,4.930085205078125,-0.35420567565376765,-0.00884348526597023,-0.15447664463777536,0.027360834181308746,-0.06707729285410323,0.9666011809255783,-0.20377343482183616,left,0.0031576156616210938,-0.36049543219185076,-3.1827582219615578,-8.606656371089816,-0.19318288714627502,-0.009021773934364319,-0.00071755051612854,3.4591768700286742,-0.003247290849685669
1745973514187085300,4.970085205078125,-0.3536808548159977,-0.008201987482607365,-0.15418686835112533,0.008404511958360672,-0.06736921130463988,0.9666371563156761,-0.20424426858090555,left,0.005850791931152344,-0.3603517019856886,-3.1784128862336276,-8.60879162955284,-0.19313258405266454,0.003261514939367771,-0.00034558773040771484,3.4578578963845965,0.0047927796840667725
1745973514227085300,5.010085205078125,-0.3533601440663214,-0.006874396465718746,-0.1540147507196265,0.00880948081612587,-0.06757314772208332,0.9666676307124834,-0.20456132722652967,left,0.002241194248199463,-0.360144105755243,-3.175900026629865,-8.610483820423484,-0.19304650785912444,0.004063762258738279,0.0011375844478607178,3.455952647285163,0.004692584276199341
1745973514267085300,5.050085205078125,-0.3533601440663214,0.0015083998441696167,-0.1540147507196265,-0.011808935552835464,-0.06757314772208332,0.9666676307124834,-0.20456132722652967,left,0.007308065891265869,-0.360144105755243,-3.175900026629865,-8.610483820423484,-0.19304650785912444,-0.0002474267967045307,-0.0022164881229400635,3.455952647285163,0.00918722152709961
1745973514307085300,5.090085205078125,-0.3533601440663214,0.01604291796684265,-0.1540147507196265,0.005274038761854172,-0.06757314772208332,0.9666676307124834,-0.20456132722652967,left,0.0019890666007995605,-0.360144105755243,-3.175900026629865,-8.610483820423484,-0.19304650785912444,0.011079622432589531,-0.0014739930629730225,3.455952647285163,0.0029553771018981934
1745973514347085600,5.13008544921875,-0.3532394626918925,0.01027626171708107,-0.15407954445097688,-0.003906567580997944,-0.06712072237492886,0.9667403667508386,-0.20352977416164816,left,0.0009580850601196289,-0.3597804476418039,-3.175295630995929,-8.612045662912726,-0.19278837416192462,0.017307449132204056,-0.0028692781925201416,3.4526150272950527,0.0010949671268463135
1745973514387085300,5.170085205078125,-0.3529436851320558,0.004434592556208372,-0.15403954277044438,0.009566636756062508,-0.0668458135541039,0.9668274842114393,-0.20280236020504158,left,-0.0012341737747192383,-0.3592721284738149,-3.17335443380028,-8.61463041870892,-0.19247835345955266,0.02915804833173752,-0.00161665678024292,3.447948789049685,-0.004933565855026245
1745973514427085300,5.210085205078125,-0.3524257685481005,0.0018276984337717295,-0.153936519744819,0.012113550677895546,-0.06669173168144132,0.9669906436760513,-0.20212945974680518,left,-0.00036710500717163086,-0.35798987433412915,-3.1704157499998806,-8.620414847329258,-0.191793395925383,0.03278253600001335,-0.0018160343170166016,3.4361741801038383,0.00027430057525634766
1745973514467085300,5.250085205078125,-0.35211094570229085,-0.003229717956855893,-0.15386762592981884,0.00935070775449276,-0.06667168383036962,0.9670933327007409,-0.20185281631040228,left,0.0012531876564025879,-0.3571065945267296,-3.1687472322657704,-8.624258078753948,-0.19133730343301444,0.01722285896539688,-0.0007198154926300049,3.428059847231209,-0.0011470019817352295
1745973514507085300,5.290085205078125,-0.35195075670449016,-0.014066286385059357,-0.15381718930175461,0.004329325631260872,-0.06684312982837573,0.9671540150908393,-0.20203931455297744,left,0.0026341676712036133,-0.35640893065037554,-3.1681893061220645,-8.627008838766812,-0.19101112006019702,0.014464298263192177,-0.00043764710426330566,3.4216491034060716,0.00005525350570678711
1745973514547085300,5.330085205078125,-0.35131670547614735,-0.016102196648716927,-0.1535486928362395,0.02365362085402012,-0.06714715803695699,0.9672737773739312,-0.20234001237423002,left,-0.0015403032302856445,-0.35536972765857644,-3.1639407087668774,-8.63234961527288,-0.19051365839789025,0.028879031538963318,-0.002397894859313965,3.4120965544238686,0.0007963478565216064
1745973514587085300,5.370085205078125,-0.35077904907570073,-0.013815293088555336,-0.15335792478889407,0.011689144186675549,-0.06744435830446335,0.9674176828814582,-0.2025718771169714,left,0.007043063640594482,-0.35394915819131095,-3.160961400695145,-8.638592893576622,-0.18983067785725177,0.032773833721876144,0.0006379485130310059,3.399032490189373,0.0031732022762298584
1745973514627085600,5.41008544921875,-0.35077904907570073,0.00839940644800663,-0.15335792478889407,-0.004664531908929348,-0.06744435830446335,0.9674176828814582,-0.2025718771169714,left,0.0033362507820129395,-0.35394915819131095,-3.160961400695145,-8.638592893576622,-0.18983067785725177,0.010493509471416473,0.0014486610889434814,3.399032490189373,0.005081832408905029
1745973514667085300,5.450085205078125,-0.3506856847153685,0.025588657706975937,-0.1534799786311687,-0.014584396034479141,-0.06701053976701384,0.9675373806336225,-0.20146707103793796,left,0.004324376583099365,-0.3529746021358074,-3.161291363301873,-8.641994810974598,-0.18927439194796022,0.014986361376941204,0.0008124709129333496,3.3900662166625257,-0.0012346208095550537
1745973514707085300,5.490085205078125,-0.35146127861235266,0.025991886854171753,-0.1540009267148012,-0.030954509973526,-0.06634192478433265,0.9675488088116733,-0.20016706864286676,left,0.00017267465591430664,-0.35261743593701855,-3.1684099631354212,-8.640676714113354,-0.18902861045169678,0.021814430132508278,-0.0003833472728729248,3.3867794500768182,0.001407623291015625
1745973514747085300,5.530085205078125,-0.3517538964252479,0.03515668213367462,-0.15434350159955393,-0.01893794536590576,-0.06548176695462955,0.9676223118377477,-0.1983545708949377,left,-0.0021694302558898926,-0.3521469297326374,-3.1714868863627315,-8.641243700346351,-0.1886723511805665,0.0270948875695467,-0.00203666090965271,3.3824487273961306,-0.001242130994796753
1745973514787085300,5.570085205078125,-0.3522373886299019,0.01936308480799198,-0.1547893527437533,-0.026010897010564804,-0.0647136747244952,0.9677066190830861,-0.19669065634280802,left,0.0034557580947875977,-0.3512716522736109,-3.1766844550058244,-8.642484640318155,-0.188138664031885,0.035334859043359756,-0.004001200199127197,3.374390800885856,-0.0068819522857666016
1745973514827085300,5.610085205078125,-0.3522840354216894,0.000027449801564216614,-0.15491355739375756,0.03103555738925934,-0.06444151632382521,0.9677719626740814,-0.19601794723983307,left,-0.01403874158859253,-0.3506592951721299,-3.1778000150322914,-8.644274446344376,-0.18779361248081325,0.012162398546934128,0.00012800097465515137,3.3687516259551047,-0.009388178586959839
1745973514867085600,5.65008544921875,-0.3512072771878702,-0.032529957592487335,-0.15434407074800674,0.019203461706638336,-0.06492462001896143,0.9678560717680815,-0.19674574896016206,left,0.016981065273284912,-0.35034226370723087,-3.168857706902921,-8.648693431830406,-0.18766259335411348,-0.01283320039510727,-0.0005264878273010254,3.365831646855175,-0.00461849570274353
1745973514907085300,5.690085205078125,-0.3516366925430887,-0.019196905195713043,-0.15437132417351088,0.006401309743523598,-0.06571685900995906,0.9677472691627484,-0.1985117238856066,left,-0.0014643073081970215,-0.3505759946748456,-3.1723002485722303,-8.646593244680762,-0.1879253152688894,-0.023430898785591125,-0.003823578357696533,3.367984440974891,0.0068930089473724365
1745973514947085300,5.730085205078125,-0.3516366925430887,0.005256082862615585,-0.15437132417351088,-0.004220342263579369,-0.06571685900995906,0.9677472691627484,-0.1985117238856066,left,0.009864568710327148,-0.3505759946748456,-3.1723002485722303,-8.646593244680762,-0.1879253152688894,0.01625942811369896,-0.007118970155715942,3.367984440974891,0.00791504979133606
1745973514987085300,5.770085205078125,-0.35187603241121074,0.03592243418097496,-0.15462338850292548,-0.013518933206796646,-0.065307801050399,0.9678175844922565,-0.1975662005312141,left,-0.0018119215965270996,-0.3498229961140892,-3.1752427317649126,-8.648211785793304,-0.187498017326708,0.03670615702867508,-0.008379042148590088,3.361048211970925,0.0046080052852630615
1745973515027085300,5.810085205078125,-0.35149785919390314,0.024420354515314102,-0.15472436513994392,-0.0034979116171598434,-0.06441326428443046,0.9680161091745665,-0.19539402933735006,left,0.00044906139373779297,-0.34853382105240005,-3.1734614013060924,-8.653473067322373,-0.18669769558238974,0.05780217796564102,-0.003824293613433838,3.34916868134588,-0.008518606424331665
1745973515067085300,5.850085205078125,-0.35148455196689304,0.008408749476075172,-0.15487061467451355,0.0011849822476506233,-0.06399043296760913,0.9681184407256401,-0.1943462453736016,left,0.000040590763092041016,-0.34764973815063954,-3.1743641953647135,-8.65629221639633,-0.18619083720027038,0.004666466265916824,-0.00034543871879577637,3.34101869263798,-0.000769495964050293
1745973515107085600,5.89008544921875,-0.35148455196689304,-0.001240844838321209,-0.15487061467451355,0.030507277697324753,-0.06399043296760913,0.9681184407256401,-0.1943462453736016,left,-0.002055346965789795,-0.34764973815063954,-3.1743641953647135,-8.65629221639633,-0.18619083720027038,-0.01937291771173477,0.00231054425239563,3.34101869263798,-0.007020533084869385
1745973515147085300,5.930085205078125,-0.3501485107404943,-0.00994972512125969,-0.1541391817630928,0.015687398612499237,-0.06426747072514111,0.9681544597966296,-0.19479511876129219,left,0.0007053613662719727,-0.34833980409831417,-3.1620047722682356,-8.658357916754484,-0.18651469294827802,-0.020434172824025154,0.0015815198421478271,3.3473803366243837,-0.0017764270305633545
1745973515187085300,5.970085205078125,-0.34893683253323954,0.01714455336332321,-0.1534934148477781,0.03329406678676605,-0.06431217215447109,0.9681773033712384,-0.19482820553194688,left,-0.00423884391784668,-0.34924259202315594,-3.150476831559837,-8.659339329007267,-0.18691267052185181,-0.030255205929279327,0.002592116594314575,3.3557004212021826,0.004943907260894775
1745973515227085300,6.010085205078125,-0.3474719379720842,0.014494618400931358,-0.15278178317890762,0.024396046996116638,-0.0641169434894552,0.9682422867005508,-0.19430212802050056,left,0.003024876117706299,-0.3500748189743015,-3.1368361364811657,-8.661316182038188,-0.18722580922931084,-0.011257113888859749,0.004862338304519653,3.3633678870901464,-0.0036851465702056885
1745973515267085300,6.050085205078125,-0.34703099470345783,0.002114717848598957,-0.15256776057898003,0.00477384589612484,-0.06406852052775329,0.9682633719290855,-0.19415977863563527,left,-0.0017294883728027344,-0.350298483254548,-3.132760849866271,-8.661991304820775,-0.1873084178943332,-0.004211100284010172,0.004118680953979492,3.3654283267512914,0.0010441839694976807
1745973515307085300,6.090085205078125,-0.34703099470345783,0.012444164603948593,-0.15256776057898003,-0.01302751898765564,-0.06406852052775329,0.9682633719290855,-0.19415977863563527,left,0.006035864353179932,-0.350298483254548,-3.132760849866271,-8.661991304820775,-0.1873084178943332,-0.0070200636982917786,-0.0004016458988189697,3.3654283267512914,0.0007478594779968262
1745973515347085600,6.13008544921875,-0.3474821558021713,0.020819321274757385,-0.1528132353019193,-0.019165389239788055,-0.06357068519982528,0.9681951122876163,-0.1933657356493861,left,0.002181410789489746,-0.35106369316769814,-3.135790719081461,-8.658152749571205,-0.18763041517115933,-0.009998258203268051,-0.001374959945678711,3.372475614914298,0.0024779140949249268
1745973515387085300,6.170085205078125,-0.34761950341959275,0.02413671649992466,-0.15291053475306518,-0.010300632566213608,-0.06307003628451999,0.9681495554251512,-0.19251182484397816,left,0.003468334674835205,-0.35186339675471795,-3.1360598914116617,-8.655183378371596,-0.1879543191985007,-0.0075523508712649345,-0.0039431750774383545,3.3798388371586796,-0.0010814964771270752
1745973515427085300,6.210085205078125,-0.34783016299019553,0.013537390157580376,-0.15306151599592324,-0.004066630732268095,-0.06262938125489598,0.9681263675061783,-0.19172139573893385,left,0.0019173026084899902,-0.3522742900454226,-3.1374095524549483,-8.6532164622128,-0.18809818280338853,-0.0036620579194277525,-0.002921164035797119,3.383620986045897,-0.0012342631816864014
1745973515467085300,6.250085205078125,-0.3479259661427112,0.002798795700073242,-0.15310629036969337,0.004188608843833208,-0.062491119623284574,0.9680992881903776,-0.19151893907462153,left,0.0016127824783325195,-0.35261006913686793,-3.1378511587426066,-8.651846927425265,-0.1882472365533931,-0.006511850748211145,-0.0036266744136810303,3.3867116455376145,-0.000978618860244751
1745973515507085300,6.290085205078125,-0.34782280591696824,-0.002834874205291271,-0.15302365577055094,0.007698706816881895,-0.06256567852294403,0.9680818236989638,-0.1917014270860266,left,0.0006456375122070312,-0.35286244404914796,-3.1366672096550463,-8.651367034953832,-0.1883794063749821,-0.010753617621958256,-0.0015023350715637207,3.389034243266284,-0.00038930773735046387
1745973515547085300,6.330085205078125,-0.3476285767157508,0.0008356447797268629,-0.1528719780255195,0.014062035828828812,-0.06273581587738851,0.9680572507107696,-0.19208290774473233,left,0.0018914341926574707,-0.35321514482964206,-3.134579297465086,-8.650851486647129,-0.1885721869985758,-0.013660475611686707,0.0005217790603637695,3.392279508797824,0.002953052520751953
1745973515587085300,6.370085205078125,-0.34741618298479177,0.008928129449486732,-0.15272319463871037,0.0013870447874069214,-0.06272981295001476,0.9680213424838459,-0.1921521106853667,left,0.0014219880104064941,-0.35385529250360037,-3.132001848192513,-8.649473768553138,-0.18887879098791371,-0.008677210658788681,-0.0005131661891937256,3.398169151358306,-0.0007636547088623047
1745973515627085600,6.41008544921875,-0.3469538452950479,0.017564162611961365,-0.15253714023487475,0.023647353053092957,-0.06254631061322082,0.9680643897495376,-0.1916986614173334,left,-0.008411109447479248,-0.3539379917039734,-3.1279069800943136,-8.650656840857863,-0.18886948824611782,0.009554294869303703,0.0004277229309082031,3.398929906597733,-0.00023931264877319336
1745973515667085300,6.450085205078125,-0.34628743987847765,0.015116667374968529,-0.15226598184814993,-0.0030528847128152847,-0.06220659895298505,0.9681123424846121,-0.19093226510951133,left,0.008174598217010498,-0.3542795622138856,-3.121747288420796,-8.651646436417103,-0.1889546495831801,-0.012246796861290932,0.00043594837188720703,3.4020717117547985,0.003042250871658325
1745973515707085300,6.490085205078125,-0.3462772394979412,0.013365646824240685,-0.1522371764785333,0.0023661041632294655,-0.061984067090526895,0.968055774210944,-0.19063335353756777,left,-0.0014283061027526855,-0.35512993309854723,-3.1206758597970006,-8.648954128593205,-0.18934071884174022,-0.013538364320993423,-0.000348895788192749,3.4098917378559706,-0.0020638704299926758
1745973515747085300,6.530085205078125,-0.3462772394979412,0.008146576583385468,-0.1522371764785333,-0.008547384291887283,-0.061984067090526895,0.968055774210944,-0.19063335353756777,left,0.002554655075073242,-0.35512993309854723,-3.1206758597970006,-8.648954128593205,-0.18934071884174022,-0.0020339936017990112,-0.003159075975418091,3.4098917378559706,0.00044226646423339844
1745973515787085300,6.570085205078125,-0.3462772394979412,0.0019225990399718285,-0.1522371764785333,-0.0016045481897890568,-0.061984067090526895,0.968055774210944,-0.19063335353756777,left,0.00027698278427124023,-0.35512993309854723,-3.1206758597970006,-8.648954128593205,-0.18934071884174022,-0.0024210787378251553,-0.002144753932952881,3.4098917378559706,0.0010485649108886719
1745973515827085300,6.610085205078125,-0.3462772394979412,0.0030073272064328194,-0.1522371764785333,0.005022045690566301,-0.061984067090526895,0.968055774210944,-0.19063335353756777,left,0.003101646900177002,-0.35512993309854723,-3.1206758597970006,-8.648954128593205,-0.18934071884174022,-0.004506723489612341,-0.001344144344329834,3.4098917378559706,0.0016661286354064941
1745973515867085600,6.65008544921875,-0.3462772394979412,-0.000707478728145361,-0.1522371764785333,0.002768309321254492,-0.061984067090526895,0.968055774210944,-0.19063335353756777,left,0.00044286251068115234,-0.35512993309854723,-3.1206758597970006,-8.648954128593205,-0.18934071884174022,-0.006960678845643997,-0.001379251480102539,3.4098917378559706,0.0027078092098236084
1745973515907085300,6.690085205078125,-0.3459328090642233,0.00678253173828125,-0.15204350385131996,0.010380236431956291,-0.06172622576413518,0.9680111394789714,-0.19023534604634992,left,0.004217982292175293,-0.3561861707564748,-3.116473731932044,-8.646635330256819,-0.18980797719803413,-0.0005334974266588688,-0.0006250441074371338,3.4196018154874444,0.0011255145072937012
1745973515947085300,6.730085205078125,-0.3459328090642233,0.010384069755673409,-0.15204350385131996,0.010940879583358765,-0.06172622576413518,0.9680111394789714,-0.19023534604634992,left,0.0016048550605773926,-0.3561861707564748,-3.116473731932044,-8.646635330256819,-0.18980797719803413,0.0015156760346144438,-0.0003637075424194336,3.4196018154874444,0.0019093453884124756
1745973515987085300,6.770085205078125,-0.34492695951190194,0.003372271079570055,-0.1516016183010865,0.007872054353356361,-0.0614956445351583,0.96808801517715,-0.18960742467262284,left,0.003170490264892578,-0.3564254004425276,-3.107498398315906,-8.648995629647374,-0.18984441811567973,0.007439104840159416,-0.0006920397281646729,3.4218004945755003,-0.00017008185386657715
1745973516027085300,6.810085205078125,-0.34492695951190194,0.0028774733655154705,-0.1516016183010865,-0.003712838515639305,-0.0614956445351583,0.96808801517715,-0.18960742467262284,left,-0.0016795992851257324,-0.3564254004425276,-3.107498398315906,-8.648995629647374,-0.18984441811567973,0.015257817693054676,-0.0006738901138305664,3.4218004945755003,-0.0007888376712799072
1745973516067085300,6.850085205078125,-0.34462897136385273,0.006825125310570002,-0.15156971538630679,-0.00013036862947046757,-0.06120441604813752,0.9681841886890882,-0.18882736239997291,left,0.0009509921073913574,-0.3557955897473493,-3.1056483865350484,-8.651947465190291,-0.18947309469217619,0.00469687394797802,-0.0006501376628875732,3.416011682040989,-0.0011809468269348145
1745973516107085600,6.89008544921875,-0.34462897136385273,0.021255334839224815,-0.15156971538630679,-0.019111046567559242,-0.06120441604813752,0.9681841886890882,-0.18882736239997291,left,0.005309641361236572,-0.3557955897473493,-3.1056483865350484,-8.651947465190291,-0.18947309469217619,0.008815606124699116,-0.0019611120223999023,3.416011682040989,-0.0002269148826599121
1745973516147085300,6.930085205078125,-0.3447988914376026,0.04501796141266823,-0.15186723968323482,-0.011634813621640205,-0.060085128016690845,0.9682397721977263,-0.1865498265957002,left,-0.00025385618209838867,-0.355802404521657,-3.107110568042099,-8.651398014613985,-0.1893087645442232,0.005434841848909855,-0.0023567378520965576,3.4160742258831855,0.0012927651405334473
1745973516187085300,6.970085205078125,-0.3444442768545267,0.02372434362769127,-0.15182207044506726,-0.00032300129532814026,-0.059248926719201206,0.9682730171813384,-0.18485946763852193,left,-0.0006318092346191406,-0.3563608015582148,-3.103397977259755,-8.65070243356526,-0.18943860706493806,-0.010733789764344692,-0.002682805061340332,3.4212066203355787,-0.007170647382736206
1745973516227085300,7.010085205078125,-0.3441964733303509,-0.023368146270513535,-0.15159937189029218,0.016988568007946014,-0.05936047373683269,0.9681932867066122,-0.18524973660997207,left,0.00017148256301879883,-0.35745731384880064,-3.099986415250599,-8.647934722417592,-0.1899886269068475,-0.04498564824461937,-0.0003110170364379883,3.4312823164090513,-0.0060381293296813965
1745973516267085300,7.050085205078125,-0.34429503642582465,-0.043144822120666504,-0.15133506479489392,0.018198734149336815,-0.0603906465738353,0.9680046585867497,-0.18765822306743435,left,0.0032628774642944336,-0.3588287738675956,-3.0992472873210906,-8.643191327282786,-0.1908339420870043,-0.04980098456144333,-0.0017748475074768066,3.4438781786099075,0.0009527504444122314
1745973516307085300,7.090085205078125,-0.3444085520603296,-0.017172494903206825,-0.1511790884252504,0.014267923310399055,-0.061297283209583636,0.9679061517638579,-0.1896258957353768,left,0.0037630200386047363,-0.35920658417045465,-3.09978913911283,-8.641613702702521,-0.19116796666762825,-0.01219136267900467,-0.0035195350646972656,3.4473470237642525,0.008066534996032715
1745973516347085600,7.13008544921875,-0.3444085520603296,0.019649336114525795,-0.1511790884252504,0.003981947898864746,-0.061297283209583636,0.9679061517638579,-0.1896258957353768,left,0.006353199481964111,-0.35920658417045465,-3.09978913911283,-8.641613702702521,-0.19116796666762825,0.011080518364906311,-0.0012114942073822021,3.4473470237642525,0.008432090282440186
1745973516387085300,7.170085205078125,-0.3434655539628252,0.036788925528526306,-0.1509118031601954,-0.002073975745588541,-0.06060663313013464,0.9680644533911273,-0.18792840238489267,left,-0.0002187490463256836,-0.3587627651874143,-3.092153529667854,-8.645973066955804,-0.19079749860747694,0.042942114174366,-0.00037384033203125,3.4432720294103025,0.00007888674736022949
1745973516427085300,7.210085205078125,-0.34215117451787314,0.035912252962589264,-0.15052781099323734,0.019360100850462914,-0.059730573895335856,0.9682857441653862,-0.18572652900410522,left,0.002679884433746338,-0.3580583005167738,-3.081599694688618,-8.652312791371346,-0.19025301532242056,0.03265936300158501,0.00154799222946167,3.4368025411352514,-0.001764446496963501
1745973516467085300,7.250085205078125,-0.3413900219531692,0.010971566662192345,-0.1502798890614915,0.004856429062783718,-0.05925900289918157,0.9683915462058789,-0.18456962139257427,left,-0.0004870891571044922,-0.3578811028297831,-3.075217007914185,-8.655229555600881,-0.19005806536937705,0.0028896480798721313,0.001593172550201416,3.435175232194364,-0.001954704523086548
1745973516507085300,7.290085205078125,-0.3413900219531692,0.003988983109593391,-0.1502798890614915,-0.0013577928766608238,-0.05925900289918157,0.9683915462058789,-0.18456962139257427,left,0.0013965368270874023,-0.3578811028297831,-3.075217007914185,-8.655229555600881,-0.19005806536937705,-0.0006509541999548674,-0.0019338726997375488,3.435175232194364,-0.0011752843856811523
1745973516547085300,7.330085205078125,-0.3413900219531692,0.00873180478811264,-0.1502798890614915,-0.01452835462987423,-0.05925900289918157,0.9683915462058789,-0.18456962139257427,left,0.0015279054641723633,-0.3578811028297831,-3.075217007914185,-8.655229555600881,-0.19005806536937705,0.009599083103239536,-0.006248205900192261,3.435175232194364,0.004215747117996216
1745973516587085300,7.370085205078125,-0.34157032560195577,0.017452839761972427,-0.15046044884924242,-0.010312545113265514,-0.0587371666185548,0.9684023307644701,-0.18354135813994177,left,0.0032979846000671387,-0.3579557973433808,-3.07669146438092,-8.654432852265238,-0.19002204198308936,-0.003915552981197834,-0.0030851662158966064,3.435861168631911,0.003814488649368286
1745973516627085600,7.41008544921875,-0.3421793817729029,0.004846352152526379,-0.15073693281468659,-0.017651155591011047,-0.05849864361638337,0.9683081424120716,-0.18329963413581515,left,0.0067040324211120605,-0.35865143605601374,-3.0811592574447393,-8.650303789636492,-0.19035655732764672,-0.015120099298655987,-0.0035154521465301514,3.4422499928861856,-0.0026962459087371826
1745973516667085300,7.450085205078125,-0.3421793817729029,-0.0012633060105144978,-0.15073693281468659,-0.001216268166899681,-0.05849864361638337,0.9683081424120716,-0.18329963413581515,left,0.0022017955780029297,-0.35865143605601374,-3.0811592574447393,-8.650303789636492,-0.19035655732764672,0.00023479200899600983,-0.0028818249702453613,3.4422499928861856,-0.000530242919921875
1745973516707085300,7.490085205078125,-0.34283009660158453,0.0029393350705504417,-0.1510532569862927,-0.004148569889366627,-0.05846261658467258,0.9682644861942253,-0.18333758633740554,left,-0.000298917293548584,-0.35856917252594345,-3.08688289578855,-8.648563667970896,-0.19033885306844298,0.019211815670132637,-0.0035677850246429443,3.4414944983437654,0.0033991336822509766
1745973516747085300,7.530085205078125,-0.34222128056972256,0.006647123023867607,-0.15084702628222474,0.020657751709222794,-0.05830864274905737,0.9683749881421368,-0.18278537958124064,left,-0.0011931061744689941,-0.3579628216866795,-3.0823166107863185,-8.652405730351806,-0.1899874997453105,0.01966404728591442,-0.0007665753364562988,3.4359257583007214,-0.0006073117256164551
1745973516787085300,7.570085205078125,-0.34222128056972256,-0.002892906777560711,-0.15084702628222474,0.0017886217683553696,-0.05830864274905737,0.9683749881421368,-0.18278537958124064,left,0.0006886124610900879,-0.3579628216866795,-3.0823166107863185,-8.652405730351806,-0.1899874997453105,0.02255920320749283,0.0003064274787902832,3.4359257583007214,-0.0021847784519195557
1745973516827085300,7.610085205078125,-0.34194692160750223,-0.0019709235057234764,-0.15082149093286046,0.0008394168107770383,-0.058382081016045785,0.9685212477906557,-0.1825982024255326,left,-0.0003253817558288574,-0.3564520556435956,-3.081679774187505,-8.658131706783175,-0.1892380053785152,0.009374428540468216,0.0010845959186553955,3.422045409247279,-0.00009545683860778809
1745973516867085600,7.65008544921875,-0.3422945387217173,-0.006291800178587437,-0.15100190390873539,-0.013839717954397202,-0.058442482977886887,0.9685226550321206,-0.18271668641530206,left,0.0029209256172180176,-0.35605917310945506,-3.0851401437744497,-8.658325183528662,-0.18906793275321307,-0.0038352282717823982,0.0010530352592468262,3.41843452527374,0.0015102028846740723
1745973516907085300,7.690085205078125,-0.3429533346065674,-0.011117705143988132,-0.15130198687582122,-0.011969317682087421,-0.05854304822871275,0.9684771959052627,-0.18302148092247741,left,0.0009250044822692871,-0.35589261922399307,-3.091035047031939,-8.656827053925394,-0.189030030086847,0.006530601531267166,-0.0012177526950836182,3.416903370183706,-0.001100689172744751
1745973516947085300,7.730085205078125,-0.3435442105714724,-0.015069263055920601,-0.1515853424603203,-0.015599501319229603,-0.058750546494160574,0.968469689376678,-0.18344622301018676,left,0.0028617382049560547,-0.3552638908684721,-3.096872667144239,-8.65702053067088,-0.18877680783782927,0.00921575166285038,-0.000855863094329834,3.4111233254775404,0.001841813325881958
1745973516987085300,7.770085205078125,-0.3435442105714724,0.0030776243656873703,-0.1515853424603203,-0.007811582647264004,-0.058750546494160574,0.968469689376678,-0.18344622301018676,left,-0.0009024143218994141,-0.3552638908684721,-3.096872667144239,-8.65702053067088,-0.18877680783782927,-0.0011093216016888618,-0.0021001100540161133,3.4111233254775404,0.0029828548431396484
1745973517027085300,7.810085205078125,-0.3435442105714724,0.004175242502242327,-0.1515853424603203,-0.0005957642570137978,-0.058750546494160574,0.968469689376678,-0.18344622301018676,left,0.0016786456108093262,-0.3552638908684721,-3.096872667144239,-8.65702053067088,-0.18877680783782927,0.0011653413530439138,-0.0014057755470275879,3.4111233254775404,-0.0001348257064819336
1745973517067085300,7.850085205078125,-0.3442103302664278,0.004041922744363546,-0.1519005564922268,0.0036361925303936005,-0.05864891389694127,0.9684053096568402,-0.18340268590758546,left,-0.001396775245666504,-0.35545621792184967,-3.102417149528861,-8.654338159719108,-0.188885635926313,-0.0146284569054842,0.0005574822425842285,3.412891796454787,0.0015164315700531006
1745973517107085600,7.89008544921875,-0.3442103302664278,-0.0009968830272555351,-0.1519005564922268,0.002990616951137781,-0.05864891389694127,0.9684053096568402,-0.18340268590758546,left,0.0008500218391418457,-0.35545621792184967,-3.102417149528861,-8.654338159719108,-0.188885635926313,-0.02041194587945938,0.0013526976108551025,3.412891796454787,-0.000040024518966674805
1745973517147085300,7.930085205078125,-0.34467196702854586,0.0073060402646660805,-0.1520308808069492,-0.017906218767166138,-0.058626686646591125,0.9682715432046316,-0.1836651182273979,left,0.005635857582092285,-0.35660466292469717,-3.10508549195528,-8.649210149180888,-0.1894719822290319,-0.0058771660551428795,-0.0013762116432189941,3.4234476772606373,0.0005241632461547852
1745973517187085300,7.970085205078125,-0.34467196702854586,0.016546130180358887,-0.1520308808069492,-0.0017221923917531967,-0.058626686646591125,0.9682715432046316,-0.1836651182273979,left,-0.005997121334075928,-0.35660466292469717,-3.10508549195528,-8.649210149180888,-0.1894719822290319,0.008849704638123512,-0.0015679001808166504,3.4234476772606373,0.0006922781467437744
1745973517227085300,8.010085205078125,-0.3440606150984825,0.0074562495574355125,-0.15184264566085892,0.008513687178492546,-0.058064565910688114,0.968340537328594,-0.18241771210188013,left,0.005072891712188721,-0.3567797542526571,-3.099595077845454,-8.650542274567485,-0.18944365884263645,0.003770016133785248,-0.00212252140045166,3.425056866022944,-0.0022565126419067383
1745973517267085300,8.050085205078124,-0.3440606150984825,0.008820131421089172,-0.15184264566085892,0.004666492342948914,-0.058064565910688114,0.968340537328594,-0.18241771210188013,left,0.0021698474884033203,-0.3567797542526571,-3.099595077845454,-8.650542274567485,-0.18944365884263645,0.005579241551458836,-0.0021349191665649414,3.425056866022944,0.0021224021911621094
1745973517307085300,8.090085205078125,-0.3435406406964404,0.02097705379128456,-0.15168939692827313,0.003029877319931984,-0.057640719351452756,0.9684149413889169,-0.18142588305920726,left,0.004478752613067627,-0.3567018437547355,-3.095186321492493,-8.652403976786136,-0.1893158320732874,0.008680427446961403,-0.0018877983093261719,3.4243408267080784,0.005642592906951904
1745973517347085600,8.13008544921875,-0.3432038948252393,0.02328578196465969,-0.15161734450554964,0.003711263881996274,-0.057092919666063294,0.9684500518802084,-0.18028376410583433,left,-0.0011002421379089355,-0.3569926816475189,-3.09193725656867,-8.65250743716061,-0.1893596153331628,0.002747004386037588,-0.0017617642879486084,3.4270132607877253,0.0009179413318634033
1745973517387085300,8.170085205078125,-0.3427915635025075,-0.001230558380484581,-0.15145442868759482,0.005747366696596146,-0.056860703769009445,0.9684792000423804,-0.17976378710764118,left,0.0025691986083984375,-0.35720548526901713,-3.0881241280213,-8.653094881659745,-0.18941093133541217,0.003142018336802721,-0.0016429126262664795,3.428968486508727,-0.002359718084335327
1745973517427085300,8.210085205078125,-0.3427915635025075,-0.014556151814758778,-0.15145442868759482,-0.003996208310127258,-0.056860703769009445,0.9684792000423804,-0.17976378710764118,left,0.002403557300567627,-0.35720548526901713,-3.0881241280213,-8.653094881659745,-0.18941093133541217,-0.005452008452266455,-0.0019336342811584473,3.428968486508727,0.0037070512771606445
1745973517467085300,8.250085205078125,-0.3427915635025075,-0.0008073635399341583,-0.15145442868759482,-0.0014373564627021551,-0.056860703769009445,0.9684792000423804,-0.17976378710764118,left,0.006965339183807373,-0.35720548526901713,-3.0881241280213,-8.653094881659745,-0.18941093133541217,0.018733764067292213,-0.002001732587814331,3.428968486508727,-0.0013310015201568604
1745973517507085300,8.290085205078125,-0.34319839609815017,0.004524370655417442,-0.15171691719306263,-0.025507470592856407,-0.05696972837421047,0.9685442124705951,-0.1798354751071566,left,0.0040854811668396,-0.3559726627598017,-3.093064214771986,-8.655811739403008,-0.18883431076526655,0.033206094056367874,-0.00027257204055786133,3.4176392832428215,0.0014775991439819336
1745973517547085300,8.330085205078126,-0.34365072678788605,0.007796695455908775,-0.15204944747397658,-0.007474139332771301,-0.05671447865473493,0.9686022993863224,-0.17921795637691404,left,-0.00032335519790649414,-0.3550283702298026,-3.098065384060144,-8.657446647128463,-0.1883455040628546,0.021169990301132202,-0.00023627281188964844,3.4089579641371963,-0.0008323192596435547
1745973517587085300,8.370085205078125,-0.34381852749513026,-0.010549729689955711,-0.15220071246835712,-0.007647356484085321,-0.05660068094621855,0.9686516853489384,-0.1788890739419197,left,0.001452624797821045,-0.354359478821026,-3.1002859827190634,-8.659071617981791,-0.18800310007259924,0.01921190693974495,-0.0036839842796325684,3.4028067480310797,-0.0077652037143707275
1745973517627085600,8.41008544921875,-0.3439764883278347,-0.016969852149486542,-0.1522625251842385,0.016087692230939865,-0.056887402580060434,0.9686704943716424,-0.1794028836664421,left,-0.002038717269897461,-0.3537843102264407,-3.1023131046324965,-8.660423032590746,-0.18776966092516978,0.00036368146538734436,-0.0004096031188964844,3.3975159481465815,0.0007421970367431641
1745973517667085300,8.450085205078125,-0.3436154150340424,-0.01686979830265045,-0.15202859086786893,0.01708449050784111,-0.057267225432601064,0.9686863405987723,-0.180097274971656,left,0.0023406147956848145,-0.35367950244953494,-3.099305739510059,-8.661877323052286,-0.18776171325019755,-0.0030375695787370205,-0.001380234956741333,3.396551779289543,-0.0023535192012786865
1745973517707085300,8.490085205078126,-0.34331681691176263,-0.008532006293535233,-0.15185924252850605,0.009961817413568497,-0.05755276121112904,0.9687215759910099,-0.18056660319234444,left,0.0010069608688354492,-0.35334979087442364,-3.0970962467670438,-8.663856514170766,-0.18762997868733508,0.004172058776021004,-0.0005307793617248535,3.3935184029430148,-0.0009614229202270508
1745973517747085300,8.530085205078125,-0.34331681691176263,0.0005896203219890594,-0.15185924252850605,0.000941133126616478,-0.05755276121112904,0.9687215759910099,-0.18056660319234444,left,0.0029103755950927734,-0.35334979087442364,-3.0970962467670438,-8.663856514170766,-0.18762997868733508,-0.006598042324185371,0.0006550848484039307,3.3935184029430148,0.003509610891342163
1745973517787085300,8.570085205078126,-0.34331681691176263,-0.0017627535853534937,-0.15185924252850605,-0.009115040302276611,-0.05755276121112904,0.9687215759910099,-0.18056660319234444,left,0.00034987926483154297,-0.35334979087442364,-3.0970962467670438,-8.663856514170766,-0.18762997868733508,0.012600740417838097,-0.003034234046936035,3.3935184029430148,-0.0032189786434173584
1745973517827085300,8.610085205078125,-0.34402896197515204,-0.004161546938121319,-0.15225144192069065,-0.011712193489074707,-0.05761826228126719,0.9687395616201941,-0.1806592889085306,left,0.0033413171768188477,-0.3523965373910149,-3.1043548395931717,-8.664690042385459,-0.18719839873846456,0.01821652427315712,-0.0007615089416503906,3.3847461906835434,0.00056418776512146
1745973517867085600,8.65008544921875,-0.34402896197515204,-0.002917978912591934,-0.15225144192069065,0.002664327621459961,-0.05761826228126719,0.9687395616201941,-0.1806592889085306,left,-0.0034151077270507812,-0.3523965373910149,-3.1043548395931717,-8.664690042385459,-0.18719839873846456,-0.0009439084678888321,-0.0018891990184783936,3.3847461906835434,-0.0015484392642974854
1745973517907085300,8.690085205078125,-0.3444170345730943,-0.01941021904349327,-0.15242574719749483,-0.010240360163152218,-0.05787394427293524,0.9687393474871677,-0.181156274155209,left,0.006897687911987305,-0.35183789184767295,-3.108355015145242,-8.665263458359242,-0.18697839214660006,0.0043952432461082935,-0.003988534212112427,3.3796038593590256,-0.00724107027053833
1745973517947085300,8.730085205078124,-0.3447173420607182,-0.008297867141664028,-0.15254060292669863,0.008104250766336918,-0.058167483220303476,0.968731694851087,-0.18174234539816073,left,-0.0028734207153320312,-0.35142714513912476,-3.1114260931536553,-8.665635214281082,-0.1868339225661178,0.005041312426328659,-0.002274036407470703,3.3758222949936982,0.0019031167030334473
1745973517987085300,8.770085205078125,-0.34363002274536647,0.002989155240356922,-0.15202432421360304,0.02523421123623848,-0.05830452387087465,0.9688310603811109,-0.1817730052633038,left,0.005900144577026367,-0.35120208256587787,-3.1022578673139214,-8.669728621074556,-0.1866962102444567,0.0031384059693664312,-0.0018128156661987305,3.3737501648947594,-0.0003237724304199219
1745973518027085300,8.810085205078124,-0.34315151747598793,0.0007156236097216606,-0.15179045722922102,0.008264778181910515,-0.05837389171161218,0.9688688985960603,-0.18181733968914818,left,0.004177272319793701,-0.3511668482678523,-3.0981489706903695,-8.67132378131151,-0.18666863966135683,-0.004965555854141712,0.0018705427646636963,3.373425755245983,0.003217250108718872
1745973518067085300,8.850085205078125,-0.34315151747598793,0.0023960843682289124,-0.15179045722922102,0.0007106228731572628,-0.05837389171161218,0.9688688985960603,-0.18181733968914818,left,0.002715766429901123,-0.3511668482678523,-3.0981489706903695,-8.67132378131151,-0.18666863966135683,-0.008358861319720745,0.001558840274810791,3.373425755245983,0.0024827420711517334
1745973518107085600,8.89008544921875,-0.3435046361265408,-0.0032724072225391865,-0.15193124950009249,-0.019961323589086533,-0.058320859182968185,0.9688060261776491,-0.18186020414586393,left,0.004461824893951416,-0.35161262655181774,-3.1007039158701897,-8.668812675273418,-0.18689692804543612,0.010290657170116901,0.0002987980842590332,3.3775299756944177,-0.000048488378524780273
1745973518147085300,8.930085205078125,-0.34417298905800237,-0.0005615579430013895,-0.15227143977856383,-0.022177280858159065,-0.058264017444594,0.9687739735005904,-0.18182847519076428,left,0.00549626350402832,-0.35138394053560307,-3.1067578090816736,-8.66746535231769,-0.18680384495701582,0.004384052474051714,0.002567797899246216,3.3754245278477666,0.00488695502281189
1745973518187085300,8.970085205078124,-0.34521596333678334,-0.00776344258338213,-0.15275962052121672,-0.035943444818258286,-0.05825014077617675,0.968688498370443,-0.1820031530740938,left,0.004388391971588135,-0.3513954341039845,-3.1157828270584345,-8.66418384642899,-0.18685307263787107,-0.0016213362105190754,-0.000291287899017334,3.3755303263098,0.00017011165618896484
1745973518227085300,9.010085205078125,-0.3466942178768007,-0.012186896055936813,-0.15346590480925923,-0.03055308200418949,-0.05832405412780552,0.9685963871698076,-0.18236354837222343,left,0.0004044771194458008,-0.35098952753401247,-3.129052642998099,-8.660856163311005,-0.18672828376213607,0.016757754608988762,-0.00015178322792053223,3.371792893347144,-0.0005049705505371094
1745973518267085300,9.050085205078124,-0.3480704056913466,-0.0013747606426477432,-0.1541715317919743,-0.031895942986011505,-0.05829482802274157,0.9685477701325178,-0.18242365620731318,left,0.000425875186920166,-0.35023277433143246,-3.1418381825521586,-8.658937762469053,-0.18640859904779597,0.017855463549494743,-0.004157423973083496,3.3648230543345212,0.0024083852767944336
1745973518307085300,9.090085205078125,-0.34893823707559807,0.0008261043112725019,-0.15465531484695122,-0.012303696945309639,-0.05811163945017303,0.9685342345313243,-0.18210320497307306,left,-0.001466512680053711,-0.34966361884204467,-3.1500057069167493,-8.658006619098781,-0.18613505631322802,0.01658499799668789,-0.004628896713256836,3.3595798929840326,-0.001651763916015625
1745973518347085600,9.13008544921875,-0.34893823707559807,-0.0065398262813687325,-0.15465531484695122,0.0026778550818562508,-0.05811163945017303,0.9685342345313243,-0.18210320497307306,left,0.0011811256408691406,-0.34966361884204467,-3.1500057069167493,-8.658006619098781,-0.18613505631322802,0.011446896940469742,-0.005715996026992798,3.3595798929840326,-0.0038947463035583496
1745973518387085300,9.170085205078125,-0.34893823707559807,-0.008443789556622505,-0.15465531484695122,0.012858468107879162,-0.05811163945017303,0.9685342345313243,-0.18210320497307306,left,0.0009344220161437988,-0.34966361884204467,-3.1500057069167493,-8.658006619098781,-0.18613505631322802,-0.003589264117181301,-0.0027352571487426758,3.3595798929840326,-0.0032175183296203613
1745973518427085300,9.210085205078125,-0.34837446196750865,-0.0072249253280460835,-0.1543578396877788,0.01410729344934225,-0.05850384273685316,0.9686013156888571,-0.18270320388302758,left,0.0048639774322509766,-0.34913373464688296,-3.145731098337471,-8.661452960160375,-0.18590981686048297,-0.010743450373411179,-0.002220839262008667,3.3546973816394803,-0.0007452964782714844
1745973518467085300,9.250085205078125,-0.34837446196750865,0.00026951078325510025,-0.1543578396877788,0.001679208129644394,-0.05850384273685316,0.9686013156888571,-0.18270320388302758,left,0.0029286742210388184,-0.34913373464688296,-3.145731098337471,-8.661452960160375,-0.18590981686048297,-0.004816173110157251,-0.0014796853065490723,3.3546973816394803,0.0024418532848358154
1745973518507085300,9.290085205078125,-0.34837446196750865,0.009157235734164715,-0.1543578396877788,-0.0056244065053761005,-0.05850384273685316,0.9686013156888571,-0.18270320388302758,left,0.00252455472946167,-0.34913373464688296,-3.145731098337471,-8.661452960160375,-0.18590981686048297,0.00670686224475503,-0.0024028122425079346,3.3546973816394803,0.00010877847671508789
1745973518547085300,9.330085205078126,-0.34837446196750865,0.012522891163825989,-0.1543578396877788,-0.01182237733155489,-0.05850384273685316,0.9686013156888571,-0.18270320388302758,left,0.00400465726852417,-0.34913373464688296,-3.145731098337471,-8.661452960160375,-0.18590981686048297,0.00267002172768116,-0.0033622384071350098,3.3546973816394803,0.0014045238494873047
1745973518587085300,9.370085205078125,-0.34878000716447843,0.003796696662902832,-0.15462418392843055,-0.004564471542835236,-0.05808858275631023,0.9685899439860691,-0.18192988502862012,left,-0.0005170106887817383,-0.34916658307470483,-3.149205788710713,-8.660072903978824,-0.18587772926336565,0.006264671683311462,-0.004412204027175903,3.355000163978338,-0.004094570875167847
1745973518627085600,9.41008544921875,-0.34878000716447843,-0.006260858848690987,-0.15462418392843055,0.0031820465810596943,-0.05808858275631023,0.9685899439860691,-0.18192988502862012,left,0.0014300942420959473,-0.34916658307470483,-3.149205788710713,-8.660072903978824,-0.18587772926336565,0.005658185109496117,-0.0012512505054473877,3.355000163978338,-0.0005942881107330322
1745973518667085300,9.450085205078125,-0.34878000716447843,-0.004162994213402271,-0.15462418392843055,0.004981840029358864,-0.05808858275631023,0.9685899439860691,-0.18192988502862012,left,0.002910137176513672,-0.34916658307470483,-3.149205788710713,-8.660072903978824,-0.18587772926336565,-0.008079645223915577,-0.00025913119316101074,3.355000163978338,0.0013170838356018066
1745973518707085300,9.490085205078126,-0.34933432712474993,-0.001001410884782672,-0.15488164503491064,-0.01218121312558651,-0.05823783692035506,0.9685647081895609,-0.1822757624142059,left,0.0027676820755004883,-0.34880876363012603,-3.154416509096324,-8.659453310775756,-0.18574829870156112,0.014573558233678341,-0.0007184147834777832,3.351702583737671,-0.0006009042263031006
1745973518747085300,9.530085205078125,-0.3491437857698872,0.023145895451307297,-0.15490118920291435,0.013671647757291794,-0.05792244115389015,0.9686511454229043,-0.1814681111411992,left,-0.003141939640045166,-0.3481839716166642,-3.1534821508556603,-8.66201994639337,-0.1853793428017398,0.02092950977385044,0.0008696019649505615,3.3459438740804788,0.003436833620071411
1745973518787085300,9.570085205078126,-0.34880648279532994,0.010182294063270092,-0.15485869910367991,-0.006985124200582504,-0.05748498712309969,0.9687389281949499,-0.18042215253718255,left,0.0024051666259765625,-0.3477756119596099,-3.1510271589189767,-8.664366801780462,-0.1850919384206825,0.011861419305205345,-0.0012862980365753174,3.3421792608499525,-0.002061396837234497
1745973518827085300,9.610085205078125,-0.34880648279532994,0.005366199649870396,-0.15485869910367991,0.0009151371195912361,-0.05748498712309969,0.9687389281949499,-0.18042215253718255,left,0.002106010913848877,-0.3477756119596099,-3.1510271589189767,-8.664366801780462,-0.1850919384206825,-0.004877081140875816,0.000021189451217651367,3.3421792608499525,0.0010933279991149902
1745973518867085600,9.65008544921875,-0.34872068700989606,0.005754963029175997,-0.15483031281352774,-0.0031350497156381607,-0.05725460720204243,0.9687246542117847,-0.18001136301500734,left,0.0023401379585266113,-0.34819982223427626,-3.149799078428745,-8.663304140985012,-0.18526198895579968,-0.007816087454557419,-0.0023831725120544434,3.3460900045529005,-0.0011766254901885986
1745973518907085300,9.690085205078125,-0.34872068700989606,0.006562088616192341,-0.15483031281352774,-0.0034828369971364737,-0.05725460720204243,0.9687246542117847,-0.18001136301500734,left,0.0021266937255859375,-0.34819982223427626,-3.149799078428745,-8.663304140985012,-0.18526198895579968,-0.003647198434919119,-0.0008166134357452393,3.3460900045529005,0.002723097801208496
1745973518947085300,9.730085205078124,-0.34881957768602057,0.010339192114770412,-0.15490235558891913,-0.009335295297205448,-0.05694863394922217,0.9686990745133487,-0.17948055089046458,left,0.005062580108642578,-0.34862791264702536,-3.1501658659145235,-8.661645267862081,-0.18542989676139332,-0.0020199306309223175,-0.002109318971633911,3.35003581956923,-0.0003857910633087158
1745973518987085300,9.770085205078125,-0.34881957768602057,0.011875862255692482,-0.15490235558891913,0.000931762158870697,-0.05694863394922217,0.9686990745133487,-0.17948055089046458,left,-0.0045070648193359375,-0.34862791264702536,-3.1501658659145235,-8.661645267862081,-0.18542989676139332,0.013261855579912663,-0.0015265047550201416,3.35003581956923,-0.002690553665161133
1745973519027085300,9.810085205078124,-0.34894858379668936,0.003707725554704666,-0.1551001035733838,-0.0025445162318646908,-0.05645006555332014,0.9687634177523854,-0.1783696483149232,left,0.0020202994346618652,-0.348073027770102,-3.151918262539804,-8.662984407511352,-0.18508019722552177,0.014794116839766502,-0.0025044679641723633,3.3449209607735275,-0.005469143390655518
1745973519067085300,9.850085205078125,-0.34894858379668936,-0.012035336345434189,-0.1551001035733838,0.013907060027122498,-0.05645006555332014,0.9687634177523854,-0.1783696483149232,left,-0.0021510720252990723,-0.348073027770102,-3.151918262539804,-8.662984407511352,-0.18508019722552177,-0.006792191416025162,-0.0011500418186187744,3.3449209607735275,-0.004167079925537109
1745973519107085600,9.89008544921875,-0.3487942186724607,-0.026216920465230942,-0.1549124285554089,0.017649885267019272,-0.05703911579831017,0.9687384556002416,-0.179563948012938,left,0.001542806625366211,-0.348113234160992,-3.1505349914878606,-8.6633444729954,-0.1851877334134001,-0.02451579086482525,-0.0009270608425140381,3.3452918399125338,-0.0018998384475708008
1745973519147085300,9.930085205078125,-0.3487001466830823,-0.011747121810913086,-0.15471510159822288,0.010663028806447983,-0.057655704051563283,0.9686712989269808,-0.180907887083514,left,0.002724587917327881,-0.34857751971930206,-3.1491888375759123,-8.662180105391144,-0.18551269065461687,-0.02502311021089554,-0.0005176961421966553,3.349571416927874,0.004586011171340942
1745973519187085300,9.970085205078124,-0.3487001466830823,0.016582371667027473,-0.15471510159822288,-0.0062219854444265366,-0.057655704051563283,0.9686712989269808,-0.180907887083514,left,0.006214439868927002,-0.34857751971930206,-3.1491888375759123,-8.662180105391144,-0.18551269065461687,-0.0060903150588274,-0.0004305839538574219,3.349571416927874,0.007721990346908569
1745973519227085300,10.010085205078125,-0.34870297934110905,0.031553834676742554,-0.1547658775562988,-0.0137255247682333,-0.057141656795957035,0.9686483064078678,-0.17996996504196575,left,0.004379928112030029,-0.34921910556823366,-3.148478643479943,-8.660149476346373,-0.18574920690920535,0.008622365072369576,-0.0016285479068756104,3.3554841481029984,0.003502488136291504
1745973519267085300,10.050085205078124,-0.3487213516554305,0.014256607741117477,-0.15487911617692124,-0.005814285017549992,-0.0565423051660676,0.9686707628361022,-0.17876176779648345,left,0.0005645155906677246,-0.34935367182194854,-3.148483319655061,-8.659667245787382,-0.1857210164321672,0.01592523418366909,-0.0018042027950286865,3.356723919031024,-0.0035957694053649902
1745973519307085300,10.090085205078125,-0.3489461112318304,-0.010093079879879951,-0.15502738871655417,-0.0015681581571698189,-0.056465251612123804,0.9686879047040479,-0.17857361907577737,left,-0.0003751516342163086,-0.3489769670538195,-3.150861739224195,-8.660147138258814,-0.1855313451458981,0.010941010899841785,-0.0011908411979675293,3.35325273578912,-0.003380507230758667
1745973519347085600,10.13008544921875,-0.34903550692852675,-0.01659628376364708,-0.15505991011676468,0.006298458203673363,-0.056762408935371135,0.9687151184800777,-0.1790841463944389,left,0.00069427490234375,-0.34834996841869653,-3.15235431586951,-8.661839913651347,-0.18527144252008182,0.008926864713430405,-0.002154320478439331,3.3474738601267338,-0.001318424940109253
1745973519387085300,10.170085205078125,-0.34906416755051306,-0.009119782596826553,-0.15507718706971002,0.004876629449427128,-0.057057203546561366,0.9687607668362305,-0.17954667559323415,left,0.0006856322288513184,-0.3475588635501089,-3.1535072852969166,-8.664234699833393,-0.18492707621775925,0.011994613334536552,-0.00045546889305114746,3.340180780509114,0.0001849830150604248
1745973519427085300,10.210085205078125,-0.349123559755541,-0.006381201557815075,-0.15510755887437652,-0.0009322450496256351,-0.05724302608803583,0.9687862995967843,-0.1798457461616112,left,0.0042455196380615234,-0.3470584615185739,-3.1545933269679542,-8.665617678624391,-0.1847109002254367,0.0029984917491674423,-0.0020480453968048096,3.3355665647119284,-0.003668457269668579
1745973519467085300,10.250085205078125,-0.349123559755541,-0.006541868206113577,-0.15510755887437652,-0.0055443826131522655,-0.05724302608803583,0.9687862995967843,-0.1798457461616112,left,0.0011369585990905762,-0.3470584615185739,-3.1545933269679542,-8.665617678624391,-0.1847109002254367,-0.012630153447389603,-0.0013647973537445068,3.3355665647119284,0.0002690553665161133
1745973519507085300,10.290085205078125,-0.349123559755541,0.01027008704841137,-0.15510755887437652,0.02532985620200634,-0.05724302608803583,0.9687862995967843,-0.1798457461616112,left,-0.006605625152587891,-0.3470584615185739,-3.1545933269679542,-8.665617678624391,-0.1847109002254367,-0.011866474524140358,-0.0016889870166778564,3.3355665647119284,0.0024490952491760254
1745973519547085300,10.330085205078126,-0.3486900053091168,0.015115577727556229,-0.15483145724701572,0.0036272387951612473,-0.05730436892028404,0.9687512610991157,-0.18004556324160811,left,0.005923807621002197,-0.3478725138051836,-3.149907214978337,-8.664429345622658,-0.1851061168991748,-0.01077036838978529,-0.0004622936248779297,3.3430727025583384,0.004418075084686279
1745973519587085600,10.37008544921875,-0.3483503301007053,0.02993260882794857,-0.15465696115089517,0.004935789853334427,-0.05698414369110339,0.9687144546442945,-0.17951337097445366,left,0.0019183754920959473,-0.34888578753456617,-3.1458059171393513,-8.662310453772545,-0.18554328435370948,-0.021360769867897034,0.0002605617046356201,3.3524124855726956,0.004794269800186157
1745973519627085600,10.41008544921875,-0.3482469539953834,0.02248145081102848,-0.15463749864407703,-0.00998571328818798,-0.0564809737050502,0.9686785249923667,-0.17862482105928068,left,0.004927635192871094,-0.3497753907210448,-3.143891315689683,-8.659828573828936,-0.18590014678623146,-0.000956367701292038,-0.002120077610015869,3.3606095282927155,-0.0007379055023193359
1745973519667085300,10.450085205078125,-0.348360969295488,0.013279101811349392,-0.15475222383481502,-0.0011207237839698792,-0.05607672972516031,0.9686751232521854,-0.177852448155059,left,0.00015485286712646484,-0.34998656889409185,-3.144636581099033,-8.658803322434425,-0.18594530778357216,0.008242940530180931,-0.0007484853267669678,3.362555109402537,0.0009544789791107178
1745973519707085300,10.490085205078126,-0.348360969295488,-0.003356269560754299,-0.15475222383481502,0.0056852251291275024,-0.05607672972516031,0.9686751232521854,-0.177852448155059,left,0.0014384984970092773,-0.34998656889409185,-3.144636581099033,-8.658803322434425,-0.18594530778357216,0.006846001371741295,-0.001682579517364502,3.362555109402537,-0.004127174615859985
1745973519747085300,10.530085205078125,-0.348360969295488,-0.01921723783016205,-0.15475222383481502,0.006838540080934763,-0.05607672972516031,0.9686751232521854,-0.177852448155059,left,-0.003270566463470459,-0.34998656889409185,-3.144636581099033,-8.658803322434425,-0.18594530778357216,0.005159514024853706,-0.0004980266094207764,3.362555109402537,-0.0031296908855438232
1745973519787085300,10.570085205078126,-0.34843864361461757,-0.021501880139112473,-0.15473378033858495,0.004712330177426338,-0.05663904069784701,0.968694108064106,-0.17889445449484498,left,0.0020399093627929688,-0.3492865680765623,-3.146111914348602,-8.66076906954944,-0.18569096505027266,-0.0040946705266833305,-0.0012677311897277832,3.3561057871326803,-0.0004477500915527344
1745973519827085300,10.610085205078125,-0.34844595437584674,-0.012913352809846401,-0.15467129633818294,0.008095702156424522,-0.05708008240443917,0.9686879875291071,-0.17975962050329344,left,0.0008094906806945801,-0.349041819662864,-3.1464556132197377,-8.661517842090129,-0.18564019944140503,0.0009073163382709026,-0.0019191503524780273,3.3538504094213244,-0.00012573599815368652
1745973519867085600,10.65008544921875,-0.34844595437584674,0.00014013610780239105,-0.15467129633818294,0.005166602320969105,-0.05708008240443917,0.9686879875291071,-0.17975962050329344,left,0.00423431396484375,-0.349041819662864,-3.1464556132197377,-8.661517842090129,-0.18564019944140503,-0.0024233534932136536,-0.0018160343170166016,3.3538504094213244,0.004101276397705078
1745973519907085300,10.690085205078125,-0.34844595437584674,0.004047371447086334,-0.15467129633818294,0.005420450121164322,-0.05708008240443917,0.9686879875291071,-0.17975962050329344,left,0.00122147798538208,-0.349041819662864,-3.1464556132197377,-8.661517842090129,-0.18564019944140503,0.00002505420707166195,-0.0028191804885864258,3.3538504094213244,0.0004125535488128662
1745973519947085300,10.730085205078124,-0.34844595437584674,0.0014454585034400225,-0.15467129633818294,-0.0041716136038303375,-0.05708008240443917,0.9686879875291071,-0.17975962050329344,left,0.004567384719848633,-0.349041819662864,-3.1464556132197377,-8.661517842090129,-0.18564019944140503,0.0072450581938028336,-0.0019600093364715576,3.3538504094213244,0.00000432133674621582
1745973519987085300,10.770085205078125,-0.34844595437584674,-0.0004670746857300401,-0.15467129633818294,-0.0015337702352553606,-0.05708008240443917,0.9686879875291071,-0.17975962050329344,left,-0.0010706186294555664,-0.349041819662864,-3.1464556132197377,-8.661517842090129,-0.18564019944140503,0.009582228027284145,-0.001349806785583496,3.3538504094213244,-0.002094656229019165
1745973520027085300,10.810085205078124,-0.3484602446247708,-0.02001130022108555,-0.1547357180734252,-0.011268187314271927,-0.057165669251755445,0.9687623445380045,-0.17975298011531987,left,0.003149092197418213,-0.34806935494323693,-3.14769158475548,-8.664534559562801,-0.1851716873726871,0.016059815883636475,-0.00006508827209472656,3.3448873507648704,-0.007052987813949585
1745973520067085300,10.850085205078125,-0.3496746459805188,-0.022897180169820786,-0.15529617746304888,-0.029688650742173195,-0.057522842155911254,0.968707333336952,-0.18056685810124382,left,0.003795027732849121,-0.3472581442471492,-3.1591400304868817,-8.66325153401494,-0.18487887929271407,0.0014654025435447693,0.0027486979961395264,3.337407808664441,-0.001238495111465454
1745973520107085600,10.89008544921875,-0.3510906927726587,0.015249326825141907,-0.15594166521768232,-0.026203032582998276,-0.05755048007739842,0.9685769424890449,-0.18091954635375357,left,0.0009229183197021484,-0.34738943463811833,-3.171253662128746,-8.658357916754484,-0.1850102803480234,-0.018432922661304474,0.0016717612743377686,3.3386186457589266,0.004659831523895264
1745973520147085300,10.930085205078125,-0.35192311369383006,0.021585632115602493,-0.15636902360250082,-0.028520479798316956,-0.057100378040312705,0.9684832289125187,-0.18026772201826086,left,0.001017153263092041,-0.34800361968759225,-3.177752376498282,-8.653788124620913,-0.18527901681989867,-0.00450263824313879,-0.0010275542736053467,3.3442812015652654,0.0017631053924560547
1745973520187085300,10.970085205078124,-0.35265046712556797,0.009822164662182331,-0.1567859172940204,-0.022083252668380737,-0.05664541509391108,0.9684389505968509,-0.17949118835192238,left,-0.0009846091270446777,-0.3481270934393392,-3.1839035926043984,-8.651087633490562,-0.1852983382552656,0.013032487593591213,0.00048217177391052246,3.34541955794543,-0.0024148225784301758
1745973520227085300,11.010085205078125,-0.3535172446892914,0.003495087381452322,-0.15727782501201695,-0.02391158789396286,-0.05634777914181495,0.968416638023828,-0.17896468539077537,left,-0.002922952175140381,-0.34772646519048844,-3.191864488480985,-8.64958073605895,-0.18508858932258698,0.009588995948433876,-0.0029099583625793457,3.3417259641245005,0.002467602491378784
1745973520267085300,11.050085205078124,-0.3535172446892914,-0.007387261372059584,-0.15727782501201695,-0.006102222949266434,-0.05634777914181495,0.968416638023828,-0.17896468539077537,left,-0.0018465518951416016,-0.34772646519048844,-3.191864488480985,-8.64958073605895,-0.18508858932258698,0.0012074559926986694,-0.0021178722381591797,3.3417259641245005,-0.0004063546657562256
1745973520307085300,11.090085205078125,-0.35466865551064886,-0.023049242794513702,-0.15777375721649264,-0.012419430539011955,-0.056648095553908547,0.9683196674019778,-0.17976391359242955,left,0.0018382072448730469,-0.34751481086358904,-3.202067318065464,-8.646563434064388,-0.18508216342048275,-0.014756714925169945,-0.002416163682937622,3.339774537795782,-0.0021375417709350586
1745973520347085600,11.13008544921875,-0.3553943513168632,-0.010540791787207127,-0.15800065057672735,-0.00016661453992128372,-0.05704829906239959,0.9681974466604476,-0.1808180518222428,left,0.0007790327072143555,-0.34797009683170504,-3.207811706936359,-8.6428108035326,-0.1854051591612127,-0.023385800421237946,-0.0019099414348602295,3.343972281746566,0.00034415721893310547
1745973520387085300,11.170085205078125,-0.3553943513168632,0.00818204041570425,-0.15800065057672735,0.0018622353672981262,-0.05704829906239959,0.9681974466604476,-0.1808180518222428,left,0.0028645992279052734,-0.34797009683170504,-3.207811706936359,-8.6428108035326,-0.1854051591612127,-0.012291945517063141,-0.005242645740509033,3.343972281746566,-0.0008255839347839355
1745973520427085300,11.210085205078125,-0.35487855051993633,0.03676382452249527,-0.1577225664145016,0.02856304869055748,-0.056755065623152946,0.9681574119001527,-0.18035065770933728,left,0.001181960105895996,-0.3491878245812484,-3.2019360929012297,-8.640639304712414,-0.18593973655990792,-0.005954878870397806,-0.002044677734375,3.355195978811383,0.0004844069480895996
1745973520467085300,11.250085205078125,-0.35333717789041996,0.02221009135246277,-0.15702827116965354,0.03019818663597107,-0.05621564590059847,0.9682328452174687,-0.1791408034410155,left,0.003150761127471924,-0.3502209395077319,-3.187412769769132,-8.64230811470747,-0.18629828392428086,-0.0022922935895621777,-0.004196524620056152,3.3647140410020944,-0.007031887769699097
1745973520507085300,11.290085205078125,-0.3527056413841573,-0.004475506022572517,-0.15673407405987466,0.02209184691309929,-0.056177561663672805,0.9682802966170044,-0.17895857419111488,left,-0.00237882137298584,-0.35031361634442676,-3.181846367813647,-8.644026609063149,-0.18631085993650734,0.005710741970688105,-0.0020754635334014893,3.365567735221982,0.00040650367736816406
1745973520547085300,11.330085205078126,-0.3520802382653861,-0.014475541189312935,-0.15643325015068543,0.023480182513594627,-0.05648184047597006,0.9683684770234801,-0.17934232116314494,left,0.0015488862991333008,-0.34966988559604945,-3.1771862670481203,-8.648046366098523,-0.18601336816632208,0.012603837996721268,-0.0014907121658325195,3.3596374683901664,0.00302162766456604
1745973520587085600,11.37008544921875,-0.351682799388345,-0.011765073984861374,-0.15624374824495033,0.01811830699443817,-0.05683063755600195,0.9684492359012175,-0.17982805473107866,left,0.0020603537559509277,-0.34884990458662607,-3.1746967883199453,-8.65189193561077,-0.18564528887543483,0.01616767793893814,-0.00206109881401062,3.352081646183133,0.003486931324005127
1745973520627085600,11.41008544921875,-0.35117950198229514,-0.013026852160692215,-0.15602427773909805,0.015640873461961746,-0.05708112627558487,0.9685449646144771,-0.180089492788315,left,0.002647876739501953,-0.3480231696592174,-3.1712942864000797,-8.656087633734941,-0.18525326871596437,0.023167939856648445,-0.00023406744003295898,3.344461526568234,0.0008745789527893066
1745973520667085300,11.450085205078125,-0.3510347562801242,-0.014065481722354889,-0.15596700569981514,0.006894873455166817,-0.05734746636893104,0.9686073650633391,-0.18045776184828752,left,0.005358695983886719,-0.34722384807382023,-3.1709593553572892,-8.6590540823251,-0.18489291235386401,0.018131252378225327,0.000721663236618042,3.3370915823221203,0.0005005300045013428
1745973520707085300,11.490085205078126,-0.3510347562801242,-0.006729008164256811,-0.15596700569981514,0.007935838773846626,-0.05734746636893104,0.9686073650633391,-0.18045776184828752,left,0.001801133155822754,-0.34722384807382023,-3.1709593553572892,-8.6590540823251,-0.18489291235386401,0.00914495438337326,0.00011035799980163574,3.3370915823221203,-0.0007569789886474609
1745973520747085300,11.530085205078125,-0.3507629445072283,-0.0034420927986502647,-0.15584915277795341,-0.0005376832559704781,-0.0575651107601179,0.9686714643767174,-0.18072818367059013,left,0.0053702592849731445,-0.346563806647575,-3.1693618570327757,-8.661982536992431,-0.18458831699010217,0.004918216727674007,-0.0004017651081085205,3.3310043713629245,0.000955045223236084
1745973520787085300,11.570085205078126,-0.3507629445072283,0.002875805366784334,-0.15584915277795341,0.000037297140806913376,-0.0575651107601179,0.9686714643767174,-0.18072818367059013,left,0.0015004277229309082,-0.346563806647575,-3.1693618570327757,-8.661982536992431,-0.18458831699010217,0.000830511562526226,-0.00005194544792175293,3.3310043713629245,0.00019297003746032715
1745973520827085300,11.610085205078125,-0.3507629445072283,0.003863690188154578,-0.15584915277795341,-0.00949004478752613,-0.0575651107601179,0.9686714643767174,-0.18072818367059013,left,0.002055823802947998,-0.346563806647575,-3.1693618570327757,-8.661982536992431,-0.18458831699010217,0.003950268961489201,-0.0036573410034179688,3.3310043713629245,-0.0030099153518676758
1745973520867085600,11.65008544921875,-0.3507629445072283,0.0009048462379723787,-0.15584915277795341,-0.004193119239062071,-0.0575651107601179,0.9686714643767174,-0.18072818367059013,left,0.002308487892150879,-0.346563806647575,-3.1693618570327757,-8.661982536992431,-0.18458831699010217,-0.0007609706372022629,-0.0029236972332000732,3.3310043713629245,-0.0006073713302612305
1745973520907085300,11.690085205078125,-0.3507629445072283,0.002278461353853345,-0.15584915277795341,0.0015706392005085945,-0.0575651107601179,0.9686714643767174,-0.18072818367059013,left,-0.0013284087181091309,-0.346563806647575,-3.1693618570327757,-8.661982536992431,-0.18458831699010217,-0.005532080307602882,-0.003834545612335205,3.3310043713629245,-0.004497617483139038
1745973520947085300,11.730085205078124,-0.35119646478409156,0.0015410713385790586,-0.1560945499743475,-0.006814630702137947,-0.0573937814985345,0.9686566469857955,-0.18043082215135345,left,0.006237506866455078,-0.3464277198763675,-3.1732726007357237,-8.661033273443579,-0.18451204476523045,0.0016895392909646034,-0.0034244954586029053,3.3297491106048223,-0.0026200711727142334
1745973520987085300,11.770085205078125,-0.35119646478409156,0.013922302052378654,-0.1560945499743475,0.004205161705613136,-0.0573937814985345,0.9686566469857955,-0.18043082215135345,left,-0.0017562508583068848,-0.3464277198763675,-3.1732726007357237,-8.661033273443579,-0.18451204476523045,0.00028048420790582895,-0.004954606294631958,3.3297491106048223,0.0014870762825012207
1745973521027085300,11.810085205078124,-0.35056404071410036,0.014708379283547401,-0.15587753842186566,0.022988026961684227,-0.057006413437029425,0.9687371344132475,-0.17949942221532655,left,0.0023567676544189453,-0.3463695105030612,-3.1678610970810053,-8.663220554354787,-0.18439326754290453,0.00553940050303936,-0.0028312206268310547,3.3292122272491453,-0.0021840333938598633
1745973521067085300,11.850085205078125,-0.34984259470129275,0.003966188058257103,-0.1555383085704675,0.018013186752796173,-0.056887381876515486,0.9687769854012968,-0.17917971848586625,left,0.0021396279335021973,-0.34669951372287366,-3.161233495634794,-8.664470846676826,-0.18450680518249316,-0.01654979959130287,-0.0006003975868225098,3.332256124989688,0.0008049607276916504
1745973521107085600,11.89008544921875,-0.34923355752749524,0.005266109947115183,-0.15518803321819363,0.015443280339241028,-0.056881701279436675,0.968755234845211,-0.17922098346166754,left,0.0030275583267211914,-0.34758129717812986,-3.1549493007987737,-8.663630304199456,-0.18491743272759223,-0.019834034144878387,-0.0013133883476257324,3.340387701258063,-0.0019404292106628418
1745973521147085300,11.930085205078125,-0.3489043391897327,0.016066469252109528,-0.15499846813222098,0.0005849078297615051,-0.0566978863587303,0.9687160394155858,-0.1789575185526949,left,0.005363345146179199,-0.34851533862429784,-3.151028912484646,-8.661732946145534,-0.18533756855787384,-0.021439239382743835,-0.0015177130699157715,3.348998293215036,0.004892438650131226
1745973521187085300,11.970085205078124,-0.3489419919396319,0.01620296575129032,-0.15498909383208606,-0.008151267655193806,-0.0563978100731711,0.9686383870857518,-0.17855775197089388,left,0.008075892925262451,-0.3496252815909667,-3.1500819870233534,-8.658115340170264,-0.1858422497477751,-0.02428876981139183,-0.0018434524536132812,3.359226549501717,0.004979312419891357
1745973521227085300,12.010085205078125,-0.3488836830080829,0.006122816354036331,-0.15493072529796134,-0.006572708487510681,-0.05614403298181244,0.9685704308923437,-0.17822381644909244,left,0.006500184535980225,-0.35067611784056535,-3.148368753364682,-8.654977042144537,-0.1863208475460758,-0.013271670788526535,-0.002949923276901245,3.3689065242558716,0.0007656216621398926
1745973521267085300,12.050085205078124,-0.3489780655746405,0.00105245690792799,-0.15496326805747168,0.010419007390737534,-0.05611556341104848,0.9685457843972152,-0.17822584200374583,left,-0.0024229884147644043,-0.35089878220454895,-3.148929017595947,-8.653974587103724,-0.1864308679720138,0.007546212524175644,0.0001958012580871582,3.3709570270448923,0.003431081771850586
1745973521307085300,12.090085205078125,-0.34859379209457947,-0.0026878772769123316,-0.15482426014083442,0.005908132065087557,-0.0561072722978712,0.9686204659419746,-0.17803756397267456,left,0.0005856156349182129,-0.35039088282543146,-3.1461879021942614,-8.656791982612013,-0.18616089192582716,0.01534569077193737,-0.00003528594970703125,3.366279390622675,0.0036062002182006836
1745973521347085600,12.13008544921875,-0.34802772476364763,0.002813802333548665,-0.15465663152631637,0.015619583427906036,-0.056045649346030665,0.9687635611813088,-0.17758843425097343,left,-0.0011396408081054688,-0.34927513227133594,-3.1425659123048186,-8.66209710328281,-0.1855728650167698,0.03914433345198631,0.0000838935375213623,3.3560002809315916,-0.001466304063796997
1745973521387085300,12.170085205078125,-0.34722457571538884,0.006369291804730892,-0.154428592966058,0.011379668489098549,-0.05587448094802892,0.9689650516488033,-0.17679338254170004,left,0.0009235739707946777,-0.3477637597527396,-3.1373303497388956,-8.669377907940746,-0.1847608038618782,0.043649982661008835,0.0014829039573669434,3.342069955256581,-0.001947253942489624
1745973521427085300,12.210085205078125,-0.3468315681861985,0.00673792464658618,-0.15437714037765132,0.004357298370450735,-0.055687026829941734,0.9691141313654851,-0.17608759652988884,left,0.0004990696907043457,-0.34648079190293907,-3.135377754366398,-8.674635682338476,-0.18407710672475022,0.025863735005259514,0.001722961664199829,3.330238647687435,-0.0010198652744293213
1745973521467085300,12.250085205078125,-0.34662586431487546,-0.0036063813604414463,-0.15435233675223486,-0.004390983376652002,-0.055554341747551535,0.9691894106299058,-0.17565772966645343,left,0.003781437873840332,-0.3458650012205828,-3.134289666868746,-8.677207578653096,-0.18374141476481023,0.006996322423219681,0.0014681518077850342,3.3245582639634605,-0.00214463472366333
1745973521507085300,12.290085205078125,-0.34662586431487546,-0.0014686321374028921,-0.15435233675223486,-0.0051163919270038605,-0.055554341747551535,0.9691894106299058,-0.17565772966645343,left,0.004100203514099121,-0.3458650012205828,-3.134289666868746,-8.677207578653096,-0.18374141476481023,-0.007698467001318932,0.00016176700592041016,3.3245582639634605,0.0005082786083221436
1745973521547085300,12.330085205078126,-0.3471955293952801,-0.0047423685900866985,-0.15459363778195748,-0.0089959055185318,-0.0556224050716255,0.9691255096887633,-0.1759364470459873,left,0.0026797056198120117,-0.3460239924579682,-3.1390523512259123,-8.674923267108202,-0.1838553883151071,-0.0012428900226950645,-0.0003178715705871582,3.3260248293846844,-0.000225067138671875
1745973521587085600,12.37008544921875,-0.3471955293952801,-0.005403812509030104,-0.15459363778195748,-0.011863743886351585,-0.0556224050716255,0.9691255096887633,-0.1759364470459873,left,0.0037706494331359863,-0.3460239924579682,-3.1390523512259123,-8.674923267108202,-0.1838553883151071,0.008766486309468746,-0.0019456148147583008,3.3260248293846844,-0.002804994583129883
1745973521627085600,12.41008544921875,-0.34830734293335025,-0.006039952859282494,-0.1551489682642637,-0.013715620152652264,-0.05569159447567748,0.9690832943651334,-0.17616530154642526,left,0.0010661482810974121,-0.3453694715299657,-3.149437551639974,-8.673472483778,-0.1835886263133772,0.00874374434351921,-0.0012351274490356445,3.3199861337423324,-0.000662386417388916
1745973521667085300,12.450085205078125,-0.34901563276109304,-0.000014019664376974106,-0.1555048231627318,-0.0077918050810694695,-0.05569730651123179,0.9690527264112403,-0.17624490781209556,left,-0.0006075501441955566,-0.34502227156114085,-3.155973967671394,-8.672322144699097,-0.1834472089560229,0.001238145399838686,-0.000842660665512085,3.316782077004015,-0.002056032419204712
1745973521707085300,12.490085205078126,-0.34901563276109304,0.0013463187497109175,-0.1555048231627318,-0.013130871579051018,-0.05569730651123179,0.9690527264112403,-0.17624490781209556,left,0.00465238094329834,-0.34502227156114085,-3.155973967671394,-8.672322144699097,-0.1834472089560229,-0.000545792980119586,-0.0029291510581970215,3.316782077004015,-0.004900485277175903
1745973521747085300,12.530085205078125,-0.3497648210976561,0.002948507433757186,-0.15587832975588092,0.005496904253959656,-0.05557383923720044,0.9689977390923488,-0.1761315226069741,left,-0.008113205432891846,-0.34502022852232367,-3.1624726820409297,-8.669961845308542,-0.1834582341514351,0.006902455352246761,-0.0028369128704071045,3.3167630800426005,-0.007877111434936523
1745973521787085300,12.570085205078126,-0.34904229604451464,0.004335024394094944,-0.1555650480268969,0.016139492392539978,-0.055458175892630676,0.9690670238363421,-0.17575001994928802,left,0.003977656364440918,-0.34498877845965675,-3.15624343226254,-8.672342602965236,-0.1833933132383682,-0.0021674316376447678,-0.0027954578399658203,3.316472864924371,-0.004847824573516846
1745973521827085300,12.610085205078125,-0.34904229604451464,0.001775921555235982,-0.1555650480268969,0.014580896124243736,-0.055458175892630676,0.9690670238363421,-0.17575001994928802,left,0.002743661403656006,-0.34498877845965675,-3.15624343226254,-8.672342602965236,-0.1833933132383682,-0.02612176723778248,0.00039058923721313477,3.316472864924371,0.00001385807991027832
1745973521867085600,12.65008544921875,-0.3486372221735979,0.0037560006603598595,-0.1552480404901901,0.009754273109138012,-0.05558599475932456,0.9689798403933523,-0.17620075980781344,left,0.0013363957405090332,-0.3463689225932224,-3.1511633525192737,-8.669310103401541,-0.18408218523832215,-0.035602107644081116,0.0002015531063079834,3.329206966552138,0.0004749298095703125
1745973521907085300,12.690085205078125,-0.34907567944966883,0.005596165079623461,-0.1553680978906421,-0.022163033485412598,-0.055560031801114074,0.9688467913584299,-0.17645825551023056,left,0.003932595252990723,-0.34755963185036926,-3.153606069496274,-8.664196121388674,-0.1846880691288782,-0.021925456821918488,-0.0017543435096740723,3.3401877947717904,0.0007526874542236328
1745973521947085300,12.730085205078124,-0.34981950486173913,0.022911973297595978,-0.1557164828436153,-0.018971795216202736,-0.055230369007454407,0.9687361707268893,-0.17607644271248613,left,0.002335965633392334,-0.34837832082300635,-3.1591116811752316,-8.65927620064318,-0.18507337937973642,-0.015982352197170258,-0.001004546880722046,3.3477354336723684,0.005840718746185303
1745973521987085300,12.770085205078125,-0.35010703247878816,0.027795910835266113,-0.15588189102498878,-0.01670774817466736,-0.05464170913411176,0.9686560668250708,-0.1751232124271897,left,0.0011432766914367676,-0.34945838582598754,-3.1603593431487678,-8.654965936228633,-0.18552729798406717,-0.017822889611124992,-0.003872811794281006,3.3576889646708965,0.0020582973957061768
1745973522027085300,12.810085205078124,-0.35022504377851016,0.020325811579823494,-0.1559581711463103,0.004510421305894852,-0.054141522017934346,0.9685919078716907,-0.17430352066616606,left,-0.0019537806510925293,-0.3504511305187351,-3.160235424508154,-8.651458220368623,-0.18594475900213206,-0.008613488636910915,-0.0016268789768218994,3.3668343941569328,-0.0016828477382659912
1745973522067085300,12.850085205078125,-0.34998869757396117,0.009478584863245487,-0.15584615321582423,0.014777686446905136,-0.05390072087206064,0.9685717161135207,-0.1738835435380127,left,-0.0011951923370361328,-0.3510906018268139,-3.1574516390085217,-8.650180455517768,-0.1862136375301165,-0.010145915672183037,-0.0009237825870513916,3.372723452195525,0.00008821487426757812
1745973522107085600,12.89008544921875,-0.3493025539540762,-0.015321425162255764,-0.15548062974427912,0.027742616832256317,-0.054071588336068024,0.9686051355943074,-0.17413669900864717,left,-0.0007445216178894043,-0.3512591017709816,-3.151321173429489,-8.651810687068105,-0.1862959719778333,0.001875520683825016,-0.0003472864627838135,3.374275065551698,-0.0024217963218688965
1745973522147085300,12.930085205078125,-0.3486282107799973,-0.03043331950902939,-0.1551179661502156,0.018450865522027016,-0.05462136567831397,0.9686939239216319,-0.17499588829811744,left,0.008071303367614746,-0.35049381372034116,-3.146367350414395,-8.656358267369866,-0.1859757463991509,0.01658216118812561,-0.00020396709442138672,3.367227485127747,0.0031794309616088867
1745973522187085300,12.970085205078124,-0.34834933822796776,-0.023877523839473724,-0.1549450090184765,0.01898590289056301,-0.055207741061920786,0.9687607158208942,-0.17597633159953346,left,0.0031853318214416504,-0.349569072295552,-3.1450147667616606,-8.660158244174719,-0.18559861888707996,0.010690326802432537,0.0015157461166381836,3.3587086631074548,0.003946393728256226
