time,seconds_elapsed,roll,rotationRateZ,quaternionY,rotationRateY,quaternionZ,quaternionW,yaw,devicelocation,accelerationZ,pitch,gravityX,gravityZ,quaternionX,rotationRateX,accelerationX,gravityY,accelerationY
1745973579662195000,0.20719482421875,0.05945667847461264,-1.3747146129608154,0.028591000143732625,0.21653282642364502,7.901063284745956e-18,0.98692731259986,0.009549842105205528,left,0.05957883596420288,-0.3184266488561601,0.5534329970050603,-9.297204101824759,-0.15860980198859587,-0.0018769130110740662,-0.3627243638038635,3.070193334533274,-0.005168229341506958
1745973579702195000,0.24719482421875,-0.25451421268199326,-1.1853946447372437,-0.11170419162870707,0.19602204859256744,-0.0859848631645378,0.9798476543009161,-0.20865083306929547,left,0.03558659553527832,-0.26107962594434764,-2.385400075671822,-9.16911314396262,-0.1415186736446097,0.05878883972764015,-0.06447894871234894,2.5313281573891637,0.10266879200935364
1745973579742195000,0.28719482421875,-0.29401746999182404,-0.8050056099891663,-0.1284216889867647,0.149065300822258,-0.11638703531813903,0.9756559209196356,-0.2723349233742743,left,0.033825457096099854,-0.2344626772936444,-2.764205185371637,-9.12901844946146,-0.13437813042905217,0.11183109879493713,-0.02846616506576538,2.2782838090382516,0.11595554649829865
1745973579782195000,0.32719482421875,-0.2944121508996064,-0.5778297185897827,-0.12812432548536315,0.11352545022964478,-0.12574318206320276,0.974966026477413,-0.2901069483483003,left,0.03178083896636963,-0.22552131802822262,-2.7736086812719702,-9.147056210455299,-0.1312025359643913,0.12516938149929047,-0.029693037271499634,2.192908249569684,0.10204389691352844
1745973579822194700,0.367194580078125,-0.2946530183680202,-0.27439212799072266,-0.12804783727839222,0.03182435780763626,-0.13484328078719088,0.9743238786632918,-0.30699402400094206,left,0.03839099407196045,-0.21447058211381376,-2.7826795842170715,-9.169017282372712,-0.12694082328179243,0.12926046550273895,-0.027203798294067383,2.087149973416328,0.08771546185016632
1745973579862195000,0.40719482421875,-0.2952397746501551,-0.06340354681015015,-0.12851840322119532,0.005751771852374077,-0.1376398520498454,0.9741924581022526,-0.31184436728218434,left,0.02184218168258667,-0.20860381111311502,-2.7915739615514874,-9.178940125972032,-0.12444804268864874,0.08731834590435028,-0.017489880323410034,2.0308990938842295,0.07949598133563995
1745973579902195000,0.44719482421875,-0.3207142651381183,0.09920196235179901,-0.13351052558089951,-0.02248237654566765,-0.131146678299896,0.9682195968662042,-0.3165457076968755,left,-0.00015211105346679688,-0.2903186788781775,-2.962121666871011,-8.917157321500778,-0.16591097081627965,0.045397792011499405,-0.005222409963607788,2.8072268732354044,-0.02948784828186035
1745973579942195000,0.48719482421875,-0.3221530171118839,0.11860552430152893,-0.13428799014894383,-0.03431553393602371,-0.12952058931100338,0.9682051437836626,-0.31375123780783815,left,-0.01061171293258667,-0.29203702468221293,-2.973416383345425,-8.908297723218798,-0.1666432564528603,0.022124165669083595,-0.0010081827640533447,2.823368737480044,-0.04019764065742493
1745973579982195000,0.52719482421875,-0.3226843145657076,0.11921282112598419,-0.1353983834511493,-0.05643101781606674,-0.12733255513944747,0.9687863657055673,-0.3084442782688308,left,-0.0070018768310546875,-0.2872793158925635,-2.9823750580877064,-8.919355123806,-0.1640327251786412,-0.017444780096411705,0.00020110607147216797,2.778655443267524,-0.04197697341442108
1745973580022195000,0.56719482421875,-0.32366281258376145,0.11277274787425995,-0.1370364575099135,-0.07468385994434357,-0.12540231535634783,0.9695419535486475,-0.3030571529868786,left,-0.005611300468444824,-0.2787756973872791,-2.998507862243056,-8.938511659696697,-0.15963630869395543,-0.07375728338956833,0.0062522292137146,2.698581205077469,-0.021547645330429077
1745973580062195000,0.60719482421875,-0.32434097380263444,0.11271341890096664,-0.13779533957622142,-0.07440021634101868,-0.12430887049931022,0.9698046145081383,-0.30043080468451433,left,-0.004230022430419922,-0.2761552793331891,-3.0068121647298334,-8.943148087325692,-0.15823650810208886,-0.08728867769241333,0.0071051716804504395,2.673866742798686,-0.016017526388168335
1745973580102195000,0.64719482421875,-0.3253266030847092,0.11591731011867523,-0.13868215455044333,-0.08893029391765594,-0.12223490997941712,0.9700469112118503,-0.29615751718932765,left,-0.004363954067230225,-0.2753012162314832,-3.0163539000570774,-8.942340862596035,-0.1575905353363008,-0.08363833278417587,0.004431098699569702,2.665807647244632,-0.011961311101913452
1745973580142195000,0.68719482421875,-0.32638362987929614,0.12200263142585754,-0.13942582056329614,-0.09378692507743835,-0.11969664908097048,0.9701640411135323,-0.29141646770551133,left,-0.002789318561553955,-0.2770366321734065,-3.0243168417602777,-8.934752014902234,-0.1581609256687243,-0.06425081193447113,-0.00017181038856506348,2.6821812744185327,-0.010974794626235962
1745973580182195000,0.72719482421875,-0.3275578395410206,0.12042707949876785,-0.14014065798663325,-0.09745391458272934,-0.11793368843857614,0.9701980636925346,-0.2882182374368373,left,0.0015947222709655762,-0.2783593114651022,-3.0336618854716417,-8.927827768597007,-0.15864445910091796,-0.05634303763508797,-0.004431664943695068,2.694655263805389,-0.012652486562728882
1745973580222195000,0.76719482421875,-0.3290458883123393,0.10972347855567932,-0.1410510685054522,-0.07618416100740433,-0.11585066268901469,0.9702365874592404,-0.28442602159728775,left,-0.0019053220748901367,-0.2797520619134214,-3.045727878579497,-8.919743830862641,-0.15913596814215758,-0.05412348359823227,-0.0057610273361206055,2.707785379013419,-0.011455625295639038
1745973580262195000,0.80719482421875,-0.33105245325661314,0.07223760336637497,-0.14218288678634258,-0.04284428432583809,-0.11372947338837727,0.9702099612631466,-0.2807043812343257,left,-0.004696547985076904,-0.2814784521888408,-3.062095952795446,-8.909179766750334,-0.1598195249434893,-0.038836006075143814,-0.008846968412399292,2.7240532077252864,-0.011470943689346313
1745973580302195000,0.84719482421875,-0.3318401125682239,0.04108702391386032,-0.14262563818641838,-0.0226738341152668,-0.11309220596162614,0.9701966614452079,-0.2795875908891542,left,-0.004854321479797363,-0.2818379098253552,-3.0687931123465297,-8.905839224150776,-0.15995788404694838,-0.02971796691417694,-0.004739135503768921,2.727439343032241,-0.008628368377685547
1745973580342195000,0.88719482421875,-0.3327077014589855,0.0032612867653369904,-0.1430920992974452,-0.006403934210538864,-0.112869160003884,0.9701671909467576,-0.27923065044555506,left,-0.000002086162567138672,-0.28162318848640827,-3.076709876820445,-8.90372676204145,-0.15987792152491645,-0.015785088762640953,-0.002565830945968628,2.72541660503298,-0.0059282779693603516
1745973580382195000,0.92719482421875,-0.33352429821678664,-0.02633974701166153,-0.14350637296415825,0.0010284185409545898,-0.11329929492282555,0.9701221051628848,-0.28005411416059917,left,0.003959357738494873,-0.28056837093774906,-3.0849189022392034,-8.903922576874495,-0.1594748640292396,0.0044292546808719635,-0.00238192081451416,2.715478271603584,-0.005063503980636597
1745973580422195000,0.96719482421875,-0.3340358500178747,-0.021291078999638557,-0.14375114260332528,-0.007663732394576073,-0.11367896082602051,0.9700829720275023,-0.28079059156407554,left,0.005153536796569824,-0.27987435546234946,-3.0900904596582053,-8.904121314316987,-0.1592223886729132,0.000945148291066289,-0.0028337836265563965,2.7089377639189363,0.0006914138793945312
1745973580462195000,1.00719482421875,-0.33453411632979146,0.0002927873283624649,-0.1439643847541475,0.0020915884524583817,-0.11399265438937742,0.9700266223710146,-0.28146052702746516,left,0.0018825531005859375,-0.2795627379570763,-3.094803751915693,-8.903377802473306,-0.15914880410729326,-0.013429743237793446,-0.003642648458480835,2.7060008336842056,0.004240453243255615
1745973580502195000,1.04719482421875,-0.33453411632979146,0.0062344493344426155,-0.1439643847541475,-0.002886138390749693,-0.11399265438937742,0.9700266223710146,-0.28146052702746516,left,0.003314793109893799,-0.2795627379570763,-3.094803751915693,-8.903377802473306,-0.15914880410729326,-0.019678371027112007,-0.0009407103061676025,2.7060008336842056,0.0033166110515594482
1745973580542195000,1.08719482421875,-0.3349873378743695,0.005511040799319744,-0.1440860271636992,-0.009924311190843582,-0.11388243050154236,0.9699244861286096,-0.28152644996634385,left,0.0036240816116333008,-0.280724155663373,-3.0978032259926196,-8.898999733519554,-0.15973886017011502,-0.019070377573370934,0.0006821751594543457,2.716946298329532,0.000714719295501709
1745973580582195000,1.12719482421875,-0.33592308504273144,0.006784428376704454,-0.14437890458068414,-0.008053706027567387,-0.11371360200219231,0.9697427310359846,-0.2816825529096797,left,-0.0018503069877624512,-0.2825765337523188,-3.104464729708433,-8.891330806326865,-0.16069551279621855,-0.01167482603341341,-0.00037673115730285645,2.7343963225632906,-0.002071887254714966
1745973580622195000,1.16719482421875,-0.3364096028858619,0.0031630138400942087,-0.14460939492656008,-0.019256915897130966,-0.11367778763484387,0.9697037400263205,-0.2816989629284948,left,0.003379523754119873,-0.28262748076433186,-3.108744306723773,-8.889687715294956,-0.16074888943360804,-0.0012578107416629791,-0.0013087093830108643,2.7348759227737784,-0.002197742462158203
1745973580662195000,1.20719482421875,-0.33732445600193095,0.015803055837750435,-0.14511392786069885,-0.017935974523425102,-0.11339328041542376,0.96968066255525,-0.28121208467184683,left,-0.002606809139251709,-0.28235480996634565,-3.117122258968651,-8.887543104481697,-0.1606342602473615,0.021201107650995255,-0.003526836633682251,2.732308118112385,0.0014615356922149658
1745973580701930000,1.246929931640625,-0.3375660427285595,0.025398317724466324,-0.14549773174527644,-0.009029462933540344,-0.11263926254016042,0.9698520018321914,-0.2794069460298207,left,0.002251007128506899,-0.28082605764047536,-3.12064926405102,-8.890720565474032,-0.15978054135971684,0.053149569779634476,-0.005347277969121933,2.717906667794287,-0.0054987045004963875
1745973580741930200,1.28693017578125,-0.3377004333452065,0.023528074845671654,-0.1456665578122761,-0.00943057332187891,-0.11223364674026687,0.9699155721610132,-0.2785151843383931,left,0.003143608570098877,-0.2804175254554107,-3.122211691062152,-8.891348341983557,-0.15952639406906607,0.03114672191441059,-0.004098653793334961,2.714057006628811,-0.004625916481018066
1745973580781930200,1.32693017578125,-0.3378351113175631,0.021657831966876984,-0.14583531344244213,-0.009831683710217476,-0.11182806464917566,0.969978846379115,-0.2776235643166937,left,0.004035890102386475,-0.28000901178610615,-3.1237761638998984,-8.891973195883631,-0.15927216982715597,0.009143874049186707,-0.0028498172760009766,2.7102070532023905,-0.0037531256675720215
1745973580821930200,1.36693017578125,-0.3383833120312869,0.015902401879429817,-0.14610425076481362,-0.008595652878284454,-0.11149349081880225,0.9699403750580835,-0.2771138398396719,left,0.0036590099334716797,-0.2804837271840059,-3.128222914175689,-8.889044741216301,-0.15949426309749687,-0.021756112575531006,-0.0013180077075958252,2.714680691485107,-0.0009977221488952637
1745973580861930200,1.40693017578125,-0.3390607336924538,0.009020577184855938,-0.14630918364605774,-0.011012433096766472,-0.11131017379532875,0.9698019988275045,-0.27713953733061697,left,0.0024302005767822266,-0.28202003047466,-3.1328529120638966,-8.882979742088914,-0.16027387362279172,-0.03915790468454361,-0.0007993578910827637,2.729154914778471,0.001346975564956665
1745973580901930000,1.446929931640625,-0.3400696517440474,0.005984109360724688,-0.14666823733689713,-0.027968812733888626,-0.11114934005595012,0.9696344355564905,-0.27726413229078056,left,0.003746509552001953,-0.28353668680077826,-3.140429484798014,-8.875902351048587,-0.16106947594598592,-0.015746502205729485,-0.004405498504638672,2.7434374148920178,0.002248913049697876
1745973580941930000,1.486929931640625,-0.3405158209154273,0.01083293929696083,-0.14689375022925133,-0.013520248234272003,-0.11096494982937483,0.9696076138595947,-0.2769891483318559,left,0.001860976219177246,-0.2837000484919681,-3.144239398474991,-8.874077473708986,-0.16115272366658512,0.0034190528094768524,-0.0037932395935058594,2.744975291983783,0.0024687647819519043
1745973580981930200,1.52693017578125,-0.3405780405687199,0.013265608809888363,-0.14699771357603136,0.0004918389022350311,-0.11061678472858011,0.9696542803403405,-0.27624739041425805,left,0.0010111331939697266,-0.2835224470397646,-3.1449542687460776,-8.874341093081235,-0.16101616276896463,0.016103267669677734,-0.0035174190998077393,2.7433032671183346,0.0025678277015686035
1745973581021930200,1.56693017578125,-0.33976974919200476,0.010939562693238258,-0.14674219614750214,0.029477674514055252,-0.11027851223766351,0.9698096583707013,-0.27527485385402056,left,-0.0024085044860839844,-0.2827844822814356,-3.138454093071818,-8.878786966574191,-0.16054471878366586,0.02479436993598938,-0.0007188022136688232,2.7363544708937404,-0.002298206090927124
1745973581061930200,1.60693017578125,-0.33923455899621635,0.008276402950286865,-0.14655378173770436,0.016434933990240097,-0.11015677285810793,0.9698993178372194,-0.2748463350779004,left,0.002018451690673828,-0.28231734126910685,-3.134126877522468,-8.881669828534125,-0.1602587895213526,0.016545165330171585,-0.00006186962127685547,2.731955066891014,0.0011890828609466553
1745973581101930200,1.64693017578125,-0.3386628359359468,0.00009323284029960632,-0.14634376951285927,0.0070722224190831184,-0.11002663644086555,0.969988753269331,-0.2744061214125736,left,0.0017282962799072266,-0.2819097040946703,-3.1294182614400983,-8.884509435874223,-0.15999871102890753,0.01134982518851757,0.000982910394668579,2.728115634858608,-0.001364588737487793
1745973581141930000,1.686929931640625,-0.3386628359359468,-0.006701158359646797,-0.14634376951285927,-0.007069014012813568,-0.11002663644086555,0.969988753269331,-0.2744061214125736,left,0.0037816762924194336,-0.2819097040946703,-3.1294182614400983,-8.884509435874223,-0.15999871102890753,0.00867927074432373,0.0010658502578735352,2.728115634858608,-0.0006480216979980469
1745973581181930000,1.726929931640625,-0.3386628359359468,0.005102517083287239,-0.14634376951285927,-0.005088615231215954,-0.11002663644086555,0.969988753269331,-0.2744061214125736,left,0.002514958381652832,-0.2819097040946703,-3.1294182614400983,-8.884509435874223,-0.15999871102890753,-0.017626864835619926,-0.002266496419906616,2.728115634858608,0.006027311086654663
1745973581221930000,1.766929931640625,-0.3391922717575617,0.016395267099142075,-0.1465023807700318,0.005978063680231571,-0.1099536745600962,0.9698788489579415,-0.2745524240449597,left,-0.00006252527236938477,-0.28301049224911523,-3.133120623089373,-8.880014462542533,-0.16056881349559962,-0.028783444315195084,-0.00026798248291015625,2.738482715094089,0.005865931510925293
1745973581261930200,1.80693017578125,-0.3387711874901937,0.01731094904243946,-0.14626723631764632,0.01053631491959095,-0.10973591709469095,0.9698854463241123,-0.274180881469113,left,0.00044357776641845703,-0.28378493156245804,-3.1286753341183067,-8.87932998740971,-0.16089154098943184,-0.00836581364274025,-0.00030544400215148926,2.7457746256679294,0.0014502406120300293
1745973581301930200,1.84693017578125,-0.3387711874901937,0.0021380940452218056,-0.14626723631764632,0.004769583232700825,-0.10973591709469095,0.9698854463241123,-0.274180881469113,left,0.0013791322708129883,-0.28378493156245804,-3.1286753341183067,-8.87932998740971,-0.16089154098943184,0.01490987092256546,0.001153111457824707,2.7457746256679294,-0.0011877715587615967
1745973581341930200,1.88693017578125,-0.33848564789034574,-0.005452068522572517,-0.14617739670256163,0.005218401551246643,-0.10960340996009545,0.9699405857635818,-0.27381394963922134,left,-0.0002446174621582031,-0.2835409134053901,-3.1263620887398718,-8.880854420498013,-0.16073149732494096,0.011694597080349922,0.0008606612682342529,2.7434771623805165,-0.0014986991882324219
1745973581381930200,1.92693017578125,-0.3386854881469442,-0.009727654978632927,-0.14634223269791116,-0.01717442274093628,-0.10967693884269866,0.9699758435500866,-0.27383076665155537,left,0.005745232105255127,-0.2826570581574909,-3.128941291578114,-8.882513293620944,-0.16031790301893295,0.02500186301767826,-0.0008010268211364746,2.7351544474542138,-0.0027945637702941895
1745973581421930000,1.966929931640625,-0.3395302558057473,0.002151007764041424,-0.14690846554876225,-0.012560870498418808,-0.10962051309009879,0.9700271661806249,-0.27353175231188664,left,-0.0036742091178894043,-0.28096341654624774,-3.1379820916458963,-8.884221851104497,-0.15952634648334757,0.05131947621703148,-0.00280115008354187,2.7192007992580534,-0.0019845962524414062
1745973581461930000,2.006929931640625,-0.33915608924969004,0.005845318082720041,-0.14692282262000356,-0.003541393205523491,-0.10936829562758273,0.9701942962706477,-0.27264540515594676,left,0.0015055537223815918,-0.2793586420567813,-3.1361054841190574,-8.889499499246478,-0.15866750083463263,0.0625249370932579,-0.0031346678733825684,2.7040768798843025,-0.0038561224937438965
1745973581501930200,2.04693017578125,-0.33938947284679555,0.003680543275550008,-0.14727414888120705,-0.00808744877576828,-0.10910727931479826,0.9703471310301759,-0.2717393237876938,left,-0.00005334615707397461,-0.2772195568966621,-3.1400983531475064,-8.894200808805227,-0.15758267192457256,0.04092918336391449,-0.005705744028091431,2.6839067830368877,0.0015928447246551514
1745973581541930200,2.08693017578125,-0.3394795749738076,-0.0017827812116593122,-0.1474311140230406,-0.005130954552441835,-0.1090198024268829,0.9704214342383056,-0.27136811316063425,left,0.0042931437492370605,-0.27613651084214524,-3.141865947341919,-8.896653462654351,-0.15703815842842925,0.037669602781534195,-0.004978388547897339,2.673689632666111,-0.003184288740158081
1745973581581930200,2.12693017578125,-0.3398855116601793,-0.008392899297177792,-0.14776847585447778,-0.003471322124823928,-0.10901633453908938,0.97049194722881,-0.271128618703927,left,0.00079345703125,-0.27456695388769986,-3.1468723773270844,-8.89932297412455,-0.15628593986783462,0.03541358932852745,-0.005602329969406128,2.658877263459563,-0.0026463866233825684
1745973581621930200,2.16693017578125,-0.3397872886746327,-0.015813635662198067,-0.14781967974224208,0.020918777212500572,-0.10921171610840955,0.9705699795499333,-0.27124997153607655,left,-0.0028982162475585938,-0.27316787019128785,-3.1472347808986902,-8.90313054971397,-0.15561499039837118,0.02634350024163723,-0.00410228967666626,2.645668237796426,-0.003040790557861328
1745973581661930000,2.206929931640625,-0.33912472389099435,-0.022106578573584557,-0.14756218870351834,0.031246047466993332,-0.10962277717664369,0.9706646218684006,-0.2717409417505239,left,-0.002465665340423584,-0.27184841490151646,-3.1424937238514423,-8.908498214226961,-0.15497875145766232,0.02240106835961342,-0.003952890634536743,2.6332062311083075,-0.0060118138790130615
1745973581701930000,2.246929931640625,-0.3379604455592291,-0.019263053312897682,-0.14704630216819553,0.040025800466537476,-0.10997541962912982,0.9707850922681944,-0.27209506450898796,left,0.00158768892288208,-0.2708596053525416,-3.1329815068796276,-8.914602960842847,-0.15446403154594188,0.01959674246609211,-0.0009818971157073975,2.6238644022673365,-0.005576372146606445
1745973581741930200,2.28693017578125,-0.336671593749193,-0.0005867481231689453,-0.146434247636223,0.022602714598178864,-0.11030680013398113,0.9708889246889746,-0.27246965622153213,left,0.004839539527893066,-0.27031151605168213,-3.121963853780925,-8.919989330056309,-0.15415617214692118,-0.009524298831820488,0.0019102692604064941,2.618684953802824,0.0025659799575805664
1745973581781930200,2.32693017578125,-0.335262181991755,0.015424562618136406,-0.14570163455475593,0.02825273387134075,-0.11031083380653135,0.9709578320048288,-0.27238667753602064,left,-0.0010544061660766602,-0.27101853052732683,-3.1087787935152646,-8.922630199953913,-0.15441343380201328,-0.019719701260328293,0.0032332241535186768,2.6253660390019413,-0.002941817045211792
1745973581821930200,2.36693017578125,-0.33487356322195266,0.008248762227594852,-0.14545914823286793,0.013190202414989471,-0.11026236080475238,0.9709480426307745,-0.2723599890066268,left,0.0010510087013244629,-0.27173967756752787,-3.1046883093312383,-8.922047431629895,-0.1547379508479581,-0.019599027931690216,0.0030796825885772705,2.6321792261481285,-0.0026102066040039062
1745973581861930200,2.40693017578125,-0.3348582509922526,0.002110489644110203,-0.1453430971423221,-0.0006429264321923256,-0.1102920623146875,0.970871889542143,-0.27263035238775435,left,0.000014901161193847656,-0.27287018526444423,-3.103571580260992,-8.91927855143845,-0.15530211470589572,-0.03029964119195938,0.0034275054931640625,2.6428572720289227,0.0003642439842224121
1745973581901930000,2.446929931640625,-0.33509443771887937,0.005447094328701496,-0.14538869955570827,-0.008066156879067421,-0.11026963842853285,0.9708056998367158,-0.27276359074907736,left,0.00324934720993042,-0.2736259947513449,-3.10502031776458,-8.916656386241316,-0.15568935291988673,-0.02369822934269905,0.0023588240146636963,2.6499939920410513,0.001147538423538208
1745973581941930000,2.486929931640625,-0.33555441531516816,0.01769271492958069,-0.14555164781310082,-0.012058574706315994,-0.11005574144553802,0.9707289551740842,-0.2725775072960202,left,0.0006089210510253906,-0.27458945558065945,-3.108279319560528,-8.912812570294737,-0.15616582940607243,-0.01838560402393341,0.001194387674331665,2.659089737166464,0.006595104932785034
1745973581981930200,2.52693017578125,-0.33602122062916506,0.017704006284475327,-0.14576588273024368,-0.0134356077760458,-0.10954430259619996,0.9706850352527749,-0.27177980328679646,left,0.003086984157562256,-0.27555221774781574,-3.1115938509359955,-8.908939528253674,-0.15659765871102235,-0.008206955157220364,-0.001478344202041626,2.668176129941642,0.000243455171585083
1745973582021930200,2.56693017578125,-0.33614715947829443,0.013876761309802532,-0.14582032099998896,-0.001756865531206131,-0.10926943452054458,0.97067024181918,-0.2713346403910668,left,0.0003134012222290039,-0.27608862103029175,-3.112243254755437,-8.90719531493485,-0.15683075831128196,-0.010268967598676682,-0.0011996030807495117,2.673237797245383,0.0018068253993988037
1745973582061930200,2.60693017578125,-0.3361729828615498,-0.003443143330514431,-0.14579716485001773,0.0027197403833270073,-0.10911958342237761,0.9706421808850436,-0.27115161051134146,left,0.003340482711791992,-0.27673496022189925,-3.111902770754695,-8.905482081276178,-0.15713048261001505,0.000301877036690712,-0.002584218978881836,2.6793355295985934,-0.002569913864135742
1745973582101930200,2.64693017578125,-0.3361729828615498,-0.008864786475896835,-0.14579716485001773,0.0008361742366105318,-0.10911958342237761,0.9706421808850436,-0.27115161051134146,left,0.0030150413513183594,-0.27673496022189925,-3.111902770754695,-8.905482081276178,-0.15713048261001505,0.012657584622502327,-0.0038213729858398438,2.6793355295985934,-0.001858532428741455
1745973582141930000,2.686929931640625,-0.3361729828615498,-0.014286428689956665,-0.14579716485001773,-0.0010473919101059437,-0.10911958342237761,0.9706421808850436,-0.27115161051134146,left,0.002689540386199951,-0.27673496022189925,-3.111902770754695,-8.905482081276178,-0.15713048261001505,0.02501329407095909,-0.005058497190475464,2.6793355295985934,-0.001147150993347168
1745973582181930000,2.726929931640625,-0.33593917258936,0.002377060241997242,-0.14598717581229226,0.011236127465963364,-0.10900889877984243,0.9708768219990696,-0.2703082076267548,left,-0.0013013482093811035,-0.2736602078999601,-3.112521487174928,-8.91394478919506,-0.1555733125169325,0.06262680888175964,-0.004793941974639893,2.650317232646048,-0.008600026369094849
1745973582221930000,2.766929931640625,-0.3349200804679184,-0.01637929677963257,-0.14568142946357476,0.03271060436964035,-0.1090293822676157,0.9710862140166113,-0.2698198495244681,left,-0.0035052895545959473,-0.27169701407632024,-3.105140144751966,-8.922008853185176,-0.15453504168819315,0.037568654865026474,-0.0016543567180633545,2.6317761983051895,-0.00913161039352417
1745973582261930200,2.80693017578125,-0.33406976949346207,-0.043453067541122437,-0.14522345190195257,0.030943050980567932,-0.1098555178637176,0.971116299128371,-0.27123132193802274,left,-0.0017458200454711914,-0.2708683728591319,-3.0982664595901963,-8.926703148481248,-0.15419133825850234,-0.0396232046186924,0.00023412704467773438,2.6239471121147275,-0.0006174743175506592
1745973582301930200,2.84693017578125,-0.3334352567865148,-0.03688182309269905,-0.14471269890985003,0.027116991579532623,-0.11069927788968102,0.9710179131196294,-0.2730232049874065,left,0.00283735990524292,-0.27169925221267316,-3.091886987686157,-8.926604364281893,-0.15468711705712873,-0.047999389469623566,-0.0004481971263885498,2.631797241093218,-0.000051140785217285156
1745973582341930200,2.88693017578125,-0.33296062735566767,-0.012615995481610298,-0.14429230998968412,0.011054983362555504,-0.11144825345627903,0.9709165836344565,-0.2746444353255668,left,0.006632864475250244,-0.2725265340472925,-3.086937256324291,-8.92600990552008,-0.15517699445504132,-0.018117709085345268,-0.0037476718425750732,2.639611714236438,0.006067156791687012
1745973582381930200,2.92693017578125,-0.33210480857183566,0.016609633341431618,-0.1438184697064391,0.023483434692025185,-0.11156195746415219,0.9709368222459264,-0.27484404943078694,left,0.0004895925521850586,-0.27307581326686925,-3.0788238002344963,-8.927276564455031,-0.15540861294322997,-0.008234917186200619,-0.0015119314193725586,2.644799053746462,0.008307218551635742
1745973582421930000,2.966929931640625,-0.3318940145151657,0.01174086146056652,-0.1436560744904817,0.02051381953060627,-0.11143965915586546,0.9709094502959391,-0.274723730428924,left,0.00017499923706054688,-0.27396509107082345,-3.076174454769492,-8.925698355352878,-0.15581717592018782,-0.025484703481197357,0.00003355741500854492,2.6531957106918096,0.004623681306838989
1745973582461930000,3.006929931640625,-0.3310458619849074,0.0022346656769514084,-0.14311186697029782,0.021007610484957695,-0.11141744418647397,0.9708756787404663,-0.2748358703147281,left,0.0023862719535827637,-0.27554938337176643,-3.0672330234229563,-8.924317714649439,-0.15654216080772623,-0.024437183514237404,0.0007596313953399658,2.6681495341956616,-0.00032776594161987305
1745973582501930200,3.04693017578125,-0.3307263753722987,-0.0020674755796790123,-0.14290681442177047,0.008374444209039211,-0.11149706465025566,0.9708629063799481,-0.2750307289650097,left,0.003092825412750244,-0.2759933006175417,-3.063996525719762,-8.924176260352134,-0.1567523895673872,-0.0018030479550361633,0.0006697773933410645,2.6723382180571553,0.00018006563186645508
1745973582541930200,3.08693017578125,-0.3307263753722987,0.003874649293720722,-0.14290681442177047,0.0020930860191583633,-0.11149706465025566,0.9708629063799481,-0.2750307289650097,left,0.0018175244331359863,-0.2759933006175417,-3.063996525719762,-8.924176260352134,-0.1567523895673872,0.022121867164969444,0.001772075891494751,2.6723382180571553,0.0022684335708618164
1745973582581930200,3.12693017578125,-0.3305499188424157,0.004715109243988991,-0.14300046493074547,-0.013573963195085526,-0.11124717319116738,0.9710037018600102,-0.2742134221170086,left,0.0037616491317749023,-0.274514506946392,-3.063701049904525,-8.928444439190626,-0.15597080043106035,0.03355430066585541,-0.0006566047668457031,2.6583821734189987,-0.0006203949451446533
1745973582621930200,3.16693017578125,-0.3309089901886723,-0.006261173635721207,-0.14334725815480753,-0.005723600275814533,-0.11103959508386964,0.9711009985946751,-0.2735548178993823,left,-0.0013304352760314941,-0.2729569196082197,-3.068248337945342,-8.931248975217342,-0.15519214941177947,0.03877802938222885,-0.0015318691730499268,2.6436761871963737,-0.0052716732025146484
1745973582661930000,3.206929931640625,-0.330679582074626,-0.010752991773188114,-0.14334837150260635,0.01716422662138939,-0.11115336517811235,0.9711973836039298,-0.2734953142910488,left,-0.0025040507316589355,-0.271567954026783,-3.0673887985065575,-8.935417200812697,-0.15450492839448302,0.026550300419330597,-0.0035010874271392822,2.630556885643303,-0.0024908483028411865
1745973582701930000,3.246929931640625,-0.3296968725621417,-0.006150976289063692,-0.1429776212760373,0.015107207000255585,-0.1112219184862239,0.971343379715749,-0.27326849249003843,left,0.0053367018699646,-0.2704207791505148,-3.059581339626014,-8.941276448234916,-0.15388041174901768,0.02898101881146431,-0.00389137864112854,2.619717511720955,-0.00881454348564148
1745973582741930200,3.28693017578125,-0.3298177028077059,-0.008291328325867653,-0.14309663994905436,-0.021974671632051468,-0.11134372316935916,0.9713770903648651,-0.2733752930681906,left,0.006941616535186768,-0.2695367219394075,-3.061410600879788,-8.94309431131184,-0.15346807252123346,0.002648027613759041,-0.0014819800853729248,2.6113620635688304,-0.00397336483001709
1745973582781930200,3.32693017578125,-0.33083728688666963,0.003137486055493355,-0.14352855811506868,-0.02305600605905056,-0.11135026128151598,0.9712590552023042,-0.27365035742690025,left,0.00028073787689208984,-0.2700796852455963,-3.070066201022267,-8.938626225987075,-0.153806606722035,-0.030592693015933037,0.0008703470230102539,2.6164938734993335,-0.00037291646003723145
1745973582821930200,3.36693017578125,-0.3318007332612561,0.019977249205112457,-0.14389378075236137,-0.020907677710056305,-0.11113189965265674,0.9711175054114036,-0.2736065759431997,left,0.0006759166717529297,-0.27144436967445335,-3.0775106718093155,-8.93228007183075,-0.15451558445129873,-0.02922644466161728,0.0005576014518737793,2.6293893031686544,0.001949220895767212
1745973582861930200,3.40693017578125,-0.3323977925305189,0.03310052305459976,-0.14415108566303184,-0.029620936140418053,-0.1105832811501492,0.971051752054843,-0.27279939454060953,left,0.00697934627532959,-0.2726689568821991,-3.081790248824656,-8.92739054622352,-0.15508140839288265,-0.020039718598127365,0.001630336046218872,2.6409566991046067,0.0023400187492370605
1745973582901930000,3.446929931640625,-0.33268854377976237,0.042306095361709595,-0.14430964411522862,-0.015903819352388382,-0.10976642577313002,0.971042483957113,-0.27138555806140696,left,0.004835903644561768,-0.27386258643307326,-3.083354137140512,-8.923508151832223,-0.1555713569352815,-0.010596374981105328,0.000818789005279541,2.6522280347034335,0.004758119583129883
1745973582941930000,3.486929931640625,-0.3325873802659296,0.03694861754775047,-0.14435774548524818,0.008686667308211327,-0.10894047136011242,0.9711176772599683,-0.26974217572549897,left,-0.005461454391479492,-0.27425986805383695,-3.082107059688866,-8.9228236766994,-0.1556388838161865,0.023000724613666534,-0.0013638734817504883,2.6559786194086072,-0.0008065700531005859
1745973582981930200,3.52693017578125,-0.33094191333631356,0.014979006722569466,-0.14374646320981352,0.0312021616846323,-0.10837169264965335,0.9713691936292936,-0.26815220578975413,left,0.00048488378524780273,-0.27342122811924363,-3.068143416266143,-8.929986407935619,-0.1550302636557109,0.03899926319718361,-0.0012024939060211182,2.648060685890913,-0.003164947032928467
1745973583021930200,3.56693017578125,-0.330215910657798,0.0030330391600728035,-0.1435176016142537,0.0025611743330955505,-0.10819710736385858,0.9715100313106315,-0.26749973552289713,left,0.004987955093383789,-0.2724610998288002,-3.0624823217645285,-8.934612314170598,-0.15448061878527164,0.009454358369112015,-0.0017722547054290771,2.6389935823380943,0.0032765567302703857
1745973583061930200,3.60693017578125,-0.32978762198937955,0.010020621120929718,-0.1433271090902315,0.00179390050470829,-0.10805180747444172,0.9715527603281638,-0.2671545609090368,left,0.00543665885925293,-0.2725806541134203,-3.0585531656220555,-8.935624706083535,-0.15449043208121,-0.004793952219188213,-0.0008714795112609863,2.640122878628969,0.0003813803195953369
1745973583101930200,3.64693017578125,-0.32976107269851224,0.013673664070665836,-0.14333066579804607,-0.006053225137293339,-0.1077730846707801,0.9715653992593292,-0.26663412405045045,left,0.0031858086585998535,-0.2728929772417559,-3.0580487232312557,-8.93492503338158,-0.15460249000264678,0.005531146191060543,-0.0029246509075164795,2.6430723760843273,-0.001123666763305664
1745973583141930000,3.686929931640625,-0.32993381436523844,0.028708279132843018,-0.14345101117430506,-0.007693286053836346,-0.10735065159302667,0.9715775036924621,-0.26585064555121957,left,0.003405272960662842,-0.27321100846988217,-3.0593197660803795,-8.93360109130144,-0.15470914605677918,-0.011043091304600239,0.0008433759212493896,2.6460756495535374,0.004511624574661255
1745973583181930000,3.726929931640625,-0.3302808673608268,0.046395495533943176,-0.1436187094792954,0.0004937965422868729,-0.10660812051223298,0.9715471816664625,-0.26461316979933236,left,-0.0035512447357177734,-0.2744893066426447,-3.0613205845087763,-8.92933174341917,-0.15525609279717878,-0.01985333114862442,-0.0010408461093902588,2.658144273009896,0.0040426552295684814
1745973583221930000,3.766929931640625,-0.3294255616897774,0.03481784090399742,-0.1433220321971614,0.004646553657948971,-0.1056592619600757,0.9716874860518677,-0.26261252613064145,left,0.0011249780654907227,-0.2749735351784255,-3.0532652883470055,-8.930728166213632,-0.15530099495534624,0.030862774699926376,-0.002748340368270874,2.6627149419263003,-0.007243126630783081
1745973583261930200,3.80693017578125,-0.3287278594383756,0.012988317757844925,-0.14312790636763212,0.016446873545646667,-0.105108913659046,0.9718387582208297,-0.2612687977814407,left,-0.0023921728134155273,-0.2744308869871465,-3.047499564427137,-8.934222438070178,-0.15490594466647672,0.010954027995467186,0.0007179081439971924,2.6575930688679215,-0.002019822597503662
1745973583301930200,3.84693017578125,-0.32788041186267475,-0.007520144805312157,-0.14269151006172623,0.019177155569195747,-0.10513380797766327,0.9718807173677705,-0.26124896354024435,left,0.005991995334625244,-0.27478045797233264,-3.039627808138728,-8.935921643203496,-0.15502881983718506,-0.029518665745854378,0.0006709396839141846,2.6608926949352023,-0.001014113426208496
1745973583341930200,3.88693017578125,-0.32782944359073546,-0.027642471715807915,-0.142496936978185,0.006617729552090168,-0.10569589423204331,0.9717639796710588,-0.2625632193788971,left,0.0022549033164978027,-0.27568503860208327,-3.0383962205171584,-8.933793983525037,-0.15555672996948658,-0.030611230060458183,-0.0008813142776489258,2.669429637134075,-0.0018175840377807617
1745973583381930200,3.92693017578125,-0.32769769254423414,-0.010623034089803696,-0.14229177457645031,0.011419523507356644,-0.10626549355169303,0.9716740967584512,-0.2638198813945559,left,0.0032044649124145508,-0.27626056482123723,-3.03672419565171,-8.932738336992264,-0.15591716016359813,-0.01420561596751213,0.0004495084285736084,2.6748601377502084,0.0059104859828948975
1745973583421930000,3.966929931640625,-0.32769769254423414,0.034911394119262695,-0.14229177457645031,0.001906401477754116,-0.10626549355169303,0.9716740967584512,-0.2638198813945559,left,0.004298985004425049,-0.27626056482123723,-3.03672419565171,-8.932738336992264,-0.15591716016359813,-0.0005773184821009636,0.0004743039608001709,2.6748601377502084,0.01231604814529419
1745973583461930000,4.006929931640625,-0.326860352963647,0.03732297196984291,-0.1420442456002791,-0.0023970529437065125,-0.10523744042454544,0.9718406116644919,-0.2616025492744281,left,0.00040352344512939453,-0.2764400693850174,-3.0290891707286236,-8.934822742050885,-0.15580196793894058,0.04013867303729057,-0.0003434121608734131,2.67655349766463,-0.003225386142730713
1745973583501930200,4.04693017578125,-0.32674494047282465,0.009111538529396057,-0.14214943470357977,-0.00935941468924284,-0.10459507182551975,0.9719617077970963,-0.2601450941359015,left,0.003304600715637207,-0.27579861909018977,-3.0286084014743566,-8.936796672472358,-0.15538252158357593,0.0178617425262928,0.003049403429031372,2.6705013580188153,-0.003960698843002319
1745973583541930200,4.08693017578125,-0.32674494047282465,-0.018795154988765717,-0.14214943470357977,-0.002222761046141386,-0.10459507182551975,0.9719617077970963,-0.2601450941359015,left,0.00005310773849487305,-0.27579861909018977,-3.0286084014743566,-8.936796672472358,-0.15538252158357593,0.001993829384446144,-0.000022649765014648438,2.6705013580188153,-0.009207218885421753
1745973583581930200,4.12693017578125,-0.32781067250561524,-0.03513238579034805,-0.1426276159879109,-0.01998608373105526,-0.10523959703023703,0.9718644571274644,-0.2614843183246706,left,0.0025410056114196777,-0.27493768945747304,-3.0388699755087494,-8.935737518808246,-0.15511788225482429,0.010935668833553791,-0.0012059807777404785,2.662376503752172,-0.0029433071613311768
1745973583621930200,4.16693017578125,-0.32869570817794336,-0.006842557340860367,-0.1430961585599336,-0.020570792257785797,-0.10560247110102018,0.9718338146498448,-0.26215148480393224,left,0.002481997013092041,-0.2737335911853975,-3.047809945550561,-8.936071865329145,-0.1546306102665446,0.033887386322021484,-0.005061537027359009,2.6510098910853266,0.00347861647605896
1745973583661930000,4.206929931640625,-0.3287107811090837,0.025931477546691895,-0.143313829266002,-0.01515702623873949,-0.10516336675894676,0.9719841450473055,-0.260959752670169,left,0.0075386762619018555,-0.27214913679069724,-3.0492966769769785,-8.939990500077604,-0.15378071015787614,0.051471561193466187,-0.007736384868621826,2.6360470074921847,-0.0006844997406005859
1745973583701930000,4.246929931640625,-0.328825981546288,0.030043330043554306,-0.1436131276745514,0.007591421715915203,-0.10439246584024414,0.9721489671753536,-0.2591367726961221,left,-0.005576431751251221,-0.27075686792446246,-3.0515088000684973,-8.943103663662075,-0.15298327447333238,0.04634098708629608,-0.0040580034255981445,2.6228935114085674,-0.004949361085891724
1745973583741930200,4.28693017578125,-0.32770128890132094,0.007047558203339577,-0.1432183358190258,0.0231933631002903,-0.10395018791109381,0.9723372936318876,-0.2579068254161552,left,-0.0014043450355529785,-0.26997184063591034,-3.0421105648651716,-8.948477173393965,-0.15245709754765358,0.008298821747303009,-0.0012496411800384521,2.6154747595846652,-0.00948023796081543
1745973583781930200,4.32693017578125,-0.32745886190074897,-0.013322893530130386,-0.1430274308770859,0.008978714235126972,-0.10420416534141987,0.9723026770214014,-0.2584662440462373,left,0.0017751455307006836,-0.27038331429427276,-3.0395947826519607,-8.948194264799357,-0.1526833975536686,-0.036926861852407455,-0.0009912550449371338,2.61936358371675,-0.0024538934230804443
1745973583821930200,4.36693017578125,-0.3271320040265442,-0.002638700418174267,-0.1427106532913645,0.009066406637430191,-0.10455685231565094,0.9722120729699987,-0.25936069602020334,left,0.007671236991882324,-0.2715919826817164,-3.035650136679411,-8.946182924976945,-0.15331436746261112,-0.044035110622644424,-0.0008327066898345947,2.6307839723974467,0.0013850629329681396
1745973583861930200,4.40693017578125,-0.3267924686633006,0.013874002732336521,-0.14243686774030423,0.005937495268881321,-0.10450086419732958,0.9721546841600908,-0.25944348038364773,left,0.004869401454925537,-0.27297238589184775,-3.031443917161226,-8.9437653424412,-0.15396958406557598,-0.02725154161453247,-0.0009785294532775879,2.6438223176687954,0.002416163682937622
1745973583901930000,4.446929931640625,-0.32636912564174547,0.01643989235162735,-0.142212756485254,0.003087420016527176,-0.10419988490414149,0.9721675369561533,-0.25890428485300787,left,0.001320183277130127,-0.2737800868732578,-3.026971740183234,-8.943022415119408,-0.1542994156714261,-0.0021199509501457214,0.001696854829788208,2.651449159285426,0.0002753138542175293
1745973583941930000,4.486929931640625,-0.3257431659693581,0.033574625849723816,-0.14202278808810917,0.007810821291059256,-0.10360781188460479,0.9722898954186885,-0.2575606591884374,left,-0.0005095601081848145,-0.27363509559599253,-3.02149593912065,-8.945279254135489,-0.15410136836104976,0.03687911480665207,0.0000425875186920166,2.65008020901978,-0.0006057620048522949
1745973583981930200,4.52693017578125,-0.32454381586914244,0.04713936895132065,-0.1416628728072483,0.02407839149236679,-0.10276589112842852,0.9725309541421896,-0.25548283136491723,left,-0.00037866830825805664,-0.2727712710793021,-3.011494185066223,-8.951063098233938,-0.15347455055186776,0.0244680754840374,0.0027619004249572754,2.641922913788259,0.0023439228534698486
1745973584021930200,4.56693017578125,-0.32328087283343815,0.0518842376768589,-0.1411649824195278,0.008543326519429684,-0.10180702942898327,0.9726930478115987,-0.2534165033465663,left,0.0039147138595581055,-0.2733517281308916,-2.9996994101151824,-8.953403523880242,-0.15354453603674156,-0.01703418418765068,0.004962414503097534,2.64740456006974,-0.0007026791572570801
1745973584061930200,4.60693017578125,-0.32318956895889983,0.01967436447739601,-0.14108391828029465,-0.011283637024462223,-0.10119715143014607,0.9726614256410169,-0.2524277776234048,left,0.0031998753547668457,-0.2749052727002632,-2.997572042697668,-8.949766628682612,-0.1542213668467268,-0.03273726999759674,0.0041990578174591064,2.6620707988038657,-0.007258772850036621
1745973584101930200,4.64693017578125,-0.3238627801196695,-0.0016504563391208649,-0.14129769521168137,-0.021610571071505547,-0.10110938200765653,0.9725261397564658,-0.252603007175056,left,0.0009171366691589355,-0.2762849349196982,-3.002425035686791,-8.944256340828538,-0.15493486455254626,-0.024468718096613884,-0.0006841719150543213,2.675089854852855,-0.00362318754196167
1745973584141930000,4.686929931640625,-0.3245696774258371,-0.00035878620110452175,-0.14156594684293283,-0.017024574801325798,-0.10113395864517767,0.9724196484238967,-0.25289728398093103,left,0.0022699832916259766,-0.2770096519599396,-3.008127923503518,-8.940292113372683,-0.15534176870422567,-0.016741694882512093,-0.0020956099033355713,2.681926715135574,0.0003216564655303955
1745973584181930000,4.726929931640625,-0.32511761564493374,-0.002889780793339014,-0.14181619190787093,-0.011784253641963005,-0.10111180411790345,0.97236879874929,-0.252966191341508,left,0.003342270851135254,-0.27715827533101295,-3.0128987911671397,-8.93826440693736,-0.1554461968930452,0.0010888203978538513,-0.005642741918563843,2.6833286908879876,-0.0034044086933135986
1745973584221930000,4.766929931640625,-0.32511761564493374,-0.011218952015042305,-0.14181619190787093,-0.00419861963018775,-0.10111180411790345,0.97236879874929,-0.252966191341508,left,0.0017063021659851074,-0.27715827533101295,-3.0128987911671397,-8.93826440693736,-0.1554461968930452,-0.0065289451740682125,-0.0047539472579956055,2.6833286908879876,0.0000858604907989502
1745973584261930200,4.80693017578125,-0.3255151192029033,-0.0030712587758898735,-0.141881744715645,0.014216816052794456,-0.1014983565717985,0.9722504113851351,-0.2539518426010247,left,0.00009119510650634766,-0.27785789572888736,-3.0158503344491123,-8.935285098865627,-0.15587438144453192,-0.03285358101129532,-0.004489123821258545,2.6899270662397146,0.001994699239730835
1745973584301930200,4.84693017578125,-0.3254758842914766,-0.002823498100042343,-0.14176092397390536,0.011103245429694653,-0.10170106403990926,0.9721789316409136,-0.25450755886949267,left,0.0008081793785095215,-0.2786565640307599,-3.014811931312084,-8.933365528979897,-0.15629774872000435,-0.016629835590720177,-0.0038968026638031006,2.6974580462664366,-0.0012526214122772217
1745973584341930200,4.88693017578125,-0.3254758842914766,0.0011185649782419205,-0.14176092397390536,0.0022299373522400856,-0.10170106403990926,0.9721789316409136,-0.25450755886949267,left,0.0032984018325805664,-0.2786565640307599,-3.014811931312084,-8.933365528979897,-0.15629774872000435,-0.016577085480093956,0.000890582799911499,2.6974580462664366,0.005841106176376343
1745973584381930200,4.92693017578125,-0.3253989028542082,0.009658586233854294,-0.14160849960372213,0.002340727485716343,-0.10170721398484703,0.9720960301768599,-0.25474664439027767,left,0.00022554397583007812,-0.2799715402805995,-3.0129876384943723,-8.930228399997949,-0.15694617586861234,-0.012027410790324211,-0.00032708048820495605,2.7098540019810198,0.002079576253890991
1745973584421930000,4.966929931640625,-0.3253989028542082,0.0017311684787273407,-0.14160849960372213,-0.004410457331687212,-0.10170721398484703,0.9720960301768599,-0.25474664439027767,left,0.004494309425354004,-0.2799715402805995,-3.0129876384943723,-8.930228399997949,-0.15694617586861234,-0.00672122510150075,-0.0016099214553833008,2.7098540019810198,-0.0009101927280426025
1745973584461930000,5.006929931640625,-0.324936918841019,0.017196785658597946,-0.1413391817629758,0.043535470962524414,-0.10153349306240916,0.9720899436557936,-0.25447787221701945,left,-0.009143292903900146,-0.28087113662943736,-3.0080820385351776,-8.929306024456023,-0.1573383604323546,-0.012981482781469822,0.0032362937927246094,2.718331322947144,0.005217999219894409
1745973584501930200,5.04693017578125,-0.3239847142369221,-0.002720329910516739,-0.14084378861865998,0.00587594136595726,-0.10149992830883854,0.9721297351276625,-0.2543584821521313,left,0.007644236087799072,-0.28144435338343793,-2.9990818627387283,-8.930687249681354,-0.15755856513831573,-0.007804905530065298,-0.0004616677761077881,2.7237320129469036,-0.0029870569705963135
1745973584541930200,5.08693017578125,-0.3239847142369221,0.0010785867925733328,-0.14084378861865998,-0.0029056482017040253,-0.10149992830883854,0.9721297351276625,-0.2543584821521313,left,0.002908647060394287,-0.28144435338343793,-2.9990818627387283,-8.930687249681354,-0.15755856513831573,-0.01707645319402218,0.0020854175090789795,2.7237320129469036,0.007777094841003418
1745973584581930200,5.12693017578125,-0.3245131123191461,0.016257163137197495,-0.1410106434420196,-0.01101970486342907,-0.10144926620937632,0.9720226093496727,-0.2545292641577175,left,0.004880249500274658,-0.2824887663482461,-3.0028917764157055,-8.926400366142392,-0.15810202474450452,-0.004689211957156658,-0.0005570352077484131,2.733569516350329,0.006321638822555542
1745973584621930200,5.16693017578125,-0.32518975225638663,0.019443506374955177,-0.1413823463832554,-0.01467236690223217,-0.1010084964890757,0.9719994401156596,-0.25377422386936815,left,0.00005167722702026367,-0.28271906371424804,-3.00872968878895,-8.923769433116913,-0.15819424297366108,0.004823352210223675,-0.0028952062129974365,2.7357383848220107,0.002994447946548462
1745973584661930000,5.206929931640625,-0.32528314637846356,0.011958586983382702,-0.14146095573372558,-0.008230713196098804,-0.10059405364141294,0.9720093346825371,-0.25300536454595635,left,0.00304490327835083,-0.28309719031891684,-3.009232377614081,-8.922508034878968,-0.15832726131272662,-0.003163726069033146,-0.0037303268909454346,2.7392992921739814,0.002767324447631836
1745973584701930000,5.246929931640625,-0.32528314637846356,-0.0005028108134865761,-0.14146095573372558,0.008536695502698421,-0.10059405364141294,0.9720093346825371,-0.25300536454595635,left,0.0016356110572814941,-0.28309719031891684,-3.009232377614081,-8.922508034878968,-0.15832726131272662,-0.0023365437518805265,-0.0009257793426513672,2.7392992921739814,-0.00041738152503967285
1745973584741930200,5.28693017578125,-0.32528314637846356,-0.002258710563182831,-0.14146095573372558,0.010821791365742683,-0.10059405364141294,0.9720093346825371,-0.25300536454595635,left,0.004252076148986816,-0.28309719031891684,-3.009232377614081,-8.922508034878968,-0.15832726131272662,0.012430720962584019,-0.00009068846702575684,2.7392992921739814,0.0008505582809448242
1745973584781930200,5.32693017578125,-0.32439084523986783,-0.0024070674553513527,-0.14111343487643102,0.013053568080067635,-0.10057949868054833,0.972137507314289,-0.2526798787271467,left,-0.000044345855712890625,-0.28226803303020354,-3.0019924894884227,-8.927339108297229,-0.15785877828764047,0.03128849342465401,0.00026977062225341797,2.7314906642496584,0.0006506443023681641
1745973584821930200,5.36693017578125,-0.3234328189611762,-0.02299807220697403,-0.14074622343013718,0.022410500794649124,-0.100712296112282,0.9722830182316511,-0.2525738266525744,left,-0.001975834369659424,-0.28102944813137426,-2.994511486083269,-8.933411706209181,-0.15720454004032416,0.02936881221830845,0.0012642741203308105,2.7198230228096243,-0.005383133888244629
1745973584861930200,5.40693017578125,-0.32298341089478677,-0.04802703112363815,-0.14050473633545327,0.019252818077802658,-0.10141765924709943,0.9723111127599997,-0.253775488634024,left,-0.002090275287628174,-0.280050336528873,-2.9913401625707743,-8.93727773398757,-0.1567931001466441,0.0007120855152606964,0.0029450953006744385,2.7105966370418666,-0.004164069890975952
1745973584901930000,5.446929931640625,-0.32290783892157193,-0.0421905443072319,-0.14033956032553407,0.010765017941594124,-0.10242498784025394,0.9722368542294958,-0.25576719842738666,left,0.0013033151626586914,-0.2796722454063992,-2.9909897416979074,-8.938474834817647,-0.1567463718256709,-0.009143991395831108,0.0029677152633666992,2.7070328070804477,-0.0001614391803741455
1745973584941930000,5.486929931640625,-0.3229738669013579,-0.008497949689626694,-0.1403138457499966,-0.003678342327475548,-0.1029747058992834,0.9721978828858633,-0.25684361284856,left,0.0042999982833862305,-0.27931163311565566,-2.99188961314708,-8.939202564570307,-0.15665101918266428,0.0028967885300517082,0.00033923983573913574,2.70363381229192,0.0018796920776367188
1745973584981930200,5.52693017578125,-0.3230903610570506,0.02316639944911003,-0.14043904518354314,-0.014794677495956421,-0.10272244486088083,0.9722379739715414,-0.25628290556235517,left,0.004306674003601074,-0.2789763387137574,-2.9932185236632822,-8.939713436701894,-0.1564556214582527,0.013049055822193623,-0.0023825466632843018,2.70047301017344,0.002947092056274414
1745973585021930200,5.56693017578125,-0.3232467089535543,0.03514533117413521,-0.1406043145217304,-0.013412252068519592,-0.10200448492388042,0.9722825926256448,-0.25488135124046474,left,0.0016401410102844238,-0.27925427369278466,-2.9943776305705305,-8.938533287006615,-0.15649947409099005,-0.005584212951362133,-0.0020518898963928223,2.70309312954396,-0.0015170872211456299
1745973585061930200,5.60693017578125,-0.32321298794237907,0.01773473061621189,-0.14056293184728721,0.005018176510930061,-0.1014463204127154,0.9722546378305166,-0.25396647206764966,left,-0.0026962757110595703,-0.2805766415527899,-2.9929382454171773,-8.935237168070673,-0.1570725197123231,-0.03284483402967453,-0.0015298128128051758,2.7155563052758573,-0.00541764497756958
1745973585101930200,5.64693017578125,-0.32309679616034376,-0.01353253610432148,-0.14037868862458722,0.012292895466089249,-0.10155471793356566,0.9721658231143209,-0.2544016000513407,left,0.0010333657264709473,-0.2818557810135983,-2.990794803647697,-8.932283578962087,-0.15771533470191157,-0.03561894968152046,-0.001452624797821045,2.7276076853364706,-0.00909346342086792
1745973585141930000,5.686929931640625,-0.3233226172990256,-0.02498321607708931,-0.14031555427479298,-0.011950230225920677,-0.1021030028678045,0.9720279336860908,-0.25573312786204294,left,0.00829988718032837,-0.28277871102681706,-2.992010609178245,-8.929217177128791,-0.15826620912160852,-0.027250757440924644,-0.0014636218547821045,2.7363001103579996,-0.0009230077266693115
1745973585181930000,5.726929931640625,-0.32376727039775793,0.00613977387547493,-0.14047363337429375,0.008815417066216469,-0.10236090496264483,0.9719579980544896,-0.2563573647459453,left,-0.000460207462310791,-0.2828954931287125,-2.9958792673051358,-8.927582853925228,-0.15838916533205238,0.0013788063079118729,-0.0024099647998809814,2.737399888293445,0.0030780136585235596
1745973585221930000,5.766929931640625,-0.32335421339202103,0.021407362073659897,-0.1403219268368914,-0.007049400359392166,-0.10205439504530305,0.9720178530276132,-0.25567220275943997,left,0.008998990058898926,-0.28296635261698,-2.992129559382796,-8.928635577848553,-0.1583541884486541,-0.00075499527156353,-0.004123419523239136,2.738067120030522,0.009748786687850952
1745973585261930200,5.80693017578125,-0.3238170928355198,0.0245125200599432,-0.1405317517695782,-0.009626718237996101,-0.10161466825122933,0.9719647596997902,-0.2550095851369474,left,0.0020047426223754883,-0.2838872107324252,-2.995458703805506,-8.92485547478795,-0.1587761016224966,-0.018974367529153824,-0.0013110339641571045,2.7467373332202434,0.010351866483688354
1745973585301930200,5.84693017578125,-0.323893641903135,0.013685663230717182,-0.1405648497776252,-0.005802098661661148,-0.10119592384539108,0.9719465693486312,-0.2543082268623237,left,0.00484156608581543,-0.28470306982665233,-2.995427724145353,-8.922498682528733,-0.1591248304309015,0.006311655044555664,-0.005053669214248657,2.7544170740678906,0.00258636474609375
1745973585341930200,5.88693017578125,-0.3240745543773493,0.01492107380181551,-0.14074766094592336,-0.008675132878124714,-0.10074150045177968,0.9719974927186088,-0.25335541463872857,left,0.0032854676246643066,-0.28444163509298387,-2.9972710139244794,-8.922638967782259,-0.15894065031927712,0.02791680581867695,-0.007091403007507324,2.751956529173255,0.0012725591659545898
1745973585381930200,5.92693017578125,-0.32389552423612356,0.0069664521142840385,-0.14075792153581473,0.016530442982912064,-0.10043373831401335,0.9720784654771625,-0.2526002912293445,left,0.001090407371520996,-0.2839299527360267,-2.9961212593674658,-8.924509437829256,-0.15863127652232475,0.009577075019478798,-0.001387476921081543,2.7471397765412924,-0.00032332539558410645
1745973585421930000,5.966929931640625,-0.32389552423612356,-0.02425273507833481,-0.14075792153581473,0.022725127637386322,-0.10043373831401335,0.9720784654771625,-0.2526002912293445,left,-0.000818789005279541,-0.2839299527360267,-2.9961212593674658,-8.924509437829256,-0.15863127652232475,0.003777924459427595,0.0008782446384429932,2.7471397765412924,-0.006643325090408325
1745973585461930000,6.006929931640625,-0.32300604507605,-0.032653357833623886,-0.14024915927374235,0.01364329643547535,-0.10126512944604091,0.9720991665912849,-0.25406712392189806,left,0.0038717985153198242,-0.2833844338177359,-2.988657207097113,-8.928590569663047,-0.15842590821080996,0.00008400250226259232,-0.0006567835807800293,2.7420038749575615,-0.0014187097549438477
1745973585501930200,6.04693017578125,-0.32249049635300664,-0.002749202772974968,-0.13996105405577436,0.017179427668452263,-0.10173184873881552,0.9721156075652932,-0.2548776766379057,left,0.001207590103149414,-0.28302049910156424,-2.984369739036262,-8.931075956737995,-0.15828068274575569,0.006317220162600279,0.001452118158340454,2.738577115379274,0.004733651876449585
1745973585541930200,6.08693017578125,-0.32179011670998314,0.033788926899433136,-0.1396959826134231,0.004203989170491695,-0.10143073796261397,0.9722154063669931,-0.2541084825617347,left,0.006390571594238281,-0.2828219465394044,-2.978285742947459,-8.933679417234659,-0.15809537828315334,0.011354997754096985,-0.002804875373840332,2.7367072298541664,0.007867485284805298
1745973585581930200,6.12693017578125,-0.3212665268590386,0.05582717806100845,-0.13953353918185657,0.0051936255767941475,-0.10051912535299108,0.9723016048677184,-0.2522780078825599,left,-0.0004572272300720215,-0.28354489020665724,-2.972982375842333,-8.933357930195331,-0.15829055416362822,-0.01906677521765232,-0.0011215806007385254,2.743514571781456,0.006384074687957764
1745973585621930200,6.16693017578125,-0.3207678242837299,0.033492311835289,-0.1392927325829035,0.003965658135712147,-0.09964289088098872,0.972314060197412,-0.25069999267672033,left,-0.00026363134384155273,-0.28524835527506304,-2.9670488941401243,-8.930391481605172,-0.15897890065448117,-0.027097243815660477,0.00018155574798583984,2.7595488839983937,-0.005711674690246582
1745973585661930000,6.206929931640625,-0.3205638727575972,0.002133730798959732,-0.13914769365769447,0.0030949367210268974,-0.09937795845228284,0.9722839726506978,-0.2503120146842953,left,-0.00035887956619262695,-0.2863101027863707,-2.9643025180414315,-8.928210630434751,-0.15945490269089926,-0.011846748180687428,0.000003516674041748047,2.7695386553540824,-0.006399273872375488
1745973585701930000,6.246929931640625,-0.3205638727575972,-0.005443610716611147,-0.13914769365769447,0.0006642348598688841,-0.09937795845228284,0.9722839726506978,-0.2503120146842953,left,0.002388298511505127,-0.2863101027863707,-2.9643025180414315,-8.928210630434751,-0.15945490269089926,-0.00963887944817543,0.0007890164852142334,2.7695386553540824,0.00005885958671569824
1745973585741930200,6.28693017578125,-0.3205638727575972,-0.0034522132482379675,-0.13914769365769447,0.0026733677368611097,-0.09937795845228284,0.9722839726506978,-0.2503120146842953,left,0.00032508373260498047,-0.2863101027863707,-2.9643025180414315,-8.928210630434751,-0.15945490269089926,-0.002114430069923401,-0.0005785822868347168,2.7695386553540824,0.0004337728023529053
1745973585781930200,6.32693017578125,-0.32058415798151785,-0.004340721294283867,-0.1391111548496914,-0.005607575178146362,-0.09965596174621431,0.9722535188726267,-0.2508883142434415,left,0.00456613302230835,-0.28631627550668676,-2.9644784591302273,-8.928134642589091,-0.15949898474349827,0.0034163896925747395,-0.0004311800003051758,2.769596815282106,0.0013829171657562256
1745973585821930200,6.36693017578125,-0.32058415798151785,0.0004627807065844536,-0.1391111548496914,0.0011455356143414974,-0.09965596174621431,0.9722535188726267,-0.2508883142434415,left,0.0008828043937683105,-0.28631627550668676,-2.9644784591302273,-8.928134642589091,-0.15949898474349827,-0.00578295299783349,0.0002643167972564697,2.769596815282106,0.001565396785736084
1745973585861930200,6.40693017578125,-0.32058415798151785,-0.004346881061792374,-0.1391111548496914,-0.004657324869185686,-0.09965596174621431,0.9722535188726267,-0.2508883142434415,left,0.007942616939544678,-0.28631627550668676,-2.9644784591302273,-8.928134642589091,-0.15949898474349827,0.013564273715019226,-0.002949833869934082,2.769596815282106,-0.005609005689620972
1745973585901930000,6.446929931640625,-0.32058415798151785,0.003802085295319557,-0.1391111548496914,0.02060038223862648,-0.09965596174621431,0.9722535188726267,-0.2508883142434415,left,-0.003782927989959717,-0.28631627550668676,-2.9644784591302273,-8.928134642589091,-0.15949898474349827,0.024217955768108368,-0.0008452236652374268,2.769596815282106,0.0046866536140441895
1745973585941930000,6.486929931640625,-0.3187638873153179,0.0027702213265001774,-0.13838343837895328,0.03193097561597824,-0.09959129217391181,0.9724989892546794,-0.2502032595818068,left,0.006456494331359863,-0.2848943817905168,-2.949453031694889,-8.937246754327417,-0.15867351343244965,0.027108101174235344,-0.0025552213191986084,2.75621769374907,-0.00015524029731750488
1745973585981930200,6.52693017578125,-0.3179424258792572,0.0016960564535111189,-0.13808945783283458,0.013041580095887184,-0.09957255777536056,0.9726373162720666,-0.2498412489130146,left,0.0006695389747619629,-0.2838286636559034,-2.9430270903006193,-8.942451337233186,-0.15809233719187138,0.022500192746520042,-0.0020269453525543213,2.7461864213392135,0.005259335041046143
1745973586021930200,6.56693017578125,-0.317322081525168,0.006926059722900391,-0.13792869081811343,-0.00629379041492939,-0.09937161845553226,0.9727854840677437,-0.24911992305491018,left,0.006929457187652588,-0.28265954445513203,-2.9384789254769683,-8.947319820052385,-0.15744634215377754,0.04438794031739235,-0.0010074377059936523,2.735178120590746,-0.000022143125534057617
1745973586061930200,6.60693017578125,-0.31745172449888837,0.01514971349388361,-0.13817524181674734,-0.011651270091533661,-0.09898712417596509,0.9729124563073155,-0.24809539388495527,left,0.00380706787109375,-0.2812209623936126,-2.9408640670478343,-8.95066737691462,-0.15668624268064968,0.04314781352877617,-0.0019254982471466064,2.721627441883087,0.0011658668518066406
1745973586101930200,6.64693017578125,-0.317748008523895,0.0073783244006335735,-0.13849210610661447,-0.015375752002000809,-0.09853260836678188,0.9730177317727292,-0.24699358736743293,left,0.0027962327003479004,-0.2800070835248471,-2.944545678170025,-8.952927723062038,-0.15603746119293246,0.03340737149119377,-0.0028657615184783936,2.7101889330238103,-0.0036861300468444824
1745973586141930000,6.686929931640625,-0.3181523001821423,-0.002533095423132181,-0.13877481797156258,-0.004105977714061737,-0.09839500021848369,0.9730551814993779,-0.24663142542243105,left,-0.0016887187957763672,-0.27919444421121836,-2.9488530199751257,-8.953824964162706,-0.15563910323787933,0.009937053546309471,-0.0005543231964111328,2.7025290659204124,-0.0018676817417144775
1745973586181930000,6.726929931640625,-0.31808619352430295,-0.006744431797415018,-0.1387403562939524,0.012104419991374016,-0.09855731724449387,0.9730620574382391,-0.24690677238447775,left,-0.002230405807495117,-0.2789253744094899,-2.948488570576906,-8.954710514825582,-0.15552475134065513,0.0021839309483766556,-0.0015096068382263184,2.6999925331801173,-0.00047326087951660156
1745973586221930200,6.76693017578125,-0.31808619352430295,0.0042967055924236774,-0.1387403562939524,0.009691467508673668,-0.09855731724449387,0.9730620574382391,-0.24690677238447775,left,0.0019525885581970215,-0.2789253744094899,-2.948488570576906,-8.954710514825582,-0.15552475134065513,0.017106253653764725,-0.0005443692207336426,2.6999925331801173,0.0014556348323822021
1745973586261930200,6.80693017578125,-0.31719574400941947,0.0192605871707201,-0.13843662150524425,0.007298605982214212,-0.09838174463238077,0.9732199997456401,-0.2462148654305471,left,0.005331635475158691,-0.27785764798491575,-2.9414111795365807,-8.96006648890078,-0.15491634453758502,0.022174324840307236,0.00001633167266845703,2.689924728152156,0.003170698881149292
1745973586301930200,6.84693017578125,-0.3165704825146759,0.018229922279715538,-0.13821583212682714,0.017781181260943413,-0.09791749102769161,0.9733164879693363,-0.24515736690410017,left,-0.00006008148193359375,-0.2778349664409056,-2.935827241924405,-8.961961508867144,-0.1548015388376828,-0.006124099716544151,0.00017178058624267578,2.6897107931405304,0.0005623400211334229
1745973586341930200,6.88693017578125,-0.3155621036767782,-0.014402126893401146,-0.13767284736633634,0.02382895164191723,-0.09787785263683692,0.9733414424685809,-0.24506375674628791,left,-0.0036062002182006836,-0.27867749923863155,-2.9260841388061642,-8.962759965768456,-0.1551534964332868,-0.016498198732733727,-0.00019052624702453613,2.6976556146651505,-0.007415980100631714
1745973586381930200,6.92693017578125,-0.31504507709875296,-0.045634496957063675,-0.13731406379136787,0.021905522793531418,-0.09862034626347058,0.9733099109035331,-0.24649698603094655,left,0.004701018333435059,-0.2786204768332104,-2.9214973955377936,-8.964418254369496,-0.15519903035527885,0.0013907738029956818,0.0005632936954498291,2.6971178545266388,-0.006930291652679443
1745973586421930000,6.966929931640625,-0.3143017406709633,-0.018571501597762108,-0.13692784704045405,0.03139559179544449,-0.09934237796828811,0.9733576838773724,-0.24769356826882966,left,-0.003378748893737793,-0.27765962888052925,-2.915632887418568,-8.969047667735815,-0.1547792493141342,0.02760886214673519,-0.0017044544219970703,2.688057180714607,0.0009782016277313232
1745973586461930000,7.006929931640625,-0.31332543653958583,0.017065925523638725,-0.13663082257012302,0.004401233047246933,-0.09932597761302518,0.9735629850744444,-0.24716638831670298,left,0.005312144756317139,-0.27572427023666624,-2.908473078791797,-8.976822393390536,-0.1537578493821369,0.05303339287638664,-0.0014369785785675049,2.6697999317511916,-0.00002828240394592285
1745973586501930200,7.04693017578125,-0.31274119923731786,0.04498225450515747,-0.13657987424504225,-0.005071607418358326,-0.09848038136482433,0.9737668757548512,-0.24514397737858695,left,0.002537369728088379,-0.2746156034414414,-2.904136803153157,-8.981330810725689,-0.15305400481155093,0.02497141808271408,0.0020777881145477295,2.659336405403912,0.00036275386810302734
1745973586541930200,7.08693017578125,-0.31260919980198937,0.027295755222439766,-0.13660649173752326,-0.014958394691348076,-0.09763469848639378,0.9738274533364358,-0.24347738982281475,left,0.0027570724487304688,-0.27513840678186036,-2.9025232304766773,-8.980389730483292,-0.1531868950557383,-0.01923072710633278,0.0019003450870513916,2.664270939196646,-0.006793975830078125
1745973586581930200,7.12693017578125,-0.3136171154017703,0.001897742971777916,-0.13697025574668278,-0.021594902500510216,-0.09744128056178443,0.9736542850540048,-0.24354266614082193,left,0.0016463398933410645,-0.27687900119184206,-2.910138381655514,-8.973035276067256,-0.15408342235075745,-0.05589133873581886,-0.0008164942264556885,2.68069425073117,-0.004465550184249878
1745973586621930200,7.16693017578125,-0.3136679315385912,0.000824690330773592,-0.13682297882365552,0.02551439218223095,-0.09760329430265953,0.9735176432503166,-0.24418765024361666,left,-0.009630858898162842,-0.27861896570300515,-2.9091508319228887,-8.968436842361092,-0.15497247736340625,-0.04959563910961151,0.00022083520889282227,2.6971035337403415,0.00011181831359863281
1745973586661930000,7.206929931640625,-0.3133557969369449,-0.007271523121744394,-0.13652798431925695,-0.002169111743569374,-0.09782074984868765,0.9734295935484601,-0.24481823918692658,left,0.008038699626922607,-0.27995515225677015,-2.9052377501323816,-8.965908200666307,-0.155647151437499,-0.03964582458138466,-0.005605459213256836,2.7096993959411977,0.003046780824661255
1745973586701930000,7.246929931640625,-0.3138192274138722,-0.00845610536634922,-0.13659901118160034,-0.0006272169994190335,-0.09807496030715875,0.9732820549956225,-0.24563903424438044,left,0.0009582042694091797,-0.28123611195499576,-2.908318472751975,-8.961251899293064,-0.15634588806170915,-0.031922873109579086,-0.00447651743888855,2.7217700652241703,0.005190640687942505
1745973586741930200,7.28693017578125,-0.3141230368912743,-0.01302475854754448,-0.13664064735246423,0.002358703874051571,-0.09838463900599884,0.9731855111461396,-0.24643322235927553,left,0.005500316619873047,-0.28185741955957794,-2.9105180286228656,-8.958757744389771,-0.1567157196779801,-0.007308382540941238,-0.005287230014801025,2.727623175166547,0.0031136274337768555
1745973586781930200,7.32693017578125,-0.3141230368912743,0.018284477293491364,-0.13664064735246423,0.01378190889954567,-0.09838463900599884,0.9731855111461396,-0.24643322235927553,left,0.003393888473510742,-0.28185741955957794,-2.9105180286228656,-8.958757744389771,-0.1567157196779801,-0.010555488057434559,-0.0018700361251831055,2.727623175166547,0.012240946292877197
1745973586821930200,7.36693017578125,-0.313656529981526,0.029341239482164383,-0.13640965790331633,-0.0006400682032108307,-0.0979715851475915,0.973201226837152,-0.24566752842567666,left,0.00637286901473999,-0.2827607424212529,-2.9055767728284,-8.957767564308643,-0.15707766850258303,0.011852663941681385,-0.0025700032711029053,2.7361308912709355,0.003918200731277466
1745973586861930200,7.40693017578125,-0.3131816740989051,0.03606407716870308,-0.13631471728666006,0.0023343039210885763,-0.09727007616482901,0.973321397499874,-0.24411413417264122,left,0.00363314151763916,-0.2825593779231566,-2.9014924261242148,-8.959670183059572,-0.15685113441401694,0.03266986459493637,-0.0008513927459716797,2.734234702260792,-0.0013416707515716553
1745973586901930000,7.446929931640625,-0.3127083812468923,0.023002183064818382,-0.13624365335228517,0.005681621842086315,-0.09659251575793296,0.9734607435935267,-0.24255364155511458,left,-0.0017625093460083008,-0.28203173326707276,-2.897695079667866,-8.962413928809761,-0.1564664633926788,0.029100952669978142,-0.0005989968776702881,2.7292650971546766,-0.005277723073959351
1745973586941930000,7.486929931640625,-0.3121883029076712,0.009304857812821865,-0.1360941933622166,0.009642994031310081,-0.09627006074315568,0.9735690787109812,-0.24171295406411694,left,-0.0012117624282836914,-0.2814881603156669,-2.8934888601496813,-8.965330108517408,-0.15612099118597034,0.008445044979453087,0.00043699145317077637,2.724144685401022,-0.004755288362503052
1745973586981930200,7.52693017578125,-0.3121883029076712,0.008042086847126484,-0.1360941933622166,0.010458985343575478,-0.09627006074315568,0.9735690787109812,-0.24171295406411694,left,-0.004878103733062744,-0.2814881603156669,-2.8934888601496813,-8.965330108517408,-0.15612099118597034,-0.006134276278316975,0.00233614444732666,2.724144685401022,-0.002236485481262207
1745973587021930200,7.56693017578125,-0.3120389591286147,0.01694599539041519,-0.13602843292605024,-0.014832668006420135,-0.09597554786062899,0.9735750849547825,-0.2411721165488099,left,0.0011131763458251953,-0.28199451246176205,-2.8917259421303867,-8.96444806498587,-0.15632217078699534,-0.014536182396113873,0.0033219456672668457,2.728914384020865,-0.0031338632106781006
1745973587061930200,7.60693017578125,-0.3125906458920124,0.026658451184630394,-0.13628145390496352,-0.022656742483377457,-0.0955364953159482,0.9735116421867265,-0.24052452957819473,left,0.0018351078033447266,-0.2829457182315725,-2.8958716636329886,-8.960377454546093,-0.15676502248719332,-0.02331673912703991,-0.000011265277862548828,2.7378727665022016,-0.0021468698978424072
1745973587101930200,7.64693017578125,-0.31310462759049,0.03818931430578232,-0.13650680358395595,-0.019474977627396584,-0.0948899147153079,0.9734350249170595,-0.23953634563439916,left,0.000577092170715332,-0.28442037905127066,-2.899230034150183,-8.955037262561916,-0.15743598399203632,-0.03330852463841438,-0.0027184784412384033,2.751756330426037,-0.0012696385383605957
1745973587141930000,7.686929931640625,-0.3130282897757701,0.04740126430988312,-0.13642047275582136,0.002588275820016861,-0.09412592217536363,0.973370741183462,-0.2383201883570348,left,-0.0007570981979370117,-0.28651639604485846,-2.8967639362975954,-8.949750846591591,-0.1583639959457066,-0.04891807585954666,-0.0024871528148651123,2.7714795602887867,0.0009019076824188232
1745973587181930000,7.726929931640625,-0.312517362263044,0.039775192737579346,-0.13609465344897775,0.01667511835694313,-0.09342535516048742,0.9733112661233485,-0.23721426834726483,left,-0.001996457576751709,-0.28890603983434443,-2.8901462717235087,-8.944902237516642,-0.15942133161702693,-0.04936134070158005,-0.002917051315307617,2.793950627554953,-0.0029438436031341553
1745973587221930200,7.76693017578125,-0.3120380804760711,0.02588992938399315,-0.13576760750376202,0.004165327176451683,-0.09292752104085504,0.9732417436073344,-0.23649528722324611,left,0.002288997173309326,-0.2911018522730774,-2.883968459871411,-8.940426553407312,-0.16041286296866378,-0.04942231625318527,-0.0008716583251953125,2.814584834782779,-0.0022939443588256836
1745973587261930200,7.80693017578125,-0.3113518009607586,0.014845085330307484,-0.13534766330031026,0.03220685198903084,-0.09267160455190246,0.9732010684141211,-0.2361448267702582,left,-0.004886507987976074,-0.29276096272996993,-2.8763977323561907,-8.937945842507482,-0.16116021031908084,-0.03457124903798103,0.0019555389881134033,2.830166727057099,-0.004041552543640137
1745973587301930200,7.84693017578125,-0.31044357664529604,-0.001441669650375843,-0.13481447846653835,0.005864357575774193,-0.09269898676236467,0.9731824932830988,-0.23625781503059232,left,0.00724184513092041,-0.293954304582724,-2.867244996346533,-8.9373326790452,-0.16170322679115492,-0.03335453197360039,-0.0015040338039398193,2.841369673594832,-0.0025323033332824707
1745973587341930200,7.88693017578125,-0.3109771568091437,0.002049157163128257,-0.13496316026227956,-0.022179825231432915,-0.09280296486631254,0.9730585134757476,-0.23674130825352369,left,0.005829215049743652,-0.29499584584599564,-2.871106347949803,-8.932979160010815,-0.1622645677955355,-0.02084788680076599,0.002729177474975586,2.8511440486341715,0.0011661350727081299
1745973587381930200,7.92693017578125,-0.3124234496268474,0.0711079016327858,-0.1356450811369449,-0.05934809148311615,-0.09207057334281289,0.9729122459889281,-0.23573864402463374,left,0.008742868900299072,-0.29649345078039624,-2.8827073538944123,-8.924743831107019,-0.16298813400520085,-0.03658391535282135,0.002827554941177368,2.8651927399918433,0.020144641399383545
1745973587421930000,7.966929931640625,-0.3142034427300801,0.08423196524381638,-0.13660483827852707,-0.06751209497451782,-0.09024618798912884,0.9727856066488599,-0.23268480810613484,left,0.0015392899513244629,-0.29876449596916876,-2.896570167291164,-8.9133871553123,-0.16395996660408443,-0.025230824947357178,-0.0007526576519012451,2.8864851188674567,0.00022998452186584473
1745973587461930000,8.006929931640625,-0.3156797574349835,0.06148961931467056,-0.13737264928674797,-0.043635182082653046,-0.08864618302596065,0.9726450972486501,-0.23007171705124863,left,-0.0005123615264892578,-0.30119275716337895,-2.9075413508996366,-8.902412172311545,-0.1650214469538471,-0.03657606244087219,-0.0030220448970794678,2.909234710814059,-0.001769721508026123
1745973587501930200,8.04693017578125,-0.3163679365699558,0.02447541430592537,-0.13765697420189177,-0.010386057198047638,-0.08782735816350228,0.9725077910465427,-0.22889101167229306,left,-0.0038747787475585938,-0.3033809399909927,-2.9116797658786178,-8.894337586927413,-0.16602876941851527,-0.04213374853134155,-0.0016914606094360352,2.9297204494819042,-0.0028641819953918457
1745973587541930200,8.08693017578125,-0.3169896206005858,-0.0019122697412967682,-0.13784192585107607,-0.012580472975969315,-0.08775270453211342,0.9723593127832975,-0.2291042166407154,left,0.0023403167724609375,-0.3048535523874109,-2.9158605586946007,-8.888416964706778,-0.166782732833033,-0.029596922919154167,-0.0025489628314971924,2.9434990917265416,0.001679927110671997
1745973587581930200,8.12693017578125,-0.31732358736144956,0.0003364509902894497,-0.13793609883597438,-0.001535467803478241,-0.08781938145394154,0.9722815979330874,-0.22941021296091646,left,-0.0004165172576904297,-0.3054830459597684,-2.9182500841796397,-8.885680233219265,-0.16712278547930562,-0.008373059332370758,-0.0018193423748016357,2.9493869807213544,0.005775660276412964
1745973587621930200,8.16693017578125,-0.31732358736144956,-0.0017244394402951002,-0.13793609883597438,0.014923620969057083,-0.08781938145394154,0.9722815979330874,-0.22941021296091646,left,0.0011988282203674316,-0.3054830459597684,-2.9182500841796397,-8.885680233219265,-0.16712278547930562,0.0049552833661437035,-0.000532686710357666,2.9493869807213544,0.003143131732940674
1745973587661930000,8.206929931640625,-0.3164611245893599,-0.011727225035429,-0.13752192586467848,0.019909044727683067,-0.08805225610066643,0.9723555238290998,-0.22967087858725335,left,-0.00125199556350708,-0.3050865104013884,-2.9109491135165095,-8.889304853457212,-0.1669111325461145,0.008563592098653316,-0.000058084726333618164,2.945678189331293,0.00019720196723937988
1745973587701930000,8.246929931640626,-0.3164611245893599,-0.009199962019920349,-0.13752192586467848,0.0059562912210822105,-0.08805225610066643,0.9723555238290998,-0.22967087858725335,left,0.0057375431060791016,-0.3050865104013884,-2.9109491135165095,-8.889304853457212,-0.1669111325461145,-0.0043278643861413,0.004129290580749512,2.945678189331293,0.0024403631687164307
1745973587741930200,8.28693017578125,-0.31615110222840903,0.009080680087208748,-0.13731411481916114,-0.009877611882984638,-0.08826387247798827,0.9723376331733885,-0.23010678276294322,left,0.0029607415199279785,-0.3053913398110451,-2.907913983604312,-8.889352784252166,-0.1670747744642504,-0.0130716348066926,0.0012787878513336182,2.9485294871091843,0.002159416675567627
1745973587781930200,8.32693017578125,-0.316457763142064,0.013824056833982468,-0.1374322876112447,-0.018183473497629166,-0.08805074077225619,0.9722773527990172,-0.22985616955593047,left,0.0023879408836364746,-0.3061552292902235,-2.9099378906473516,-8.886317946600913,-0.16744034767775143,-0.015170450322329998,0.00027683377265930176,2.9556732213839885,-0.001091688871383667
1745973587821930200,8.36693017578125,-0.3168761001778954,0.012159042991697788,-0.1376049701655325,-0.02773343026638031,-0.08769885350754086,0.9722010487353322,-0.2293870558571731,left,0.006610870361328125,-0.3071869879210705,-2.912703263707459,-8.882197067278623,-0.16792519604744974,-0.016143277287483215,-0.002541273832321167,2.9653192938685415,-0.0026853978633880615
1745973587861930200,8.40693017578125,-0.3174499500884893,0.0053349994122982025,-0.13786899927920235,-0.005370002239942551,-0.08746366519297998,0.9721361698376066,-0.2291036415817724,left,-0.0040285587310791016,-0.30775802393329516,-2.9172710100144146,-8.878913807824253,-0.16820679479539788,-0.0023508453741669655,-0.0049134790897369385,2.9706565632432698,-0.004690229892730713
1745973587901930000,8.446929931640625,-0.3173347982097742,0.006151094101369381,-0.1378058263289127,0.0006302716210484505,-0.08734752467862851,0.9721295354279805,-0.22890692274999666,left,0.005385220050811768,-0.3081083960446714,-2.915923687058687,-8.878260896873474,-0.16835752721128716,-0.0163511261343956,-0.0028065741062164307,2.973930762608349,0.002055734395980835
1745973587941930000,8.486929931640624,-0.31758833927057034,0.015824414789676666,-0.13787999294155567,-0.007725220173597336,-0.08716234079145393,0.9720571992235266,-0.22873609855883684,left,0.00548398494720459,-0.30904509913697353,-2.9173031587183473,-8.87487066991329,-0.1688095101196482,-0.029448898509144783,-0.0033298134803771973,2.9826828088626263,0.004106611013412476
1745973587981930200,8.52693017578125,-0.317494028328085,0.024855950847268105,-0.13778663165227734,0.007135168649256229,-0.08681825807854653,0.9719972849255605,-0.22824512527616514,left,-0.00035840272903442383,-0.31035989830543587,-2.915239504186809,-8.871412638413906,-0.16940692927746523,-0.02510542795062065,-0.0014880597591400146,2.9949633215039966,0.002889275550842285
1745973588021930200,8.56693017578125,-0.3174746759902383,0.020173879340291023,-0.13774107542763253,-0.005413474515080452,-0.08644030307772649,0.9719398135698015,-0.227683904837101,left,0.0024483203887939453,-0.31159843551520156,-2.9139076710611582,-8.867938240301608,-0.16996590009151946,-0.020503509789705276,0.00004303455352783203,3.0065266257867216,0.0033028721809387207
1745973588061930200,8.60693017578125,-0.3177695686298303,0.01125430129468441,-0.13786384294940174,-0.008874601684510708,-0.08609617945372806,0.9718784668735656,-0.22719155450122525,left,0.002380847930908203,-0.31252265097772336,-2.915653053423762,-8.864435200616716,-0.17039124749663553,-0.0088031692430377,0.0012988746166229248,3.0151521230518816,0.000958174467086792
1745973588101930200,8.64693017578125,-0.318457186390814,-0.0014629382640123367,-0.1381848128589693,-0.010704364627599716,-0.08596278360465992,0.9718138858369082,-0.22709417021760336,left,-0.0007431507110595703,-0.31284032764123426,-2.92144771117717,-8.86151785186529,-0.17056755866898604,0.00030090752989053726,-0.0018673539161682129,3.018116525815427,-0.00009515881538391113
1745973588141930000,8.686929931640625,-0.318457186390814,-0.002790936268866062,-0.1381848128589693,0.0035522310063242912,-0.08596278360465992,0.9718138858369082,-0.22709417021760336,left,-0.0010558366775512695,-0.31284032764123426,-2.92144771117717,-8.86151785186529,-0.17056755866898604,0.013410018756985664,-0.002795398235321045,3.018116525815427,-0.00008097290992736816
1745973588181930000,8.726929931640624,-0.318457186390814,-0.010094983503222466,-0.1381848128589693,0.012624772265553474,-0.08596278360465992,0.9718138858369082,-0.22709417021760336,left,-0.0006531476974487305,-0.31284032764123426,-2.92144771117717,-8.86151785186529,-0.17056755866898604,0.013623375445604324,-0.0014434754848480225,3.018116525815427,-0.0006045699119567871
1745973588221930200,8.76693017578125,-0.31778690636865253,-0.00957745686173439,-0.1379130261043258,0.022207723930478096,-0.08620777414524802,0.971922293276165,-0.2272940059392071,left,0.0029608607292175293,-0.3117897251883404,-2.91649651851058,-8.86648102723062,-0.1700449277895687,0.004906967282295227,-0.0001672804355621338,3.008312047898769,-0.00023344159126281738
1745973588261930200,8.80693017578125,-0.3173863399620011,-0.009093032218515873,-0.13771767363519433,0.0055698212236166,-0.08643852119913467,0.971963054670888,-0.22762633350374897,left,0.003403186798095703,-0.3113817123706131,-2.9133275330856443,-8.86881443861425,-0.1698533799296161,0.0053880843333899975,-0.00023874640464782715,3.0045035955265162,-0.0016082823276519775
1745973588301930200,8.84693017578125,-0.3173863399620011,0.002138204872608185,-0.13771767363519433,-0.0021922681480646133,-0.08643852119913467,0.971963054670888,-0.22762633350374897,left,0.004950344562530518,-0.3113817123706131,-2.9133275330856443,-8.86881443861425,-0.1698533799296161,-0.003637291956692934,0.0013547539710998535,3.0045035955265162,0.0032398998737335205
1745973588341930200,8.88693017578125,-0.3173863399620011,0.005559870041906834,-0.13771767363519433,-0.00898650661110878,-0.08643852119913467,0.971963054670888,-0.22762633350374897,left,0.0028791427612304688,-0.3113817123706131,-2.9133275330856443,-8.86881443861425,-0.1698533799296161,-0.004622616805136204,-0.00038427114486694336,3.0045035955265162,-0.0003523528575897217
1745973588381930200,8.92693017578125,-0.3173863399620011,0.0019325192552059889,-0.13771767363519433,-0.010975638404488564,-0.08643852119913467,0.971963054670888,-0.22762633350374897,left,0.0008208155632019043,-0.3113817123706131,-2.9133275330856443,-8.86881443861425,-0.1698533799296161,-0.0011178916320204735,-0.002053767442703247,3.0045035955265162,-0.002562969923019409
1745973588421930000,8.966929931640625,-0.3182136280100277,0.0014863007236272097,-0.13810289068012208,-0.024934731423854828,-0.08627503538577062,0.9718842381078795,-0.22750575493333056,left,0.007854282855987549,-0.3117822472655644,-2.9202868507042528,-8.865257622915506,-0.17007432343749682,-0.0078041632659733295,-0.0041023194789886475,3.008242197532952,-0.0005793571472167969
1745973588461930000,9.006929931640625,-0.3187362908004191,0.010814199224114418,-0.13835853110710505,-0.0033013690263032913,-0.08608376268431207,0.9718393559081738,-0.22725538448568966,left,-0.00005608797073364258,-0.31207289036516805,-2.92464592269659,-8.86289907709062,-0.17021995796683195,0.0003113360144197941,-0.0053622424602508545,3.010954963622987,-0.00032830238342285156
1745973588501930200,9.04693017578125,-0.3187362908004191,0.006601389963179827,-0.13835853110710505,0.002691596280783415,-0.08608376268431207,0.9718393559081738,-0.22725538448568966,left,0.0047757625579833984,-0.31207289036516805,-2.92464592269659,-8.86289907709062,-0.17021995796683195,0.005217445082962513,-0.003839433193206787,3.010954963622987,-0.003299623727798462
1745973588541930200,9.08693017578125,-0.3187362908004191,0.003335158806294203,-0.13835853110710505,0.005532905459403992,-0.08608376268431207,0.9718393559081738,-0.22725538448568966,left,0.002453327178955078,-0.31207289036516805,-2.92464592269659,-8.86289907709062,-0.17021995796683195,-0.00027185725048184395,-0.001437157392501831,3.010954963622987,0.002031773328781128
1745973588581930200,9.12693017578125,-0.3179317878093974,0.011898128315806389,-0.13798995187012478,0.009589115157723427,-0.08584725791526283,0.971893754475207,-0.22669466557983212,left,0.0015924572944641113,-0.31244900270159287,-2.917160535377264,-8.864172750288247,-0.17032834259780383,-0.005307207349687815,-0.003783196210861206,3.014465017570555,0.002214372158050537
1745973588621930200,9.16693017578125,-0.3179317878093974,0.015041233040392399,-0.13798995187012478,-0.003339809365570545,-0.08584725791526283,0.971893754475207,-0.22669466557983212,left,0.006864666938781738,-0.31244900270159287,-2.917160535377264,-8.864172750288247,-0.17032834259780383,0.0005903681740164757,-0.001881033182144165,3.014465017570555,0.0007563233375549316
1745973588661930000,9.206929931640625,-0.31769058680521695,0.025492381304502487,-0.13792120244455416,-0.0018807570450007915,-0.08520775117065894,0.9719068711044991,-0.22548152148909595,left,0.0010699033737182617,-0.3132661392837307,-2.9142519544541834,-8.862533166387676,-0.17062919232574777,-0.01284489780664444,-0.0013222098350524902,3.022089228838682,0.004165589809417725
1745973588701930000,9.246929931640626,-0.31750591768064973,0.02521161548793316,-0.13784751588772307,0.011120336130261421,-0.08468545437875655,0.9718946734246321,-0.22454385142812303,left,-0.003153860569000244,-0.31422144788235074,-2.91171249910444,-8.86032484268844,-0.17101827029056998,-0.013313310220837593,-0.0006267130374908447,3.0310005573078986,-0.001382380723953247
1745973588741930200,9.28693017578125,-0.31700063557001407,0.018552424386143684,-0.137597249148716,0.010079528205096722,-0.08430847102076298,0.9718933789800781,-0.22384932595884466,left,0.0030544400215148926,-0.3151815998015597,-2.906326714412868,-8.859025450527668,-0.17141301975232467,-0.01838579587638378,-0.0007784664630889893,3.039953971353173,-0.00018936395645141602
1745973588781930200,9.32693017578125,-0.3164692632466377,0.010592744685709476,-0.13730588091369259,0.015595657750964165,-0.08412725593000876,0.9718817721419261,-0.22354078409363026,left,-0.000616610050201416,-0.3160749950791258,-2.900772587417066,-8.857983832520246,-0.17180110636184984,-0.018321789801120758,0.00016561150550842285,3.0482822392374276,0.0003451108932495117
1745973588821930200,9.36693017578125,-0.3157712998726546,0.009041805751621723,-0.13693172138566062,0.017704231664538383,-0.08407317339526407,0.9718881652754671,-0.22342512485197033,left,-0.0007758140563964844,-0.3167488126718589,-2.8939506324425337,-8.85805163705945,-0.172089414212054,-0.013731623068451881,-0.0006925761699676514,3.054562050159275,-0.00017884373664855957
1745973588861930200,9.40693017578125,-0.31520779665571996,0.009715540334582329,-0.1366442137464461,0.010464847087860107,-0.08398459735170688,0.9719033015333949,-0.2232248610149229,left,-0.00010734796524047852,-0.31721251897785685,-2.888519255043566,-8.858333961132168,-0.1722760815024149,-0.007762559223920107,0.00046068429946899414,3.0588831282287834,-0.0002696216106414795
1745973588901930000,9.446929931640625,-0.31520779665571996,0.007272844202816486,-0.1366442137464461,0.002130369655787945,-0.08398459735170688,0.9719033015333949,-0.2232248610149229,left,0.002951681613922119,-0.31721251897785685,-2.888519255043566,-8.858333961132168,-0.1722760815024149,-0.012215109542012215,0.0029572248458862305,3.0588831282287834,-0.0021271109580993652
1745973588941930000,9.486929931640624,-0.3148929679515581,0.006160990335047245,-0.13641480970677947,0.0017813433660194278,-0.08385822630616253,0.971841091888635,-0.22313225224934713,left,0.0003554224967956543,-0.31847945606823197,-2.8845275550588965,-8.855550467893481,-0.17286872007285145,-0.03510762006044388,0.0013860762119293213,3.0706852097034454,0.0007751286029815674
1745973588981930200,9.52693017578125,-0.31488406663876206,-0.00009285053238272667,-0.136280918730372,-0.0013422624906525016,-0.08391089518715734,0.9717246487883762,-0.2234978001175959,left,0.0020495057106018066,-0.3199470121098825,-2.8830501759827136,-8.8512817045331,-0.1736022495613208,-0.03566088527441025,-0.0005298852920532227,3.0843498701795933,-0.0015563368797302246
1745973589021930200,9.56693017578125,-0.31500803750437956,0.004683398175984621,-0.1362359780235417,-0.012881227768957615,-0.08394145179682672,0.9716208538435903,-0.2237928124813658,left,0.005612194538116455,-0.3211368976056502,-2.883008382667601,-8.847428536236286,-0.17420232943165836,-0.022615965455770493,-0.001840442419052124,3.0954242219015953,0.0037502944469451904
1745973589061930200,9.60693017578125,-0.3156589789394473,0.007050832733511925,-0.13653321281304961,-0.01847277581691742,-0.08375545179711975,0.971547992821699,-0.22361729864366647,left,0.004456520080566406,-0.321649496404111,-2.8882737558498977,-8.844040647363663,-0.17446523317748902,0.012884203344583511,-0.004777878522872925,3.1001939205214377,0.0009332895278930664
1745973589101930200,9.64693017578125,-0.31605719255826975,-0.0012099817395210266,-0.13682495725801852,-0.00795335415750742,-0.08359202148754824,0.9716025395273072,-0.22319049403027455,left,0.006479501724243164,-0.3207349361532803,-2.8926754979401825,-8.845580862542986,-0.17401099668041295,0.027141116559505463,0.0023193061351776123,3.091683574068546,0.007319122552871704
1745973589141930000,9.686929931640625,-0.31695927356114884,-0.00337904691696167,-0.1372997718462146,-0.03216066583991051,-0.08355489963416239,0.9715783011135949,-0.2231807214143847,left,0.012816011905670166,-0.3201998378128074,-2.9011688932582733,-8.844538660013676,-0.17378958771992842,0.004329930990934372,0.002474457025527954,3.0867034475684165,0.017538011074066162
1745973589181930000,9.726929931640624,-0.31868125729911584,-0.009872027672827244,-0.13816618041785209,-0.050995416939258575,-0.0835152124450679,0.9714967085479576,-0.2232997019808409,left,0.0065615177154541016,-0.3195971838452949,-2.916977287764847,-8.841294563525915,-0.17357862388913567,0.03326170891523361,-0.0019597411155700684,3.0810932064712047,0.009599626064300537
1745973589221930200,9.76693017578125,-0.3208962909780484,-0.008730602450668812,-0.13937898756687347,-0.04851428419351578,-0.08339880248073883,0.9714762099257752,-0.22312848360265408,left,-0.0010023117065429688,-0.3177712190032021,-2.9383234426543114,-8.840136041140555,-0.1727773779150503,0.07038432359695435,-0.004556924104690552,3.0640882956564424,0.009289473295211792
1745973589261930200,9.80693017578125,-0.32196428965605506,-0.004856129176914692,-0.140138466073861,-0.01438487321138382,-0.08316355532799806,0.9716130455002218,-0.22236316206086493,left,-0.003510892391204834,-0.31515038825601666,-2.9502938664332032,-8.844580161067842,-0.17150257709593836,0.08289122581481934,-0.0019030272960662842,3.0396628794521092,0.006002485752105713
1745973589301930200,9.84693017578125,-0.3221349015786496,-0.02110510692000389,-0.14046021184779164,-0.0012968545779585838,-0.08316294507673967,0.9718220279237296,-0.2218622329778443,left,-0.0012562274932861328,-0.31220049291615865,-2.9546286807671187,-8.852543687292933,-0.17004948422861163,0.07728923112154007,-0.0033934414386749268,3.0121459269732234,-0.0024306774139404297
1745973589341930200,9.88693017578125,-0.32188392310463065,-0.03505624458193779,-0.14049128748456505,0.019224636256694794,-0.08356953401058609,0.9720081252606363,-0.22217077245808367,left,-0.0007433295249938965,-0.309499945961938,-2.954969457028806,-8.860969570332765,-0.1687557718937855,0.053368836641311646,-0.0010522305965423584,2.986931698478758,-0.003265678882598877
1745973589381930200,9.92693017578125,-0.32149899439821095,-0.029200930148363113,-0.1403550200375945,0.015941856428980827,-0.08419576411390477,0.9721236507359403,-0.22305476835468338,left,0.0004101991653442383,-0.3076140871055813,-2.9533330879986286,-8.867434966954589,-0.16789025832336524,0.031237099319696426,-0.0026969313621520996,2.969311286114156,-0.0011969506740570068
1745973589421930000,9.966929931640625,-0.32112857847486026,-0.016742326319217682,-0.1402502669254918,0.009346634149551392,-0.08462031824739921,0.9722448927583728,-0.22355015779825504,left,0.0014460086822509766,-0.30585760501626535,-2.9516899969667194,-8.873463141202926,-0.16706034429808317,0.041510362178087234,-0.002739459276199341,2.952890020406246,-0.0032921135425567627
1745973589461930000,10.006929931640625,-0.3209806671889599,0.000543300062417984,-0.1403091308316804,-0.00891665369272232,-0.08466358919493246,0.9723752089969907,-0.22331490937599538,left,0.0020151138305664062,-0.3041845973053257,-2.95193198902905,-8.878575369650125,-0.16622876248040516,0.0382668599486351,-0.003649115562438965,2.9372406158536672,-0.0020829439163208008
1745973589501930200,10.04693017578125,-0.3215666531642628,0.007452030666172504,-0.1407138666713537,-0.024007465690374374,-0.0844773438180289,0.9724325575434472,-0.2228197157107552,left,0.0014437437057495117,-0.3029973445074642,-2.9582343040436503,-8.880145979967713,-0.16564470839439055,0.026474211364984512,-0.0034108757972717285,2.9261303160354495,-0.004951179027557373
1745973589541930200,10.08693017578125,-0.3223809136671565,0.014892981387674809,-0.14121087100791757,-0.02104274369776249,-0.08416155404434393,0.9724494593896132,-0.22217881100769094,left,0.0016413331031799316,-0.30227096296888634,-2.9661364554703233,-8.879747920560837,-0.16528264073130244,0.015776438638567924,-0.0038996636867523193,2.9193305728927252,-0.0051132142543792725
1745973589581930200,10.12693017578125,-0.3230134528439911,0.02294941619038582,-0.14156658704910544,-0.014259982854127884,-0.08374943493696248,0.9724240806468368,-0.221467584651088,left,0.0008632540702819824,-0.30243191571318806,-2.971603488704562,-8.877424446049332,-0.16533674867185633,-0.011218758299946785,-0.0017354786396026611,2.9208374703243374,-0.0008480846881866455
1745973589621930200,10.16693017578125,-0.3233304752087281,0.013238874264061451,-0.1417148598871237,-0.010518630035221577,-0.08338682222191951,0.9723738029042173,-0.22091598629966355,left,-0.00043898820877075195,-0.3032134296617498,-2.9736916931554673,-8.8743147895962,-0.16568879421327198,-0.01526264101266861,-0.003708064556121826,2.928152761773765,-0.005792140960693359
1745973589661930000,10.206929931640625,-0.32339812161924697,0.0076863751746714115,-0.14172238042851684,0.00007727742195129395,-0.08322913999113608,0.9723358040522389,-0.22071729214498315,left,-0.00035375356674194336,-0.3038488326265647,-2.9737001687228677,-8.872347873437404,-0.16598473558438073,-0.011428242549300194,-0.0033125579357147217,2.9340991029575467,-0.004071086645126343
1745973589701930000,10.246929931640626,-0.32339812161924697,0.009381880052387714,-0.14172238042851684,0.020719725638628006,-0.08322913999113608,0.9723358040522389,-0.22071729214498315,left,-0.004328310489654541,-0.3038488326265647,-2.9737001687228677,-8.872347873437404,-0.16598473558438073,-0.007921703159809113,-0.002638876438140869,2.9340991029575467,-0.0002378225326538086
1745973589741930200,10.28693017578125,-0.32134850994973196,0.0046363589353859425,-0.140717645248497,0.05523781105875969,-0.08321828289735447,0.9724605822641682,-0.22043185578729016,left,-0.004531681537628174,-0.3043340687000695,-2.955058888877928,-8.87707256387174,-0.1661139174402993,-0.006665455177426338,-0.0007257759571075439,2.938639376735687,-0.0036318302154541016
1745973589781930200,10.32693017578125,-0.3196051710029724,-0.008750192821025848,-0.13980605896480158,0.04190573841333389,-0.08351721444375287,0.9725354890826865,-0.22083175659063642,left,0.0012944340705871582,-0.30480043925568573,-2.9391479107797145,-8.880908196511864,-0.16629482814168808,-0.02233739383518696,0.0014667510986328125,2.9430022481203078,-0.001178354024887085
1745973589821930200,10.36693017578125,-0.3179889428106082,-0.005224714986979961,-0.1389038238226898,0.04264850169420242,-0.08389432747293799,0.9725590423801879,-0.2214951163407322,left,-0.0000012516975402832031,-0.30572830697452924,-2.923935436339676,-8.883049300193786,-0.1667221528607739,-0.0326007641851902,0.0046668946743011475,2.9516809368774295,0.001252889633178711
1745973589861930200,10.40693017578125,-0.3171514332101232,-0.004205770790576935,-0.13837681902818064,0.011013466864824295,-0.08417144015115938,0.9725225002212566,-0.22210552493081315,left,0.00818091630935669,-0.3067706833219436,-2.915533518697321,-8.882567069634794,-0.16723336306778083,-0.027657486498355865,0.004680156707763672,2.961427547127008,0.0013078153133392334
1745973589901930000,10.446929931640625,-0.3169866789399944,0.0052890470251441,-0.13819415192232262,-0.0032875165343284607,-0.08423995394932889,0.9724441426099806,-0.2224213861428797,left,0.003807961940765381,-0.30792159391095464,-2.9130057537853715,-8.879802865618467,-0.16780479555282599,-0.03064398281276226,0.004707157611846924,2.9721850879848,0.00433841347694397
1745973589941930000,10.486929931640624,-0.3173306380656971,0.010150521993637085,-0.1382708913895412,-0.01871904730796814,-0.08413560431025498,0.9723321409035284,-0.22249201677623645,left,0.005051016807556152,-0.3091986709188297,-2.914873008961975,-8.875186896255611,-0.16844162721185718,-0.022643376141786575,0.0021212100982666016,2.984117517840862,0.0031322836875915527
1745973589981930200,10.52693017578125,-0.31789492244634543,0.010799710638821125,-0.1385216736709226,-0.010323986411094666,-0.08389583727080317,0.972257526362247,-0.22222076191223666,left,-0.0013362765312194824,-0.30989942039739693,-2.919226527996361,-8.87155175462365,-0.16878533940597168,-0.0026993397623300552,0.0013675391674041748,2.9906629939615725,0.003750532865524292
1745973590021930200,10.56693017578125,-0.31815509751162224,0.007472636643797159,-0.13867124773450065,-0.00830987747758627,-0.08366329380270021,0.9722454034798583,-0.22181698353249601,left,0.0013881921768188477,-0.3100652537679974,-2.921379322116077,-8.87032133604586,-0.1688484021909524,0.005354618653655052,-0.002618730068206787,2.992211684708297,0.0036893486976623535
1745973590061930200,10.60693017578125,-0.3184368455879803,-0.0011998838745057583,-0.13885930714011693,-0.004308215342462063,-0.08357066353895737,0.9722676969211536,-0.22158969172211615,left,-0.0009273290634155273,-0.3095824880720927,-2.9243302808761595,-8.870868448534607,-0.16861103642168868,0.021740764379501343,-0.003786802291870117,2.9877026828512547,0.00015413761138916016
1745973590101930200,10.64693017578125,-0.31849745759163767,-0.005273337475955486,-0.1389585772709142,0.004014819860458374,-0.0836039473016831,0.9723302877412524,-0.22150117196462923,left,-0.000718533992767334,-0.3086385621845482,-2.9257497922852633,-8.873365526047348,-0.1681510832580124,0.026618454605340958,-0.0036985278129577637,2.9788848778843877,0.0008844137191772461
1745973590141930000,10.686929931640625,-0.31853926280812767,-0.009496083483099937,-0.13904226805211975,-0.00032396242022514343,-0.0836921874121385,0.9723919839471081,-0.22151621021856702,left,0.005827903747558594,-0.30765954092453945,-2.9270328178331253,-8.876008734032512,-0.16768053095382635,0.019203979521989822,-0.0025486648082733154,2.9697359412670132,-0.0007612407207489014
1745973590181930000,10.726929931640624,-0.31853926280812767,-0.003944939933717251,-0.13904226805211975,0.0007447680691257119,-0.0836921874121385,0.9723919839471081,-0.22151621021856702,left,0.001864790916442871,-0.30765954092453945,-2.9270328178331253,-8.876008734032512,-0.16768053095382635,0.006539832800626755,-0.0030132532119750977,2.9697359412670132,-0.0005453824996948242
1745973590221930200,10.76693017578125,-0.31873197319972685,-0.0024859788827598095,-0.1391704272252715,-0.006459432188421488,-0.08374170741877927,0.9724148142692306,-0.22155081310897848,left,0.00580674409866333,-0.3070933284570216,-2.929269783104956,-8.877039830645918,-0.16741721968494605,0.004320905543863773,-0.0018658638000488281,2.964443680077791,-0.0023587942123413086
1745973590261930200,10.80693017578125,-0.31873197319972685,-0.0040191952139139175,-0.1391704272252715,-0.014742504805326462,-0.08374170741877927,0.9724148142692306,-0.22155081310897848,left,0.005781352519989014,-0.3070933284570216,-2.929269783104956,-8.877039830645918,-0.16741721968494605,-0.005140156485140324,-0.0016175806522369385,2.964443680077791,-0.002699524164199829
1745973590301930200,10.84693017578125,-0.31971584668701397,0.00048175035044550896,-0.1396390624668032,-0.007230676244944334,-0.08377087675523921,0.9723451275061605,-0.22175938748296325,left,0.00014483928680419922,-0.3069762331654899,-2.938111261208355,-8.87448313190043,-0.16741637086569564,0.0028820661827921867,-0.002911180257797241,2.963349162839353,-0.0025377273559570312
1745973590341930200,10.88693017578125,-0.32034042409548863,0.004988702945411205,-0.13996540737029328,-0.003398522734642029,-0.08373390894105921,0.9723233302015947,-0.22173511882218366,left,-0.0020139217376708984,-0.30666331565170163,-2.943945374189317,-8.873526269567012,-0.16728952134099698,0.001161392079666257,-0.001893073320388794,2.9604236307814715,-0.0004945993423461914
1745973590381930200,10.92693017578125,-0.32034042409548863,0.010024186223745346,-0.13996540737029328,0.0020945360884070396,-0.08373390894105921,0.9723233302015947,-0.22173511882218366,left,-0.002492845058441162,-0.30666331565170163,-2.943945374189317,-8.873526269567012,-0.16728952134099698,-0.024004891514778137,-0.0011230707168579102,2.9604236307814715,0.002423584461212158
1745973590421930000,10.966929931640625,-0.3200347020511473,0.007203860208392143,-0.13974915245061673,0.02810179814696312,-0.08359750363716636,0.9722714842828362,-0.2216120695271241,left,-0.006344616413116455,-0.30784295539623524,-2.940131661120057,-8.871104595378041,-0.16783844234379572,-0.01621629297733307,-0.0009918212890625,2.971450343969464,-0.0039206743240356445
1745973590461930000,11.006929931640625,-0.3194670586335288,0.0020722458139061928,-0.13941223754723883,0.00803479366004467,-0.08360788712823844,0.9722526777592876,-0.2216834202310599,left,0.00612407922744751,-0.30867474580857135,-2.934318298666179,-8.870422458332776,-0.16822180982155277,-0.01966921240091324,-0.0010313689708709717,2.9792227315366264,0.0028838515281677246
1745973590501930200,11.04693017578125,-0.3191312947216397,0.008829102851450443,-0.13920127697688828,0.013965976424515247,-0.08356064458425067,0.9722269152470421,-0.22166147824594729,left,-0.001428842544555664,-0.30942474103534423,-2.9306378565877673,-8.869283225169777,-0.1685687977244449,-0.011039752513170242,-0.0006331503391265869,2.9862293954282997,0.002515643835067749
1745973590541930200,11.08693017578125,-0.3191312947216397,0.008852092549204826,-0.13920127697688828,-0.006826241500675678,-0.08356064458425067,0.9722269152470421,-0.22166147824594729,left,0.005199015140533447,-0.30942474103534423,-2.9306378565877673,-8.869283225169777,-0.1685687977244449,0.007015513256192207,-0.00328102707862854,2.9862293954282997,0.0005914270877838135
1745973590581930200,11.12693017578125,-0.3192263582482148,0.014889703132212162,-0.1392818825038357,-0.003479510545730591,-0.08319364955396433,0.9722254621015021,-0.220984167524,left,0.0010417699813842773,-0.30976872447190307,-2.9311583733305335,-8.86802825667262,-0.16869189599963313,-0.005760799162089825,-0.0012066960334777832,2.989442219994962,0.003663092851638794
1745973590621930200,11.16693017578125,-0.3191748831772613,0.01378348283469677,-0.13924496694207802,-0.000016688602045178413,-0.08288121654898993,0.9721945383769395,-0.22047950425252053,left,0.0010476112365722656,-0.3105955132962434,-2.9299253244042394,-8.865829285323619,-0.16905427934546272,-0.017027083784341812,-0.0020578205585479736,2.997163461896777,0.0007810294628143311
1745973590661930000,11.206929931640625,-0.3192820139779295,0.00412358995527029,-0.13926495394374433,-0.004454273730516434,-0.08266509231162539,0.9721416799908621,-0.220203312831544,left,0.0033317208290100098,-0.3114378138088345,-2.9300816840097306,-8.863115350189805,-0.16944664874059842,-0.009826092049479485,-0.003127366304397583,3.0050273271396755,-0.001368403434753418
1745973590701930000,11.246929931640626,-0.3189300243702339,0.0006192938890308142,-0.1390616217585152,0.007974718697369099,-0.08263745061686324,0.9721319704230724,-0.22017792364934122,left,0.0023650527000427246,-0.311960179584552,-2.9264690464705225,-8.86265474694073,-0.16968282077150776,-0.011134471744298935,-0.0022955238819122314,3.009903116482496,-0.001495271921157837
1745973590741930200,11.28693017578125,-0.3189300243702339,-0.002934403717517853,-0.1390616217585152,0.009453163482248783,-0.08263745061686324,0.9721319704230724,-0.22017792364934122,left,0.0003465414047241211,-0.311960179584552,-2.9264690464705225,-8.86265474694073,-0.16968282077150776,-0.003676542080938816,-0.0012274980545043945,3.009903116482496,-0.002459883689880371
1745973590781930200,11.32693017578125,-0.31847493135195554,0.004854682367295027,-0.13881093640356734,0.013352110050618649,-0.08275973719049828,0.9721426878887179,-0.22038269039664293,left,-0.0016974806785583496,-0.31214394061000517,-2.9222622424304485,-8.86346021810472,-0.16976705052673885,-0.008548940531909466,0.0013281702995300293,3.0116181037068364,0.0034596920013427734
1745973590821930200,11.36693017578125,-0.31812349090523373,0.008551384322345257,-0.13861778413107903,0.008178995922207832,-0.0826928016635292,0.9721389913566727,-0.22026958129245194,left,-0.000565648078918457,-0.31262866905406306,-2.9186902291625736,-8.863098983576894,-0.1699789526917484,-0.01112771313637495,0.0007346868515014648,3.0161414263501762,0.0020279288291931152
1745973590861930200,11.40693017578125,-0.31812349090523373,0.0015399940311908722,-0.13861778413107903,0.0008926182053983212,-0.0826928016635292,0.9721389913566727,-0.22026958129245194,left,0.0014789104461669922,-0.31262866905406306,-2.9186902291625736,-8.863098983576894,-0.1699789526917484,-0.00689264852553606,0.0009589195251464844,3.0161414263501762,-0.00052681565284729
1745973590901930000,11.446929931640625,-0.3182537255837141,-0.003858325071632862,-0.13862014261253472,-0.0009419616544619203,-0.08267467981863724,0.9720728474654625,-0.2203913010845756,left,-0.0005093812942504883,-0.3133964123587274,-2.919118975968659,-8.860516565868258,-0.17036384715942413,-0.013065793551504612,0.0004343688488006592,3.023304742108285,0.0017204880714416504
1745973590941930000,11.486929931640624,-0.3182537255837141,0.0002992916852235794,-0.13862014261253472,-0.00155975844245404,-0.08267467981863724,0.9720728474654625,-0.2203913010845756,left,0.0017132163047790527,-0.3133964123587274,-2.919118975968659,-8.860516565868258,-0.17036384715942413,-0.006472236942499876,-0.0008201003074645996,3.023304742108285,0.0013193786144256592
1745973590981930200,11.52693017578125,-0.31861498685769946,0.010104361921548843,-0.1387446154837034,-0.001839643926359713,-0.08257695718989846,0.9719950623891314,-0.22039126803024658,left,0.0007265806198120117,-0.31417152938477116,-2.9215847815603015,-8.857233306413889,-0.17075337484930342,-0.00985136441886425,-0.0008606016635894775,3.0305349856227632,0.00497785210609436
1745973591021930200,11.56693017578125,-0.31876927343791767,0.01873912289738655,-0.13881119968551273,-0.005922215990722179,-0.08226119974647182,0.9719525541578188,-0.21990369149155778,left,0.0025003552436828613,-0.31493119404524395,-2.922228924682736,-8.854593605560064,-0.1710930231458604,-0.007713835686445236,-0.0004930198192596436,3.03761909866482,0.0022323429584503174
1745973591061930200,11.60693017578125,-0.31869381643634354,0.008864772506058216,-0.13878223610749144,-0.0006103524938225746,-0.08195236069410394,0.9719397005125634,-0.21935983185491081,left,0.001955270767211914,-0.31552156837359646,-2.920998506104946,-8.85310950448215,-0.1713374800684856,-0.003955167252570391,0.0009016692638397217,3.0431235412999986,0.0004005134105682373
1745973591101930200,11.64693017578125,-0.31869381643634354,-0.005967096425592899,-0.13878223610749144,0.004528225399553776,-0.08195236069410394,0.9719397005125634,-0.21935983185491081,left,-0.0013532638549804688,-0.31552156837359646,-2.920998506104946,-8.85310950448215,-0.1713374800684856,0.0017635710537433624,0.0005158782005310059,3.0431235412999986,-0.001979053020477295
1745973591141930000,11.686929931640625,-0.3182498272146858,-0.02396208420395851,-0.1385259847127595,0.0271599180996418,-0.08231289395025583,0.9719584989247434,-0.21998760753270563,left,-0.004053652286529541,-0.3153197540998513,-2.9172596118375655,-8.854988742357492,-0.17126524752384517,0.010136645287275314,0.0007276833057403564,3.0412419653370977,-0.0008546710014343262
1745973591181930000,11.726929931640624,-0.31790525524943325,-0.015046536922454834,-0.1383404323618135,0.005625855177640915,-0.08275472504735003,0.9719981661622125,-0.2207168804450873,left,0.005791127681732178,-0.3146480525697325,-2.91484612095505,-8.857931810072063,-0.17097690209778907,0.011638730764389038,0.0005850493907928467,3.0349788132891056,0.004372745752334595
1745973591221930200,11.76693017578125,-0.3176832072620505,0.017964139580726624,-0.13827989256221246,0.004957219120115042,-0.0827507229505449,0.9720558765147929,-0.22057490510549235,left,0.0023832321166992188,-0.31411385286021754,-2.913385108491778,-8.860117921939493,-0.17069971715586596,0.012026706710457802,-0.00035625696182250977,3.0299969332233068,0.01029101014137268
1745973591261930200,11.80693017578125,-0.3176896735450697,0.03702893853187561,-0.1383865660907997,-0.008143149316310883,-0.08215144820686747,0.9721046957289796,-0.21934653875437754,left,0.004987955093383789,-0.3141334602487408,-2.9134239791974426,-8.860042518615723,-0.17062450538751994,0.010647383518517017,-0.0017481744289398193,3.030179888574779,0.006943553686141968
1745973591301930200,11.84693017578125,-0.31783691622149646,0.03309713676571846,-0.13855224921509723,-0.0125393345952034,-0.08134880576776449,0.972119181795547,-0.2178191042055427,left,0.0028589963912963867,-0.31468696417449304,-2.914204023659229,-8.858018903833628,-0.17079230045140287,-0.004394439049065113,-0.0015771687030792236,3.035341801382601,0.004150390625
1745973591341930200,11.88693017578125,-0.3181817161508637,0.014687621966004372,-0.1387275460958413,-0.006006297655403614,-0.08086909192242159,0.9720655437095994,-0.21705033495341777,left,0.00212174654006958,-0.31557605215776746,-2.9164126396194097,-8.854446890565752,-0.17118273125060843,-0.010809221304953098,-0.0023754239082336426,3.0436314908221362,0.0006177425384521484
1745973591381930200,11.92693017578125,-0.3181817161508637,-0.00442873127758503,-0.1387275460958413,0.0027608033269643784,-0.08086909192242159,0.9720655437095994,-0.21705033495341777,left,-0.003230154514312744,-0.31557605215776746,-2.9164126396194097,-8.854446890565752,-0.17118273125060843,0.013104395009577274,-0.0024926066398620605,3.0436314908221362,-0.0035962462425231934
1745973591421930000,11.966929931640625,-0.31840433147201747,-0.013318869285285473,-0.13887898930285272,0.002308243652805686,-0.08097568896778999,0.972101206505258,-0.21716459816759243,left,0.0015413165092468262,-0.3147628017531096,-2.919157554413378,-8.856145511177182,-0.17080658718531672,0.02333247661590576,-0.0015618503093719482,3.036048780608177,-0.0019729435443878174
1745973591461930000,12.006929931640625,-0.3189144377408285,-0.015731938183307648,-0.13917413071710982,-0.0033774536568671465,-0.08122484318580497,0.9721339371215787,-0.21754903679666818,left,0.001968085765838623,-0.3135364580319857,-2.9248399839639663,-8.858184323528409,-0.17026121132061806,0.023568876087665558,-0.0008651912212371826,3.0246111485317346,-0.0029533207416534424
1745973591501930200,12.04693017578125,-0.3194658500414576,0.0017776396125555038,-0.1394733201298867,-0.008038248866796494,-0.08133870151952373,0.9721374322416262,-0.21774870530678467,left,0.000832676887512207,-0.31279904245643075,-2.9304236293151975,-8.85868467426598,-0.16994110431294746,0.006075737997889519,-0.0011597871780395508,3.0177313258901237,0.0025644004344940186
1745973591541930200,12.08693017578125,-0.31956648483607036,0.010357651859521866,-0.13955131555805403,-0.0031855865381658077,-0.08116751294776745,0.9721447237599429,-0.21741265069290264,left,0.0010726451873779297,-0.3127908227836215,-2.9313229162424803,-8.858413456109165,-0.16991775893294786,0.0003534918650984764,-0.0019874274730682373,3.017654753522575,-0.001409083604812622
1745973591581930200,12.12693017578125,-0.31956648483607036,0.007383097894489765,-0.13955131555805403,0.0003580495249480009,-0.08116751294776745,0.9721447237599429,-0.21741265069290264,left,-0.00100785493850708,-0.3127908227836215,-2.9313229162424803,-8.858413456109165,-0.16991775893294786,0.0013336234260350466,-0.0015613436698913574,3.017654753522575,-0.0015583336353302002
1745973591621930200,12.16693017578125,-0.31956648483607036,0.00280587887391448,-0.13955131555805403,-0.00026886811247095466,-0.08116751294776745,0.9721447237599429,-0.21741265069290264,left,0.0005623698234558105,-0.3127908227836215,-2.9313229162424803,-8.858413456109165,-0.16991775893294786,0.0016542202793061733,-0.0010579824447631836,3.017654753522575,-0.0013324618339538574
1745973591661930000,12.206929931640625,-0.31956648483607036,0.0011935479706153274,-0.13955131555805403,-0.0004897006438113749,-0.08116751294776745,0.9721447237599429,-0.21741265069290264,left,0.0018616318702697754,-0.3127908227836215,-2.9313229162424803,-8.858413456109165,-0.16991775893294786,0.0017671509413048625,-0.0012814700603485107,3.017654753522575,-0.00022783875465393066
1745973591701930000,12.246929931640626,-0.3196918372434556,0.0025073704309761524,-0.1396808973192766,-0.0033395991194993258,-0.08086510090273649,0.9721768021269716,-0.21677322943042146,left,0.0024189352989196777,-0.3125705777040815,-2.932642182147503,-8.858677075481415,-0.16977173919665867,0.00729192141443491,-0.00100669264793396,3.0155995745584367,-0.0008385777473449707
1745973591741930200,12.28693017578125,-0.3199585955889292,0.008839622139930725,-0.13987223711111924,-0.010332257486879826,-0.08061549556190362,0.9721976749111585,-0.21625731099001327,left,0.002079486846923828,-0.3122952327435206,-2.935266100910306,-8.858682336178422,-0.1696133441321709,0.010284856893122196,-0.0007271468639373779,3.0130300163313746,0.0012308061122894287
1745973591781930200,12.32693017578125,-0.32025486455722957,0.004675970412790775,-0.14009431862430655,-0.009284744039177895,-0.08034383093411666,0.9722300980701191,-0.21567202290086862,left,0.002729475498199463,-0.311856605174747,-2.9383061992585655,-8.859065198016166,-0.1693722742436818,0.017643900588154793,-0.0030387938022613525,3.0089363172769543,-0.0028530359268188477
1745973591821930200,12.36693017578125,-0.32044008332726526,0.002871147356927395,-0.14025438560496842,-0.00567208044230938,-0.08017011883544249,0.9722700966171466,-0.21525203915864452,left,0.0016505122184753418,-0.3113237039870298,-2.940451979115605,-8.860041934093832,-0.16909262108564888,0.013357270509004593,-0.002676665782928467,3.0039620359957215,-0.0014254450798034668
1745973591861930200,12.40693017578125,-0.32044008332726526,-0.004892952274531126,-0.14025438560496842,-0.00020699575543403625,-0.08017011883544249,0.9722700966171466,-0.21525203915864452,left,0.0005056858062744141,-0.3113237039870298,-2.940451979115605,-8.860041934093832,-0.16909262108564888,0.007740844041109085,-0.0019576847553253174,3.0039620359957215,-0.0034298300743103027
1745973591901930000,12.446929931640625,-0.32060931985346414,-0.004855629988014698,-0.14037025547429716,-0.002710182685405016,-0.08026381470333228,0.972298411775612,-0.21535719616709412,left,0.004112839698791504,-0.3106668630354,-2.9425723322704433,-8.861414976012707,-0.1687892034976389,0.005100864917039871,-0.001446843147277832,2.997829524590075,-0.0014556944370269775
1745973591941930000,12.486929931640624,-0.32060931985346414,0.0030158068984746933,-0.14037025547429716,0.0009753014892339706,-0.08026381470333228,0.972298411775612,-0.21535719616709412,left,0.0016936063766479492,-0.3106668630354,-2.9425723322704433,-8.861414976012707,-0.1687892034976389,0.004346661735326052,-0.0023522377014160156,2.997829524590075,-0.0016077756881713867
1745973591981930200,12.52693017578125,-0.32008290343595835,0.012726003304123878,-0.14017252946285427,0.028920387849211693,-0.080185654378533,0.9723800384640706,-0.21502255147119917,left,-0.0063585638999938965,-0.3102029185407231,-2.9383444854423404,-8.86428147135973,-0.16852028802405278,0.00512676453217864,0.00022113323211669922,2.9934973406046628,-0.0009279847145080566
1745973592021930200,12.56693017578125,-0.31937918141824473,0.006963442545384169,-0.1398479588002346,0.010398497804999352,-0.08011323377311759,0.9724352752197096,-0.2147633611045382,left,0.00375211238861084,-0.3102688471664891,-2.9320439239934086,-8.866160124713183,-0.16850581749803756,-0.011878034099936485,0.001685410737991333,2.994112842154503,-0.000415116548538208
1745973592061930200,12.60693017578125,-0.31937918141824473,0.011763950809836388,-0.1398479588002346,0.008296098560094833,-0.08011323377311759,0.9724352752197096,-0.2147633611045382,left,0.0005384683609008789,-0.3102688471664891,-2.9320439239934086,-8.866160124713183,-0.16850581749803756,-0.012345562689006329,0.001460641622543335,2.994112842154503,0.0012007951736450195
1745973592101930200,12.64693017578125,-0.3188948256606047,0.017410077154636383,-0.13961718269591336,-0.001654433086514473,-0.07976481418426232,0.9724420196071505,-0.21410305270043684,left,0.006308317184448242,-0.3110600758807603,-2.9270053453043103,-8.86532659649849,-0.168822963911903,-0.0016480935737490654,-0.0023781955242156982,3.001500906579196,0.002788454294204712
1745973592141930000,12.686929931640625,-0.31853820351047285,0.024442892521619797,-0.13947244513024207,0.005637803114950657,-0.07933290311935098,0.9724559125734433,-0.21326819789340476,left,0.0005934238433837891,-0.31171176620716884,-2.923230502940714,-8.864510603940486,-0.16906569482519904,-0.008246392011642456,-0.0017401278018951416,3.0075843181461095,0.005481451749801636
1745973592181930000,12.726929931640624,-0.31820404192458474,0.006284268572926521,-0.13932812965817362,0.002753667766228318,-0.07904739862249237,0.9724702630519092,-0.21270437598544198,left,0.004983186721801758,-0.3121724225090425,-2.919834430761635,-8.864169827678799,-0.16923594004085574,-0.0023201676085591316,-0.0026170015335083008,3.011883768905699,-0.001521468162536621
1745973592221930200,12.76693017578125,-0.31820404192458474,-0.003384064882993698,-0.13932812965817362,-0.0025733273942023516,-0.07904739862249237,0.9724702630519092,-0.21270437598544198,left,0.0014348030090332031,-0.3121724225090425,-2.919834430761635,-8.864169827678799,-0.16923594004085574,0.001577648799866438,-0.003163635730743408,3.011883768905699,0.00310516357421875
1745973592261930200,12.80693017578125,-0.31820404192458474,-0.004908513743430376,-0.13932812965817362,0.004918666556477547,-0.07904739862249237,0.9724702630519092,-0.21270437598544198,left,0.0029699206352233887,-0.3121724225090425,-2.919834430761635,-8.864169827678799,-0.16923594004085574,0.019045056775212288,-0.003009229898452759,3.011883768905699,-0.0012211203575134277
1745973592301930200,12.84693017578125,-0.3182265263067521,-0.008733770810067654,-0.13939495898117807,0.0004472159780561924,-0.07917034393869783,0.9725321067040127,-0.21278739270802727,left,0.0028160810470581055,-0.31118957115760343,-2.9209584663555024,-8.86691123534143,-0.16876727272611736,0.024889850988984108,-0.001366734504699707,3.002709697847068,-0.00036087632179260254
1745973592341930200,12.88693017578125,-0.3183003324338613,-0.004807114135473967,-0.13948000172397715,-0.0010684335138648748,-0.07926050778006145,0.9725814360792778,-0.21283805109548556,left,0.0018953680992126465,-0.31035475509518645,-2.9223963902041312,-8.86907338181138,-0.1683699491892798,0.015594941563904285,-0.0009105205535888672,2.9949150984480974,-0.0009189248085021973
1745973592381930200,12.92693017578125,-0.3183003324338613,0.0008156918920576572,-0.13948000172397715,-0.002749154344201088,-0.07926050778006145,0.9725814360792778,-0.21283805109548556,left,0.001434326171875,-0.31035475509518645,-2.9223963902041312,-8.86907338181138,-0.1683699491892798,0.004507373087108135,-0.0007657706737518311,2.9949150984480974,-0.0015114545822143555
1745973592421930000,12.966929931640625,-0.3183003324338613,0.0031770572531968355,-0.13948000172397715,0.0013199476525187492,-0.07926050778006145,0.9725814360792778,-0.21283805109548556,left,0.0011211037635803223,-0.31035475509518645,-2.9223963902041312,-8.86907338181138,-0.1683699491892798,-0.019125353544950485,0.00004655122756958008,2.9949150984480974,-0.0009950101375579834
1745973592461930000,13.006929931640625,-0.31836088212227576,-0.0019011709373444319,-0.13941879701799023,0.0024478277191519737,-0.07929965854195484,0.9724951046297202,-0.21311488467542053,left,0.0013712644577026367,-0.31140579623161746,-2.9219466006100174,-8.86590235055983,-0.1689000005964321,-0.03219538927078247,0.0001863241195678711,3.0047283441931008,-0.0013434886932373047
