time,seconds_elapsed,roll,rotationRateZ,quaternionY,rotationRateY,quaternionZ,quaternionW,yaw,devicelocation,accelerationZ,pitch,gravityX,gravityZ,quaternionX,rotationRateX,accelerationX,gravityY,accelerationY
1746233123596695300,0.2126953125,-0.7466767176489942,0.031857214868068695,-0.35776775475035555,0.0698511004447937,6.181589363341487e-17,0.9263551054268807,-0.08645223326100018,right,-0.22542601823806763,-0.21995188857459047,-6.500239971667527,-7.0241866888821125,-0.11776405707314318,-0.2838588356971741,0.5570183992385864,2.139641208153963,0.12655200064182281
1746233123636695300,0.2526953125,-0.38548854643277897,0.04116377234458923,-0.19560666838771518,0.05143166333436966,0.07203968929024186,0.9664745049869998,0.0851140119713401,right,-0.06355506181716919,-0.32358275601037134,-3.496048803091049,-8.61539321977496,-0.14991731525710206,-0.2767027020454407,0.24962091445922852,3.1181758596748113,0.023041367530822754
1746233123676695600,0.292695556640625,-0.21833495160022778,0.03016400709748268,-0.12181476167431918,0.03342018276453018,0.10386123117355153,0.9738238513863455,0.1741462068594042,right,-0.01343458890914917,-0.3464916385366188,-1.9979248989127576,-9.004860739395022,-0.1613722965422735,-0.22662127017974854,0.10692134499549866,3.330339185452461,0.010321736335754395
1746233123716695600,0.332695556640625,-0.16568329329633816,-0.0009610336273908615,-0.09859550040687697,0.04636688157916069,0.11330284441679009,0.9748245750508667,0.20199252495696804,right,-0.0009388923645019531,-0.3507902937072124,-1.5188791074372827,-9.083323450735211,-0.16479774288552113,-0.22296124696731567,0.06876702606678009,3.3699583713963626,0.024392038583755493
1746233123756695600,0.372695556640625,-0.11285468225173015,-0.032086070626974106,-0.07531302669727898,0.0593135803937912,0.12267193154200615,0.9752004601827404,0.23007846316855105,right,0.009443461894989014,-0.353703259227965,-1.0360140499345958,-9.141061353954672,-0.1681175375624349,-0.21930120885372162,0.030223257839679718,3.3967706827372313,0.03976824879646301
1746233123796695600,0.412695556640625,-0.10897161106573172,-0.12050221860408783,-0.07377799247039574,-0.015447430312633514,0.12045640853974776,0.9742854210678337,0.22571842271224057,right,-0.011233091354370117,-0.3680854265320089,-0.9950945950470864,-9.095508394047618,-0.17554183285923192,-0.420075386762619,0.016339413821697235,3.5287247457683084,0.03127673268318176
1746233123836695600,0.452695556640625,-0.10831291062767649,-0.060602426528930664,-0.07410078577997381,-0.11681399494409561,0.11944934700185958,0.9727875855134808,0.22319675395747163,right,-0.001173555850982666,-0.3855342960195062,-0.982296926663816,-9.033568947485088,-0.184188044862287,-0.43737661838531494,-0.0015222877264022827,3.687832773184776,0.035977452993392944
1746233123876695300,0.4926953125,-0.10769723515981683,-0.0007026307284832001,-0.074417796039931,-0.2181805670261383,0.11843298788638261,0.9712137382645427,0.22066927215188534,right,0.008599340915679932,-0.4029846823657011,-0.9696692080199718,-8.968818535155057,-0.19281988071799122,-0.45467787981033325,-0.019366666674613953,3.8458319625765083,0.04079124331474304
1746233123916695600,0.532695556640625,-0.1200034525474942,0.04959012195467949,-0.08089601918056077,-0.27313122153282166,0.11957784219634875,0.9695619364662902,0.22015654139812765,right,0.017929792404174805,-0.4145913592287634,-1.0745488747078924,-8.911288137206435,-0.19775384410154306,-0.1790614277124405,-0.01157919317483902,3.9502752106085417,0.024455904960632324
1746233123956695600,0.572695556640625,-0.1283770653267583,0.05678429827094078,-0.08535486265535534,-0.18414144217967987,0.12166717126915436,0.9687171837597328,0.22262800574853248,right,0.04025089740753174,-0.41787615432897646,-1.1474625736188142,-8.889060523307323,-0.19874247713705978,-0.061899080872535706,0.021911591291427612,3.9797377441972492,0.035981178283691406
1746233123996695600,0.612695556640625,-0.13675411908347085,0.06397847831249237,-0.08981150124241494,-0.09515166282653809,0.1237532797638772,0.9678473226717225,0.2250727365960825,right,0.06249344348907471,-0.42117976781882027,-1.220086495802924,-8.866063094079493,-0.1997259574166784,0.055263273417949677,0.05537279695272446,4.009325657731295,0.04749372601509094
1746233124036695600,0.652695556640625,-0.1324510997702128,0.04055207967758179,-0.08811749803159619,0.18941089510917664,0.12457547855467357,0.9675699476066688,0.2275372457234902,right,0.053279221057891846,-0.42411195412513714,-1.1803668451592326,-8.859539829790592,-0.20130690141251945,-0.0054729534313082695,0.05330570787191391,4.035550232312083,0.029833227396011353
1746233124076695600,0.692695556640625,-0.11923832782934031,-0.00032395124435424805,-0.08219489753145331,0.24363075196743011,0.1242333002546436,0.9673937136062745,0.2293836719400128,right,0.025995075702667236,-0.4298605277000824,-1.0604309905715286,-8.851181751289964,-0.2048397309638844,-0.012185927480459213,0.04029754549264908,4.08686307092011,0.00965029001235962
1746233124116695300,0.7326953125,-0.10597885937591991,-0.04119998216629028,-0.07626838394681358,0.2978506088256836,0.12388512439361654,0.9671713533079089,0.23131845837980092,right,-0.0014699101448059082,-0.4355863957973421,-0.9404884139820933,-8.841049064332246,-0.20836280759403378,-0.018898900598287582,0.027288727462291718,4.137838932658732,-0.010498374700546265
1746233124156695600,0.772695556640625,-0.09179623644020242,-0.011871250346302986,-0.06937271507088388,0.19552096724510193,0.12192808397751662,0.9675977067014409,0.23030584718534083,right,-0.0307806134223938,-0.43696913001871474,-0.8144834686137735,-8.84779269337356,-0.20994177691868596,0.00022670626640319824,-0.008587941527366638,4.150128797650337,0.004435628652572632
1746233124196695600,0.812695556640625,-0.08787701090572288,0.014126641675829887,-0.06751968048003422,0.12036046385765076,0.12157148565291923,0.9676559447473065,0.23040804331314432,right,-0.021328747272491455,-0.43760200302405494,-0.7795701953385025,-8.84829830480814,-0.2104837557255241,-0.01959831453859806,0.0005095601081848145,4.155751021446288,0.008194774389266968
1746233124236695600,0.852695556640625,-0.08395658805681985,0.04012453183531761,-0.06566638688610216,0.045199960470199585,0.12121435313593362,0.9677104582526679,0.23051286572423701,right,-0.011891067028045654,-0.43823449376100027,-0.7446546570409089,-8.848665969076752,-0.2110249179696164,-0.03942333534359932,0.009606868028640747,4.16136856906712,0.011954426765441895
1746233124276695600,0.892695556640625,-0.08199059172828961,0.01293447520583868,-0.06482209237174184,0.039303459227085114,0.12154519365144566,0.9677296693193624,0.231628542515827,right,0.0006429553031921387,-0.43802665763871884,-0.727327528534457,-8.850974246019124,-0.21100708055543635,0.0277981236577034,0.008530162274837494,4.159522941200435,0.020847439765930176
1746233124316695600,0.932695556640625,-0.08186133069493041,-0.017512667924165726,-0.06459873930044355,0.009955029934644699,0.12133944180855454,0.9680156262197854,0.23126744254957188,right,0.005411207675933838,-0.43566078032076333,-0.7269860946856439,-8.860851496911048,-0.209879257244231,0.08698318898677826,0.00850588083267212,4.138500319176912,0.014391481876373291
1746233124356695300,0.9726953125,-0.08173121316409124,-0.047959811985492706,-0.06437527121486879,-0.019393401220440865,0.12113355888687219,0.9683002302604986,0.23090652015497085,right,0.010174453258514404,-0.4332949329225464,-0.7266304861810058,-8.870679647964238,-0.20875111419110556,0.14616824686527252,0.008480168879032135,4.117454900799691,0.007937818765640259
1746233124396695600,1.012695556640625,-0.08346662456553289,-0.06252506375312805,-0.06465721950836165,-0.02096903696656227,0.12013021621264221,0.9690483174191196,0.2285623881849478,right,0.012562334537506104,-0.4271727018046414,-0.7441113439444452,-8.894359214237332,-0.20575065442640408,0.18390004336833954,0.007559768855571747,4.0628877365708345,-0.008385330438613892
1746233124436695600,1.052695556640625,-0.08484192796522608,-0.043017350137233734,-0.06497175928785352,-0.033094801008701324,0.11973782480114051,0.9695835839250009,0.22754711202899416,right,0.003938257694244385,-0.4223218969869359,-0.758004260218516,-8.912859916567802,-0.20334517968871474,0.15285809338092804,0.0008501783013343811,4.0195445616677405,-0.010632485151290894
1746233124476695600,1.092695556640625,-0.08620885207912955,-0.023509636521339417,-0.0652858881040101,-0.04522056132555008,0.11934467398567074,0.9701125846601735,0.2265412923065135,right,-0.004708051681518555,-0.41746973723651154,-0.7718569906126708,-8.931142007711529,-0.2009384041571515,0.12181615084409714,-0.005863487720489502,3.9760947115197776,-0.012868791818618774
1746233124516695600,1.132695556640625,-0.08881847078078611,0.0009345095604658127,-0.06631196273693389,-0.06289079785346985,0.1196251275095033,0.970541734348447,0.22668169012748288,right,-0.009390413761138916,-0.41246785325587426,-0.7969152978930621,-8.948794568780064,-0.1983460699575094,0.0852627232670784,-0.010962598025798798,3.9312060607403514,-0.012562364339828491
1746233124556695600,1.172695556640625,-0.08998688750655999,0.03144214302301407,-0.06690366218561175,-0.03546087443828583,0.12040863279681435,0.970654047088799,0.22810585075584894,right,-0.0030964016914367676,-0.4101880651503833,-0.8081739932060241,-8.956760433092713,-0.1971197892605164,0.04963412508368492,-0.006718188524246216,3.910713892331719,-0.0081881582736969
1746233124596695300,1.2126953125,-0.09115770178430796,0.06194978207349777,-0.06749519708433263,-0.008030954748392105,0.12119181721513522,0.9707639696753562,0.22953146118545711,right,0.0031906962394714355,-0.40790980313408737,-0.819469075006619,-8.96465732382238,-0.19589301636094605,0.014005530625581741,-0.002470061182975769,3.8902150019213555,-0.0038132965564727783
1746233124636695300,1.2526953125,-0.09019096844948546,0.05844305455684662,-0.0673756388582456,0.006927109323441982,0.12271855514736645,0.9705473561350277,0.23286288914093825,right,0.001140296459197998,-0.40835704295610453,-0.8106454978860914,-8.963711567404866,-0.1960571609672473,-0.038099389523267746,0.004467912018299103,3.894240604175627,0.005465447902679443
1746233124676695600,1.292695556640625,-0.08938091433107698,0.036363374441862106,-0.06722491852627205,-0.005918820388615131,0.12324654737432938,0.970255975885753,0.23406652450536058,right,-0.007709860801696777,-0.4107217299744581,-0.8025598796512932,-8.955168195465207,-0.1972163372336962,-0.0668005719780922,0.0012669116258621216,3.9155125247851013,0.010781019926071167
1746233124716695600,1.332695556640625,-0.08856695517574832,0.014283694326877594,-0.0670740911514765,-0.01876474916934967,0.12377432121769762,0.9699630464017518,0.23527351411666703,right,-0.01656520366668701,-0.4130855960469909,-0.7944495653666556,-8.946574554643034,-0.1983751811685265,-0.09550175070762634,-0.0019366368651390076,3.936755219300091,0.016099631786346436
1746233124756695600,1.372695556640625,-0.09269731631966019,-0.03971236199140549,-0.06930028433515385,-0.10144571959972382,0.12379492825757814,0.9692470510629944,0.23434189408703712,right,-0.004487335681915283,-0.4191086618897295,-0.8291853631831705,-8.919445140177011,-0.20107792555818996,-0.11660052835941315,0.007130064070224762,3.990781408520043,0.03164619207382202
1746233124796695600,1.412695556640625,-0.09791910181146152,-0.10801573097705841,-0.07164237531432542,-0.12251308560371399,0.12258283008853366,0.9689143714220818,0.23067251990743345,right,-0.006375372409820557,-0.42263267474073024,-0.8743689783211797,-8.900942099758982,-0.20259718749289762,-0.08327364921569824,0.004806503653526306,4.022324255514144,0.025771379470825195
1746233124836695600,1.452695556640625,-0.10316340034376009,-0.17631909251213074,-0.07398380935870855,-0.14358045160770416,0.12136955928152932,0.9685726246336305,0.22697709928395185,right,-0.008292734622955322,-0.4261390856326003,-0.9195778740309178,-8.882150305527448,-0.2041145343292962,-0.04994676634669304,0.002485521137714386,4.053660181759297,0.019917666912078857
1746233124876695300,1.4926953125,-0.11726567314009793,-0.3279635012149811,-0.07934016107877387,-0.19532854855060577,0.11623446898695913,0.9690639406191158,0.21348236805556928,right,-0.011340618133544922,-0.42400044235724793,-1.0457526960734278,-8.876889023998379,-0.2027553604734041,0.10161952674388885,0.0008830428123474121,4.034553622490168,0.023728936910629272
1746233124916695600,1.532695556640625,-0.13129934723900907,-0.3881259560585022,-0.08427299567535487,-0.2997654676437378,0.1101656282166599,0.9702131547343638,0.19838846794430065,right,-0.01899641752243042,-0.4158481268475136,-1.1744882354494184,-8.89365311179459,-0.1986150894266352,0.1874312460422516,-0.0251215398311615,3.9615526836872097,0.0021688640117645264
1746233124956695600,1.572695556640625,-0.14514694142788062,-0.4482884109020233,-0.08919910793339474,-0.404202401638031,0.10408804028001062,0.971285153603921,0.183474973531824,right,-0.026803433895111084,-0.40750448657132193,-1.3022630400344728,-8.908933683034777,-0.1944590009245298,0.2732429802417755,-0.051224082708358765,3.886565831764042,-0.01918870210647583
1746233124996695600,1.612695556640625,-0.17033022465265735,-0.2341386377811432,-0.09943010135198707,-0.41499534249305725,0.09887158821474513,0.9726433477831027,0.16891165890088683,right,0.042293548583984375,-0.389740464949905,-1.5376441597923636,-8.939955428764224,-0.18521009409531186,0.3493148982524872,-0.04318159818649292,3.72602075728178,-0.04933241009712219
1746233125036695600,1.652695556640625,-0.17971650986774274,-0.047984033823013306,-0.10368989727554603,-0.25551730394363403,0.0996443417603039,0.9732160924343011,0.16952443868158906,right,0.019344568252563477,-0.3787675219140277,-1.628698641680181,-8.964818067342042,-0.17935965545948046,0.2349299192428589,-0.02835977077484131,3.6262604063689707,-0.02115526795387268
1746233125076695600,1.692695556640625,-0.1890697267422387,0.13817057013511658,-0.10794417653547518,-0.0960392951965332,0.10041185239744019,0.9737368392914586,0.1702450526323738,right,-0.003804802894592285,-0.367800349096903,-1.7198475238531827,-8.987714374282955,-0.17349965669507145,0.1205449253320694,-0.013528317213058472,3.5261163168355822,0.007061004638671875
1746233125116695300,1.7326953125,-0.18716044063603463,0.2161208838224411,-0.10789937927741805,0.05483953654766083,0.10456356400715375,0.9730130057097547,0.17879884677385072,right,-0.0017232298851013184,-0.3718806486794208,-1.6999930688261984,-8.976770370942354,-0.17512791829725308,-0.19335484504699707,-0.008865714073181152,3.5634248877495525,0.021872639656066895
1746233125156695600,1.772695556640625,-0.17929568756126016,0.19890783727169037,-0.10506258736961671,0.13372138142585754,0.10743206171549537,0.9719777789661412,0.18528521324602443,right,-0.020415425300598145,-0.383308816025664,-1.621972402165085,-8.949206072190403,-0.18077421142398695,-0.23972812294960022,-0.014067545533180237,3.667601301538944,0.01425325870513916
1746233125196695600,1.812695556640625,-0.17131400772871722,0.18169477581977844,-0.10222065465234415,0.21260324120521545,0.11029529852874952,0.9708947053726157,0.19189917649503552,right,-0.03925853967666626,-0.39468892450661874,-1.543276174329966,-8.920160594969987,-0.186411632146241,-0.28610140085220337,-0.019338220357894897,3.7708635230928658,0.006727069616317749
1746233125236695600,1.852695556640625,-0.16238935082423145,0.13568003475666046,-0.09885667837121563,0.1491931676864624,0.11224985989879861,0.9697663107906302,0.19686252457132014,right,0.040550291538238525,-0.40735193083244764,-1.4557691557906567,-8.885741608017682,-0.19282276210039145,-0.23029984533786774,0.01365022361278534,3.8851924975842236,-0.006505429744720459
1746233125276695600,1.892695556640625,-0.15290581605116518,0.1425655633211136,-0.09486603191085585,0.2627432346343994,0.11298548203551982,0.9692307983294861,0.19982742224304054,right,0.052124202251434326,-0.4152285207152103,-1.3667331741183995,-8.86862680708766,-0.19704392125284836,-0.2168617695569992,0.02948003262281418,3.9559935882553456,-0.0026137232780456543
1746233125316695600,1.932695556640625,-0.14336340423929705,0.14945107698440552,-0.09087210361037354,0.3762933015823364,0.1137172565504336,0.9686618085346063,0.2028846468068196,right,0.06356978416442871,-0.4230789040570382,-1.2775675747171045,-8.850254115051031,-0.20125825808064632,-0.20342367887496948,0.045296624302864075,4.026314786455035,0.0013268887996673584
1746233125356695300,1.9726953125,-0.12334969012918381,0.08396706730127335,-0.08203676917439703,0.47877925634384155,0.11382735763260991,0.9681600117920105,0.20686761174581678,right,0.032604217529296875,-0.43355977272299734,-1.0949447431351989,-8.831683270093798,-0.2073148051837565,-0.22935137152671814,0.03464924544095993,4.119811985319853,0.009819269180297852
1746233125396695600,2.012695556640625,-0.09591735915799317,0.08118245750665665,-0.06950304462754796,0.5629000663757324,0.11267343261328741,0.9680267080404381,0.21015789450322464,right,0.00656360387802124,-0.4424713829238706,-0.8487395200893283,-8.82149680712223,-0.21306842733889564,-0.10906291007995605,0.03966353088617325,4.198954203356802,0.004047572612762451
1746233125436695600,2.052695556640625,-0.07703848545987362,0.051724694669246674,-0.06078955721670601,0.6101068258285522,0.11198768734227471,0.9681671264302878,0.21286350357268663,right,-0.030211448669433594,-0.44536236021725545,-0.6811211462199688,-8.82380742215216,-0.2154429472902888,-0.05140344798564911,0.05803781747817993,4.224557138907909,0.03816637396812439
1746233125476695600,2.092695556640625,-0.04959157941981066,-0.1161041408777237,-0.04728346331087006,0.5258148908615112,0.10778632565114003,0.9689053082800615,0.21031481173556102,right,-0.09109771251678467,-0.4466493380167236,-0.4384389096684754,-8.833738449057936,-0.21764406648783008,-0.024398889392614365,0.019328242167830467,4.2359436253190035,0.04527828097343445
1746233125516695600,2.132695556640625,-0.045248730047807724,-0.15003857016563416,-0.04457818301363419,0.1621071696281433,0.10421622949947892,0.9691185880153069,0.20392465661907405,right,-0.0794023871421814,-0.4486679567937912,-0.3996837201427668,-8.826999496191739,-0.2190001198401474,-0.053035054355859756,0.0044492632150650024,4.25378878635019,0.02285274863243103
1746233125556695600,2.172695556640625,-0.04091608621625414,-0.1839730143547058,-0.04187194541323315,-0.2016005516052246,0.10064382629934018,0.969310441903426,0.1975379418653868,right,-0.06773924827575684,-0.45071140193927167,-0.36107951992768794,-8.819944316983223,-0.22035133417358443,-0.08167121559381485,-0.010414306074380875,4.271835899694263,0.00040659308433532715
1746233125596695300,2.2126953125,-0.06874779814747123,-0.06135258451104164,-0.05432721554441648,-0.46102577447891235,0.09969463447996886,0.9693920627334848,0.18930728993412588,right,-0.003345310688018799,-0.44769032808049214,-0.6072659286752343,-8.81931537142992,-0.21768920482556192,0.12225159257650375,0.004792109131813049,4.245148383776844,-0.011821985244750977
1746233125636695300,2.2526953125,-0.08734307234574575,-0.012646518647670746,-0.06302377379708994,-0.459445983171463,0.10136883924583122,0.9695573627250732,0.1887307971207732,right,-0.003583073616027832,-0.4415727430103999,-0.7734000553362071,-8.832205248141289,-0.21380095799298798,0.14623044431209564,-0.009818695485591888,4.190988631305098,-0.003805190324783325
1746233125676695600,2.292695556640625,-0.10342257701998842,0.016161741688847542,-0.07073749632050008,-0.40084388852119446,0.1036687972708186,0.9695618958077689,0.1901063849107805,right,-0.01604008674621582,-0.4360231509251674,-0.9176984900251031,-8.841626571959257,-0.21023490350905358,0.10023956000804901,-0.017601005733013153,4.1417216193109745,0.01322069764137268
1746233125716695600,2.332695556640625,-0.11589918833794624,0.0016018003225326538,-0.07677898866386432,-0.25610607862472534,0.10538404672118834,0.9693341288840317,0.1910383457497799,right,0.011534392833709717,-0.43346100684543587,-1.0291614806260914,-8.839999847540259,-0.2083036504053865,0.05149266496300697,-0.014955393970012665,4.118932864397764,0.006387174129486084
1746233125756695600,2.372695556640625,-0.12339757315147927,0.018294980749487877,-0.08044816018349253,-0.13209015130996704,0.10658241977355043,0.9691556753368539,0.1919627966438617,right,0.041661620140075684,-0.4319508304178428,-1.096182029845193,-8.838197766554355,-0.20713624092962868,0.030909782275557518,-0.008386403322219849,4.105487984152138,-0.0018814504146575928
1746233125796695600,2.412695556640625,-0.1247681945211821,0.03193935751914978,-0.08124030717077609,0.016595423221588135,0.10742546943470617,0.9690874849215844,0.19343469431655128,right,0.02821558713912964,-0.4313482740032906,-1.1086025354791431,-8.83914001584053,-0.20671064687626145,0.015091713517904282,-0.0070352703332901,4.100120904161035,0.005472749471664429
1746233125836695600,2.452695556640625,-0.12315133269799586,0.02443123795092106,-0.08062199090199736,0.03991430252790451,0.10785892565870345,0.9689779445757839,0.19463347960288083,right,0.013614773750305176,-0.4323583024219099,-1.0938001031447202,-8.836806604456902,-0.20723983292977038,-0.044841594994068146,-0.009089656174182892,4.109116696043312,0.01195421814918518
1746233125876695300,2.4926953125,-0.12093633400121191,0.029662497341632843,-0.07974026080618582,0.07712657749652863,0.10795175739307364,0.9686738945978263,0.19516968976398863,right,0.03281623125076294,-0.4356712873716074,-1.072575674938783,-8.825645158973336,-0.20894693067405543,-0.09077408164739609,0.0020717158913612366,4.138593550418317,0.005795717239379883
1746233125916695600,2.532695556640625,-0.11630030195896751,0.03620774671435356,-0.07775344772480157,0.14018955826759338,0.10789155305224443,0.9683250813550319,0.19588388197493775,right,0.028870105743408203,-0.4401220256744021,-1.029500722517818,-8.812139780712128,-0.211329847923237,-0.10985281318426132,0.009374052286148071,4.178122135469317,0.006692439317703247
1746233125956695600,2.572695556640625,-0.10992962244447219,0.05583520233631134,-0.075014284257632,0.14754292368888855,0.1079637141211031,0.9679634274371325,0.19726845131234572,right,0.013834536075592041,-0.4448673700282086,-0.9711547704026102,-8.798713312906026,-0.21392364115629633,-0.10726508498191833,0.009456269443035126,4.220176147344708,0.010768800973892212
1746233125996695600,2.612695556640625,-0.10366501112090228,0.06421548128128052,-0.07243764746162423,0.1009051725268364,0.1084523801094827,0.9675061919014526,0.19951697847452537,right,-0.002040684223175049,-0.44989033869399714,-0.9138104696106165,-8.783429234534502,-0.2166160383498821,-0.12414298951625824,0.008089408278465271,4.264586659218371,0.01909121870994568
1746233126036695600,2.652695556640625,-0.09927981219868465,0.05977858975529671,-0.07077433553074026,0.07183509320020676,0.10908416489943677,0.9669562915195848,0.20166833230849324,right,0.0028537511825561523,-0.45506826036629466,-0.873084345338121,-8.765261709681154,-0.21928752806756457,-0.11002659797668457,0.014153189957141876,4.310254769937694,0.015849322080612183
1746233126076695600,2.692695556640625,-0.09594538979922099,0.04885758459568024,-0.06955084283023359,0.048700377345085144,0.10972469085391495,0.966519158798081,0.2036555024032313,right,0.004234015941619873,-0.45894415084247325,-0.8422457010906189,-8.75142899916172,-0.221278010919998,-0.06395068764686584,0.01454995572566986,4.34436366802752,0.01283767819404602
1746233126116695300,2.7326953125,-0.09347926795517598,0.04512744024395943,-0.06868938401846202,0.02059815637767315,0.11047825575696722,0.9662287328668725,0.20572838375939018,right,-0.002304255962371826,-0.461204978329788,-0.8197421928595751,-8.743678238904476,-0.22243705188713497,-0.02829441800713539,0.007076621055603027,4.364229228970408,0.011858493089675903
1746233126156695600,2.772695556640625,-0.09244419102056023,0.04663604497909546,-0.06845900811094403,-0.028140908107161522,0.11139649764175248,0.9660602834252093,0.20785124367286406,right,-0.017326176166534424,-0.46194786535859844,-0.8103918153859675,-8.741291051506996,-0.22278136943730245,0.009542576968669891,-0.004603035748004913,4.370752200998366,0.002986222505569458
1746233126196695600,2.812695556640625,-0.09363136087092956,0.06414178013801575,-0.06930501871432301,-0.09085645526647568,0.11279692227607023,0.965924611837995,0.21048713417099996,right,-0.021183490753173828,-0.46149140415858103,-0.8209550757806747,-8.74230811959505,-0.22240307280367347,0.031655870378017426,-0.011168591678142548,4.36674442666173,0.000712960958480835
1746233126236695600,2.852695556640625,-0.09594053426601346,0.07792474329471588,-0.07076535691253756,-0.09143316000699997,0.11470467435362673,0.9657400005657937,0.21392441213135885,right,-0.010289013385772705,-0.4607002086747232,-0.841471136521548,-8.743825538420676,-0.22176837819837253,0.022252347320318222,-0.008386187255382538,4.359795922698081,0.00011107325553894043
1746233126276695600,2.892695556640625,-0.09746321033557173,0.09048256278038025,-0.07190704829400463,-0.06493223458528519,0.11672948386707384,0.9655132436941448,0.21777887787842803,right,-0.001936495304107666,-0.46026408623114334,-0.854969062128663,-8.744425842401386,-0.22133170318106932,0.013163339346647263,-0.0047293007373809814,4.355964381711185,-0.0016395151615142822
1746233126316695600,2.932695556640625,-0.09714615687428547,0.09912829846143723,-0.07223074582859441,-0.010578520596027374,0.11881051497887699,0.9652871634993246,0.22216688328259787,right,-0.00026023387908935547,-0.4600842272679388,-0.8522725895863026,-8.745476228237152,-0.22110520545960965,0.008486449718475342,-0.0015657991170883179,4.354384126782417,0.0019302964210510254
1746233126356695300,2.9726953125,-0.09487881132836762,0.08699481934309006,-0.07160572403364299,0.03219812363386154,0.1205829495285542,0.9651037880062473,0.22635637074296305,right,0.00433349609375,-0.4602065007498974,-0.8323909542914479,-8.746856284418701,-0.22114941392934287,0.00305727357044816,0.0008549690246582031,4.355458478015661,0.003041505813598633
1746233126396695600,3.012695556640625,-0.09129025874938063,0.06482917815446854,-0.07024952782917807,0.06546621024608612,0.12186383787469529,0.9650419205314187,0.22983691937876807,right,0.004166603088378906,-0.4600177181822216,-0.8010720522463322,-8.750605407819151,-0.2211521697119222,0.02136182226240635,0.0015896409749984741,4.35379960489273,-0.001546710729598999
1746233126436695600,3.052695556640625,-0.0874416058273941,0.04672344774007797,-0.06861066791034125,0.07573994994163513,0.12264973229996831,0.9651594849963848,0.23236772274808246,right,-0.00003910064697265625,-0.4588171343210847,-0.7678441017094999,-8.758824370110034,-0.2207188207783772,0.049524031579494476,0.0016322210431098938,4.343246938957273,-0.0045600831508636475
1746233126476695600,3.092695556640625,-0.08373706318009685,0.03262028843164444,-0.06692391750919184,0.06333307176828384,0.12310997683619253,0.9653953778093181,0.23419700785802855,right,-0.008805572986602783,-0.45688035155243406,-0.7360936033140868,-8.769974709677696,-0.21994748903619213,0.04978031665086746,-0.0021751075983047485,4.326209587177634,-0.0063057541847229
1746233126516695600,3.132695556640625,-0.08147991712714188,0.030558031052350998,-0.06593982139554347,0.01944560930132866,0.12360963322026365,0.9655192208868644,0.2357633747255496,right,-0.01166379451751709,-0.455610236324806,-0.7167432984169572,-8.777083664900063,-0.2194201731122669,0.015752512961626053,0.00022152811288833618,4.3150282679498195,0.0012167096138000488
1746233126556695600,3.172695556640625,-0.0810860133482697,0.04176696017384529,-0.06592054152739504,-0.048699792474508286,0.12427677542102265,0.9654202165349026,0.23723250626952894,right,-0.018083572387695312,-0.4557931038511892,-0.7132219924230128,-8.776578637987376,-0.2194846336702427,-0.024474546313285828,-0.004648908972740173,4.316638333494961,-0.0011586546897888184
1746233126596695300,3.2126953125,-0.08330294398869854,0.05446585267782211,-0.0672663089018365,-0.10356582701206207,0.12551081137328426,0.9651074449048658,0.23927200285763212,right,-0.007567465305328369,-0.4567674399420739,-0.7323269442569464,-8.770780180841683,-0.21974960053194803,-0.01248953677713871,-0.0015683993697166443,4.325215899965166,-0.005279511213302612
1746233126636695300,3.2526953125,-0.08652298992332322,0.06262264400720596,-0.06912744695740301,-0.10235311836004257,0.12718116607244026,0.9648080763728737,0.24199892085328323,right,0.0009586811065673828,-0.4569177029611294,-0.760509301842004,-8.76772897657752,-0.21952587994139391,0.008083304390311241,0.0009783655405044556,4.326538380740582,-0.00026792287826538086
1746233126676695600,3.292695556640625,-0.08915239854937601,0.06604079157114029,-0.07070038964283726,-0.0795721709728241,0.1288520848832042,0.9645537219082196,0.24486810577206017,right,0.00449603796005249,-0.45673293777554386,-0.7836317456889897,-8.766495050868391,-0.21916793684370808,0.008902178145945072,-0.0033475980162620544,4.324912240843474,0.0025815367698669434
1746233126716695600,3.332695556640625,-0.09007416259998392,0.060622747987508774,-0.07150795739764554,-0.02485642582178116,0.13041811606417397,0.9642593404291095,0.2478971119853006,right,0.00833582878112793,-0.45730055343241416,-0.7914910808872431,-8.763322850573063,-0.219274920466339,-0.02442961558699608,-0.0022507384419441223,4.329907272651791,0.007765859365463257
1746233126756695600,3.372695556640625,-0.08852131847072793,0.04297821223735809,-0.07108460094515175,0.04446910321712494,0.13139306675739607,0.9640223863723257,0.2502545904935308,right,0.01299583911895752,-0.4584993254635474,-0.7774225888505577,-8.759365052857994,-0.2198719049323537,-0.021840743720531464,-0.0015983730554580688,4.340452339802682,0.006170600652694702
1746233126796695600,3.412695556640625,-0.08535611965307713,0.025823121890425682,-0.06976086127482604,0.06881371140480042,0.13174495193495306,0.9639500879742526,0.2516966394040251,right,0.004858493804931641,-0.4592700504455945,-0.7494082082435488,-8.758446184447408,-0.22040178132586857,-0.0024935491383075714,-0.004745855927467346,4.347228702069819,0.004532068967819214
1746233126836695600,3.452695556640625,-0.08195561539864692,0.022905750200152397,-0.06824570947189285,0.07349332422018051,0.1318988618788461,0.9639891257097545,0.252793190351737,right,0.003031134605407715,-0.4593221312043935,-0.7196022680446506,-8.760718221032619,-0.22061324387774323,0.011119904927909374,0.00025390833616256714,4.347686382709443,0.005034029483795166
1746233126876695300,3.4926953125,-0.07850527455857507,0.019132062792778015,-0.06666176314152832,0.07151056081056595,0.13197677351709422,0.9640956010637698,0.2537491630309537,right,-0.0022084712982177734,-0.45886095387085934,-0.6895277400374412,-8.765146558868885,-0.22058578255125746,0.010827628895640373,0.0006736442446708679,4.343632138882577,0.00866156816482544
1746233126916695600,3.532695556640625,-0.0754830483101457,0.028632700443267822,-0.0652996013977478,0.05841884762048721,0.13212481335427595,0.9641606227284814,0.2547501417318366,right,-0.003267824649810791,-0.4585877409295648,-0.6631238633669913,-8.768373704221844,-0.2206202997067493,0.011173365637660027,0.0027470290660858154,4.341229753915965,0.008587807416915894
1746233126956695600,3.572695556640625,-0.07313928538656299,0.0264795683324337,-0.06431853454588946,0.030660957098007202,0.13249792596486584,0.9641414834973724,0.25606008402948566,right,-0.007931172847747803,-0.45866149624787067,-0.6425476699367165,-8.769584249055384,-0.22076852953447426,-0.006701601669192314,0.00037901103496551514,4.341878280952573,0.01140594482421875
1746233126996695600,3.612695556640625,-0.07209606047537405,0.019596712663769722,-0.06398149483047329,0.0013342779129743576,0.13290314559158076,0.9640104665764888,0.2571348156707531,right,-0.007145583629608154,-0.45947097180078084,-0.6331452700149267,-8.76674171910584,-0.22119434319716313,-0.02642441727221012,-0.00024349987506866455,4.348994834959507,0.010965555906295776
1746233127036695600,3.652695556640625,-0.0723223965384764,0.017996428534388542,-0.06425500938602649,-0.0265603419393301,0.13326109911784134,0.9637822898202257,0.2578166895504306,right,-0.005424022674560547,-0.4609939035859039,-0.634650194685161,-8.759981723451613,-0.22189300192687209,-0.03798327222466469,-0.001283504068851471,4.362375710058212,0.011981010437011719
1746233127076695600,3.692695556640625,-0.07356509387228358,0.017864610999822617,-0.06501085867217962,-0.05305381491780281,0.1337440727286332,0.9635397256748849,0.25852453479844384,right,-0.0021182894706726074,-0.46233543438824926,-0.6451049532040953,-8.753342139306664,-0.22243500747012718,-0.02099994756281376,-0.006501622498035431,4.3741541183963415,0.009737640619277954
1746233127116695300,3.7326953125,-0.07563836043511019,0.014454557560384274,-0.0661277671663331,-0.06158653646707535,0.13435916692438474,0.9633595816951853,0.25931926330664684,right,0.0027428269386291504,-0.46284379700568007,-0.6630834582913666,-8.74976778795123,-0.22251543687798636,0.0005316752940416336,-0.0065658241510391235,4.3786154817193745,0.011938899755477905
1746233127156695600,3.772695556640625,-0.0777827091110629,0.004960495047271252,-0.06722165592161299,-0.04890606924891472,0.13483505653056183,0.9632424110599555,0.2598112629810066,right,0.009719133377075195,-0.46295192567978477,-0.6818076671794057,-8.747853478762506,-0.2224069314116493,-0.0028724537696689367,-0.0031155720353126526,4.379564453007281,0.015276521444320679
1746233127196695600,3.812695556640625,-0.07935466327712598,0.004420106299221516,-0.06800918239056414,-0.033251285552978516,0.13508535992169712,0.9631524967163004,0.25996609419854744,right,0.005685865879058838,-0.4631783318742581,-0.6954794880487024,-8.745781933185457,-0.22240492743804893,-0.0073552969843149185,-0.0037661269307136536,4.38155095064938,0.012467175722122192
1746233127236695600,3.852695556640625,-0.080691850819186,-0.0006586317904293537,-0.06868626764570926,-0.03676565736532211,0.13529697018749098,0.9630605172195681,0.26009372744107767,right,0.003504931926727295,-0.4635026645173635,-0.7070590128138661,-8.7434274790138,-0.22246673653526253,-0.004023757763206959,-0.0030059441924095154,4.38439611094743,0.00610312819480896
1746233127276695600,3.892695556640625,-0.0822513935928567,-0.011459965258836746,-0.06940699245411215,-0.03551536425948143,0.1353061127027194,0.9630141004938243,0.25975111944172685,right,0.0012302994728088379,-0.4636375884220431,-0.72064527429156,-8.741724182227253,-0.2224382030818622,0.0015906658954918385,-0.005706608295440674,4.385579767774045,-0.0023142993450164795
1746233127316695600,3.932695556640625,-0.0839074990160915,0.006709430366754532,-0.07016855639277146,-0.03403128311038017,0.13537735932980974,0.9629920502000371,0.2595185649159789,right,0.002126634120941162,-0.4634658185505067,-0.7351845987103879,-8.741269424197077,-0.22225132697385333,0.009626772254705429,-0.005192846059799194,4.384072870342433,-0.006638765335083008
1746233127356695300,3.9726953125,-0.08472568684187569,0.03249512240290642,-0.07066503829151997,-0.022383585572242737,0.13589656007259618,0.9628953892614479,0.260407371400763,right,0.001184701919555664,-0.46353093727591943,-0.74231218556799,-8.740380366402864,-0.22219597872361255,-0.011156830936670303,-0.0021605193614959717,4.384644240489602,-0.0009960532188415527
1746233127396695600,4.012695556640625,-0.08460003813896164,0.045943938195705414,-0.07084580511147692,-0.0038553141057491302,0.13665920751067237,0.9626648244961137,0.2620084277177381,right,0.001806795597076416,-0.4646113628088218,-0.7408132522471249,-8.735748614948987,-0.22266936591741146,-0.03466803580522537,-0.003026604652404785,4.394119048060476,-0.0030070245265960693
1746233127436695600,4.052695556640625,-0.08374098824566727,0.05738503858447075,-0.07075829276900945,0.0028014774434268475,0.13759071210217838,0.9623721423684882,0.2641266479844574,right,0.0026702880859375,-0.46613318583616936,-0.7327483845394104,-8.729708165740966,-0.22338760264731994,-0.033601779490709305,-0.004592329263687134,4.407455791756511,-0.0036545395851135254
1746233127476695600,4.092695556640625,-0.08238505941778519,0.05783800035715103,-0.07048337497189094,0.016871314495801926,0.13865597751667408,0.9620570620106609,0.26664031720529596,right,0.0034357309341430664,-0.46774850586506234,-0.720324006447941,-8.723587052512169,-0.224171680108062,-0.03775447979569435,0.001161336898803711,4.421600929225981,0.003901451826095581
1746233127516695600,4.132695556640625,-0.0804986134496394,0.03928486257791519,-0.06990259646982865,0.029689986258745193,0.13941538244409782,0.9617857132973617,0.26864519832200984,right,0.002474486827850342,-0.4694337354805701,-0.7032659772064537,-8.717490489202737,-0.22504511601762806,-0.038255032151937485,0.0027976930141448975,4.43634578615427,0.004998594522476196
1746233127556695600,4.172695556640625,-0.0783863356301912,0.022292008623480797,-0.06911149532300209,0.045653507113456726,0.1397996916613039,0.961614295484674,0.2699298957404928,right,0.0014935731887817383,-0.47074954500722643,-0.6843930074974894,-8.713129371383786,-0.22578225969699847,-0.02105255238711834,0.004630006849765778,4.447849761465192,0.0053321123123168945
1746233127596695300,4.2126953125,-0.07595377323316482,0.007367526181042194,-0.06805391663781117,0.04859473928809166,0.13983461363384522,0.9615763001783141,0.2705704073881203,right,-0.0019403696060180664,-0.47139912174741766,-0.6629764177203178,-8.711886093324422,-0.22624344418756892,-0.008897683583199978,0.004656895995140076,4.453526345796883,0.005719691514968872
1746233127636695300,4.2526953125,-0.07384678384842489,-0.00004433933645486832,-0.06707785902412527,0.05033010616898537,0.13970297898308248,0.9616089336634768,0.27079165684698364,right,-0.002230525016784668,-0.47159388609265035,-0.6445550642363727,-8.712398134499788,-0.22647710472161228,-0.002530801109969616,0.007656708359718323,4.455227889017761,0.0054413676261901855
1746233127676695600,4.292695556640625,-0.07188527343937247,-0.002268057083711028,-0.06613977449215656,0.045082949101924896,0.13946146633243894,0.9616585578472272,0.2707509674782238,right,-0.0023354291915893555,-0.4717512894521087,-0.6274139598213135,-8.712945831510424,-0.22669121009253343,-0.0009497872088104486,0.009280458092689514,4.456602976763248,0.003652334213256836
1746233127716695600,4.332695556640625,-0.0704482067463193,-0.00598420575261116,-0.06543363457842204,0.03005073219537735,0.139200073045969,0.9617044832166152,0.2705458369678981,right,-0.004811465740203857,-0.4718833955203672,-0.6148508308462798,-8.71325153645873,-0.22686174966501624,-0.0005223550251685083,0.009117241948843002,4.457756822973489,-0.00003853440284729004
1746233127756695600,4.372695556640625,-0.0695366691613565,-0.006767171435058117,-0.06495373845567078,0.015355552546679974,0.13897613024238847,0.961776943124833,0.270295642746779,right,-0.006807208061218262,-0.47166882109499086,-0.6069745445132255,-8.71476194102168,-0.22682987292838547,0.010896286927163601,0.00782117247581482,4.4558825535342095,-0.0022293031215667725
1746233127796695600,4.412695556640625,-0.06933659969304111,-0.009088922291994095,-0.06478192877683964,-0.0021274564787745476,0.1387860611644496,0.9618771297226606,0.2699488000254068,right,-0.007855415344238281,-0.47107794641019357,-0.6054132865458727,-8.717508609381317,-0.2265702208635586,0.01468365266919136,0.0065644122660160065,4.450719763943552,-0.0028064846992492676
1746233127836695600,4.452695556640625,-0.06967706793365354,-0.008642459288239479,-0.06486763383915603,-0.008267849683761597,0.138662221244504,0.9619661986943737,0.2696126333975493,right,-0.004869043827056885,-0.4704259280892073,-0.6085831852862611,-8.720195071986318,-0.22624319257038644,0.013542759232223034,0.0049659498035907745,4.445021260040998,-0.003867805004119873
1746233127876695300,4.4926953125,-0.07036124056001257,-0.007696446031332016,-0.06513116369930452,-0.020423538982868195,0.138601194504323,0.9620275953395322,0.269326361322223,right,-0.004713296890258789,-0.469883957538956,-0.6147184366382659,-8.722178354758023,-0.22594378294414139,0.0112473638728261,0.0022691339254379272,4.440283125603199,-0.006354272365570068
1746233127916695600,4.532695556640625,-0.07123634990583329,0.001842849887907505,-0.06551144015870981,-0.02101125754415989,0.1386911862293592,0.9620747694522936,0.26931001024600126,right,-0.0012656450271606445,-0.46924922957397935,-0.6225515414167195,-8.724446299690008,-0.22557762129808412,0.013398295268416405,0.0018629543483257294,4.4347322134777905,-0.0052010416984558105
1746233127956695600,4.572695556640625,-0.0717901172864957,0.0008644224144518375,-0.06575456674158732,-0.007978624664247036,0.1387657522533085,0.9621051921797092,0.2693367137586944,right,-0.0012308359146118164,-0.4688194931536113,-0.6275193929571659,-8.726000543394685,-0.2253311318103845,0.003670642152428627,0.0005132555961608887,4.4309731532052155,-0.003790825605392456
1746233127996695600,4.612695556640625,-0.07191487364420862,0.004270360805094242,-0.06580608701847679,0.002285674214363098,0.13877893156386698,0.962117134905674,0.26933536244208045,right,-0.0007829666137695312,-0.4686828344580565,-0.6286515387922526,-8.726526028573513,-0.22525664350534397,0.002936259377747774,-0.000046119093894958496,4.429777513679862,-0.0028426051139831543
1746233128036695600,4.652695556640625,-0.07145769161955241,0.00729996245354414,-0.0656298719579089,0.01251106895506382,0.13887740341819318,0.9620939803672596,0.2696466376085031,right,-0.001448988914489746,-0.46882427289199086,-0.6246170956443995,-8.726187590399384,-0.22534634247557614,-0.011155666783452034,0.001319143921136856,4.431014946520328,0.0003426969051361084
1746233128076695600,4.692695556640625,-0.07074411944087212,0.009199194610118866,-0.06536427854588174,0.02133096754550934,0.13894025735067644,0.962011870764765,0.2699423171990773,right,0.00004667043685913086,-0.46954743151624756,-0.6181635355908424,-8.723432154211402,-0.22573488807062636,-0.02314133197069168,0.0015242919325828552,4.437340350149571,0.0032504796981811523
1746233128116695300,4.7326953125,-0.06986436475320025,0.00374263571575284,-0.06503755192900261,0.01598157174885273,0.13895042336187713,0.9618888519848023,0.2701671413565667,right,-0.0030096769332885742,-0.47070462875211233,-0.6101299398042261,-8.71884482642114,-0.22634652948706319,-0.03098651021718979,-0.0008810125291347504,4.447457255016267,0.003946959972381592
1746233128156695600,4.772695556640625,-0.0693666510650821,0.0038903141394257545,-0.06487720663095711,0.006043483503162861,0.1389482460955866,0.9617697287568495,0.2702775151260302,right,0.0008267760276794434,-0.4717873544909391,-0.6054562489047646,-8.714338162651657,-0.22689940664356337,-0.01626083254814148,-0.0012167282402515411,4.456918034061789,0.0011421442031860352
1746233128196695600,4.812695556640625,-0.0687132761468677,0.006305417977273464,-0.06461426631058813,0.01728474721312523,0.13900492160453864,0.9617328085664012,0.2705489894967832,right,0.002132415771484375,-0.4721198035056017,-0.5996606413032859,-8.713253290024399,-0.2270962423619799,-0.002234182320535183,-0.0015905685722827911,4.459821646548807,0.002800852060317993
1746233128236695600,4.852695556640625,-0.06808612578970952,-0.001640278846025467,-0.06431412872074264,0.014726703986525536,0.1389336324809213,0.961750246343024,0.270548816206665,right,0.0005511045455932617,-0.47214355623909693,-0.5941887857634573,-8.713522170093656,-0.22715126969267255,0.004944618791341782,-0.0022222325205802917,4.460029151819646,0.0018645226955413818
1746233128276695600,4.892695556640625,-0.06748456016743112,-0.005215018056333065,-0.06399237160995916,0.017496902495622635,0.13877877490301416,0.9618050723400562,0.2703690636280345,right,-0.00022464990615844727,-0.4719475916558007,-0.5890058667002246,-8.714749666061996,-0.22710437021431695,0.004911324009299278,-0.0015747956931591034,4.458317671726644,0.002734154462814331
1746233128316695600,4.932695556640625,-0.06682032595068395,-0.0036921135615557432,-0.063647235764266,0.02545011416077614,0.13856534113546823,0.96183296842354,0.2700820367140709,right,0.0005853176116943359,-0.4720597639667636,-0.5831836998853832,-8.714639775946736,-0.22721364107806077,-0.01008827704936266,-0.0003985390067100525,4.459297330413759,0.004742950201034546
1746233128356695300,4.9726953125,-0.06593254040694098,-0.003671760205179453,-0.0632383377217327,0.025989849120378494,0.13832482752825367,0.9617831881001564,0.26979142120126964,right,0.0006470084190368652,-0.4728901106822993,-0.5752025649383664,-8.711456469735502,-0.22768450442266355,-0.022794686257839203,-0.00021935626864433289,4.466548032194376,0.002189546823501587
1746233128396695600,5.012695556640625,-0.06510616819987029,0.0026444578543305397,-0.06290159446996686,0.01590171456336975,0.13818807791205792,0.9616793882915828,0.2697029021137248,right,-0.0006135702133178711,-0.47403974222323453,-0.567669027628377,-8.70679899931848,-0.22829842808055972,-0.030854707583785057,-0.0010378062725067139,4.476581934952736,0.0032414495944976807
1746233128436695600,5.052695556640625,-0.06455066110716333,0.009507440961897373,-0.06275174909305972,0.007634628564119339,0.13821584325307,0.9614997162826041,0.26989338963909276,right,0.0015285015106201172,-0.47559057064098037,-0.5623837441692129,-8.700174612742662,-0.2290780632975084,-0.04465916007757187,0.0007304809987545013,4.490108063741028,0.006604522466659546
1746233128476695600,5.092695556640625,-0.06401606584692711,0.014693817123770714,-0.0626530585490647,0.004623043816536665,0.1383403736839728,0.9612700590387726,0.2702816493801046,right,0.0017597675323486328,-0.4774360246001132,-0.557201519225724,-8.692190043729543,-0.22999183621145453,-0.04412437975406647,0.00008357688784599304,4.5061897222310305,0.005593031644821167
1746233128516695600,5.132695556640625,-0.06384538937695551,0.020695431157946587,-0.06274073337954325,-0.013779010623693466,0.13866932796546316,0.961058935860673,0.27100873355571653,right,0.0008563399314880371,-0.478828192716253,-0.555317203316465,-8.686015739008784,-0.23065132866260807,-0.01917506381869316,-0.0019351355731487274,4.518310952657461,0.0041689276695251465
1746233128556695600,5.172695556640625,-0.06451842453485873,0.022204628214240074,-0.06321179178159567,-0.036394715309143066,0.1392604389793759,0.96091644684026,0.2720778593521658,right,0.0014491081237792969,-0.47922113274536576,-0.5610485500426963,-8.683867621064186,-0.23076011549150138,0.005704239010810852,0.0013289302587509155,4.521730697973072,0.007708638906478882
1746233128596695300,5.2126953125,-0.06576972384666767,0.014642377384006977,-0.0639065275270136,-0.046040765941143036,0.13989277285459847,0.9608511357675725,0.2730933677682268,right,0.0019065141677856445,-0.47884244068981957,-0.5720267113812267,-8.68486715349555,-0.23045817296585785,0.011417584493756294,0.00280173122882843,4.518435163559019,0.012299150228500366
1746233128636695300,5.2526953125,-0.06752773926367002,0.003612527623772621,-0.06480666830374296,-0.056493744254112244,0.14038108674384245,0.9607777407810842,0.27368832530493065,right,0.0016515254974365234,-0.47863448757105154,-0.5873573323082178,-8.684785320430993,-0.2302157215856631,0.006641882471740246,0.003697674721479416,4.5166248992666596,0.012773215770721436
1746233128676695600,5.292695556640625,-0.06982897879068323,-0.009407436475157738,-0.06589927760624846,-0.056820694357156754,0.14059696676408312,0.9607118867266301,0.27358652084033924,right,0.0015164613723754883,-0.4786163913552226,-0.607347250283137,-8.683492358011007,-0.2300486800994158,0.004732870496809483,0.002371475100517273,4.51646737061739,0.010129392147064209
1746233128716695600,5.332695556640625,-0.07259566273979438,-0.02582574263215065,-0.06713861744974556,-0.06645449995994568,0.14056682085780653,0.9606830635746738,0.2728618035353466,right,-0.00023317337036132812,-0.4785146054217055,-0.6314027371965348,-8.68223738951385,-0.22982928598541816,0.0026317404117435217,0.0018828734755516052,4.51558152769357,0.00823161005973816
1746233128756695600,5.372695556640625,-0.07620225586078787,-0.03421837091445923,-0.06872623253764956,-0.09232667088508606,0.1403533623494462,0.9606418069846848,0.27155453985128686,right,-0.003571152687072754,-0.4786028232101703,-0.6626815264269709,-8.679506503245234,-0.22966287624633808,-0.010565497912466526,0.0002166852355003357,4.5163492971956725,0.004761785268783569
1746233128796695600,5.412695556640625,-0.08069465104355879,-0.02037510648369789,-0.07077094258302831,-0.09562632441520691,0.14028766827403677,0.9605183756602856,0.2703412484471587,right,-0.000039696693420410156,-0.47903534646340934,-0.7015089774712919,-8.674493643519282,-0.22959828160130405,-0.009633230045437813,0.002071388065814972,4.5201139104262,0.004273205995559692
1746233128836695600,5.452695556640625,-0.08524385081113187,-0.014821838587522507,-0.07290681888703673,-0.09837669879198074,0.14038432958375607,0.9603102266621802,0.2694472107139441,right,0.0019093751907348633,-0.47992893858095026,-0.7406194101754575,-8.66718478181064,-0.22974148417032572,-0.016486722975969315,0.002652972936630249,4.5278889283418655,0.0008872747421264648
1746233128876695300,5.4926953125,-0.08976581900836272,-0.008032670244574547,-0.07504251818810914,-0.11203111708164215,0.1406694017949446,0.9601350940254574,0.2689556159362166,right,-0.0009369850158691406,-0.48028094815647876,-0.7796614538185298,-8.662159062603116,-0.2296114303915412,0.00529693067073822,-0.003663688898086548,4.530950654000043,-0.003924906253814697
1746233128916695600,5.532695556640625,-0.09522058643591393,0.026012277230620384,-0.07765058053848369,-0.16884943842887878,0.14147675834075246,0.960011075644725,0.2693475280417368,right,-0.008573770523071289,-0.47935311624630883,-0.8272990379799157,-8.661958571594953,-0.2287649604604375,0.045197416096925735,-0.007151477038860321,4.522879283486306,-0.0097084641456604
1746233128956695600,5.572695556640625,-0.10138548528416869,0.0833011344075203,-0.08077049783146924,-0.20440544188022614,0.14355651064666564,0.9599041174454103,0.2722635561660178,right,-0.004489243030548096,-0.47648659263296245,-0.8819916552193462,-8.66955677163899,-0.226829788399325,0.0970626175403595,-0.0006075575947761536,4.497918152970075,-0.002996295690536499
1746233128996695600,5.612695556640625,-0.10709468153286486,0.11503572762012482,-0.08383987966206359,-0.19359718263149261,0.1465848004723332,0.959777629973229,0.2773061794411479,right,0.0006158351898193359,-0.4725249286102936,-0.9333706178661435,-8.682028715199232,-0.22430022753296316,0.1065436378121376,0.004055023193359375,4.463359757547081,0.008369266986846924
1746233129036695600,5.652695556640625,-0.11181936714089954,0.11160313338041306,-0.08653814641884063,-0.17665520310401917,0.14981377423659756,0.9595509043180139,0.28300669558647895,right,0.0018775463104248047,-0.46919010540929174,-0.9760353820510208,-8.692265447053312,-0.22210121735830496,0.08397257328033447,0.002939485013484955,4.434214911605418,0.009509533643722534
1746233129076695600,5.692695556640625,-0.11618619919221476,0.07481855899095535,-0.08901304635460168,-0.15454594790935516,0.15252812228848062,0.9592696595240425,0.28770909261174704,right,0.0028733015060424805,-0.4669471937840765,-1.0151339781869202,-8.697776903951167,-0.22048461774632383,0.06021980941295624,0.0018821880221366882,4.414585497505962,0.010182201862335205
1746233129116695300,5.7326953125,-0.12027578473294466,0.028161145746707916,-0.09119074691247527,-0.128668412566185,0.15435565697765324,0.9590561972706233,0.29062289124040447,right,-0.0012510418891906738,-0.4653034974258824,-1.0515649625487624,-8.700744521585106,-0.2192480686900667,0.033347826451063156,-0.0015367045998573303,4.400185800753533,0.01525348424911499
1746233129156695600,5.772695556640625,-0.12411503317932529,0.008299365639686584,-0.09308258411437988,-0.08860182762145996,0.1551606635683922,0.9588878683014286,0.2914414278871767,right,0.004128396511077881,-0.46469468913564843,-1.0852928984969854,-8.699300167995691,-0.2186201275141206,0.008789369836449623,-0.0013620853424072266,4.39484940816164,0.010545581579208374
1746233129196695600,5.812695556640625,-0.12681176652789125,-0.012556886300444603,-0.09434839794708855,-0.0482524111866951,0.1553318518616261,0.9587793954370543,0.29118338688549783,right,0.003941237926483154,-0.4647128276089599,-1.1087385098837315,-8.69626240773499,-0.21843162323341936,-0.0010163765400648117,-0.004728734493255615,4.3950083981156345,0.004462927579879761
1746233129236695600,5.852695556640625,-0.12891578497125142,-0.014086533337831497,-0.0952822960698549,-0.04563843086361885,0.15525850840172983,0.9587397995633123,0.2905540455624938,right,0.0006248354911804199,-0.46461743391876537,-1.1270870173271745,-8.694326471236348,-0.21825215177582843,0.007021999917924404,-0.0068353936076164246,4.394172239552438,0.0009555518627166748
1746233129276695600,5.892695556640625,-0.13108499365576426,-0.007563874125480652,-0.09624963696508136,-0.04590722173452377,0.15528170271823052,0.958717095141225,0.29012130904858313,right,0.0034464597702026367,-0.4642144915110605,-1.1461755294829605,-8.693615692618488,-0.21791044815848026,0.014325431548058987,-0.004020258784294128,4.390639096990228,0.0003573894500732422
1746233129316695600,5.932695556640625,-0.13256217323973893,0.0035668956115841866,-0.09692167320359417,-0.03404263034462929,0.1554899847446525,0.9587295358006875,0.29024542630166966,right,0.0010243654251098633,-0.46342423197495486,-1.1594745715171098,-8.69534996906519,-0.21740912077701838,0.01844833418726921,-0.002588719129562378,4.383708128683269,0.001131504774093628
1746233129356695300,5.9726953125,-0.13370162375375125,0.01102861762046814,-0.09745711688438827,-0.03208174183964729,0.15581801246625981,0.958752186472397,0.290702753918729,right,-0.0004647970199584961,-0.46246103676179484,-1.1699440161485224,-8.698203604930638,-0.2168343581405246,0.022743547335267067,-0.0038315951824188232,4.375256526680291,0.0008331537246704102
1746233129396695600,6.012695556640625,-0.13494090751445853,0.014827270060777664,-0.09806412951361602,-0.039317578077316284,0.15628240497111467,0.9587576856251405,0.2914258265490465,right,-0.0008214712142944336,-0.4614209105688665,-1.1813343019519,-8.701251886585354,-0.216201381772797,0.032319046556949615,-0.002740241587162018,4.366125710241496,-0.00008705258369445801
1746233129436695600,6.052695556640625,-0.13594925498045077,0.029320694506168365,-0.09859514854022579,-0.035471051931381226,0.15694297974336285,0.9587659888398152,0.29261985850511896,right,0.00041747093200683594,-0.46013203432785715,-1.1908692422121763,-8.70562411032021,-0.21544296772789467,0.03224300593137741,-0.0014545544981956482,4.354804105760157,0.0033783316612243652
1746233129476695600,6.092695556640625,-0.13652568100369658,0.031887635588645935,-0.09896658897723977,-0.02495657280087471,0.15770815527298673,0.9587424606217814,0.29412213429849177,right,0.0017277002334594727,-0.4590823324255756,-1.1965087094038724,-8.709460327482223,-0.2148178381511921,0.0274108424782753,-0.0002933591604232788,4.345578304514289,0.003185957670211792
1746233129516695600,6.132695556640625,-0.13656569170056485,0.018104128539562225,-0.09906781211004076,-0.008136479184031487,0.15831221368738654,0.9587410819925336,0.2954026833097347,right,0.0008145570755004883,-0.45821313649069084,-1.1973709522563964,-8.713151583215593,-0.2143326253611464,0.02381797321140766,0.000683516263961792,4.3379353885456915,0.004610031843185425
1746233129556695600,6.172695556640625,-0.13644343546694004,0.003527473658323288,-0.09903872520119031,-0.006668093614280224,0.15862258814728075,0.9587745660723386,0.2961013348163579,right,-0.0010061860084533691,-0.4575046811381575,-1.196723448133096,-8.716340150123834,-0.21396647716962264,0.017513038590550423,-0.000557631254196167,4.331703508418798,0.005511224269866943
1746233129596695300,6.2126953125,-0.13652181669982344,-0.0011250022798776627,-0.09904832906234992,-0.00014661159366369247,0.15866452043118792,0.9588320164692471,0.29619109945086325,right,0.0005197525024414062,-0.4569179583529207,-1.1977522797241806,-8.718762408834696,-0.2136732052112973,0.017014281824231148,-0.0003825649619102478,4.3265407188281415,0.001242905855178833
1746233129636695300,6.2526953125,-0.13659441324913976,-0.00384204532019794,-0.09902674835944428,-0.0029153458308428526,0.15867497258496852,0.9589352852665816,0.2962286114710526,right,-0.0006172060966491699,-0.45597537245912684,-1.1989400282040237,-8.722712023243307,-0.21321152574831378,0.029787501320242882,-0.0002779960632324219,4.31824343060404,0.00045108795166015625
1746233129676695600,6.292695556640625,-0.13705288599474771,-0.007839172147214413,-0.09914868965244707,-0.011232067830860615,0.15863355459572742,0.9590737901597711,0.29608430571687827,right,-0.00015056133270263672,-0.4546870320588487,-1.2036981094513088,-8.727665261736512,-0.21256161487289213,0.0342378206551075,-0.0006618201732635498,4.306896399420499,-0.000005424022674560547
1746233129716695600,6.332695556640625,-0.13745361536042247,-0.0044919513165950775,-0.09924884198125629,-0.011126543395221233,0.15866491282980902,0.9592235947774421,0.296111991937114,right,-0.0028391480445861816,-0.45320464807824345,-1.2080689449466764,-8.733497036629915,-0.21181416733382272,0.03570541366934776,-0.0013869330286979675,4.29383145840317,0.0000648796558380127
1746233129756695600,6.372695556640625,-0.13808453434325474,0.00003502704203128815,-0.0994718679354748,-0.02109983190894127,0.158777791930273,0.9593522811573522,0.29625988736359427,right,-0.0014442801475524902,-0.4517188424093927,-1.2144556503091006,-8.739042395797371,-0.21104070857709692,0.03515716642141342,-0.0018230229616165161,4.280726769897342,0.0017917156219482422
1746233129796695600,6.412695556640625,-0.138779933614899,0.007065624929964542,-0.09976436249173753,-0.018407654017210007,0.15901753380113876,0.9594345893084414,0.29665209696569717,right,0.0006553530693054199,-0.45043431956190993,-1.2212921452656387,-8.74363439976275,-0.21034680925304006,0.02608729898929596,-0.0011957362294197083,4.2693899678468705,0.002743959426879883
1746233129836695600,6.452695556640625,-0.13930167018854347,0.006304034031927586,-0.0999943828876245,-0.008184428326785564,0.15925404144129354,0.9594898050863996,0.29706610361567615,right,0.0008588433265686035,-0.44944192555060114,-1.2264414908528327,-8.747187708330154,-0.20980625773989547,0.02631811983883381,-0.001644134521484375,4.260626523415744,0.0011446177959442139
1746233129876695300,6.4926953125,-0.13965161127873196,-0.0007244925945997238,-0.10012082785530348,-0.005630260333418846,0.15939262331016338,0.9595731067814404,0.29731613718932887,right,0.0007536411285400391,-0.44839029833564825,-1.2301254400625825,-8.751189929708838,-0.2092589268977913,0.02702646702528,-0.000727236270904541,4.251335255718231,0.0008714795112609863
1746233129916695600,6.532695556640625,-0.1397204008041643,-0.006350604817271233,-0.10007618736209702,0.0014886772260069847,0.15936878695271536,0.959705459610607,0.2972935135598976,right,-0.000639796257019043,-0.44722067816424177,-1.2314191331349313,-8.756023341214656,-0.20869068727811987,0.02729243040084839,-0.0025139302015304565,4.240996232533455,0.0009166300296783447
1746233129956695600,6.572695556640625,-0.14002338079649343,-0.013267673552036285,-0.10012697660107255,-0.001195981865748763,0.15919973242949886,0.9598174705421101,0.2969058517000312,right,-0.00034922361373901367,-0.4463782161443057,-1.2345701445117592,-8.759184435594081,-0.20827975119147318,0.01598992943763733,-0.0007261186838150024,4.233545624266565,0.001334071159362793
1746233129996695600,6.612695556640625,-0.14038743689784847,-0.015116116963326931,-0.10021314408667467,-0.00253292266279459,0.15895779853550157,0.9598969520344363,0.2963395926586639,right,-0.0013576745986938477,-0.4459170798763058,-1.238031975403428,-8.760666783106327,-0.2080567830035567,0.005468300543725491,-0.0013930201530456543,4.229465953737497,0.0032136738300323486
1746233130036695600,6.652695556640625,-0.14076160221477113,-0.010355621576309204,-0.1003207171600096,-0.001642643241211772,0.15872141034205983,0.9599465051521523,0.2957735046571765,right,-0.0015813708305358887,-0.4457118746755176,-1.2414315547138453,-8.761061919903755,-0.20795649720031467,0.0029354256112128496,-0.0019702911376953125,4.227650136487186,0.0012636780738830566
1746233130076695600,6.692695556640625,-0.14121215205688642,-0.006329742725938559,-0.10049928073344681,-0.006127229891717434,0.15859542587730877,0.9599529449450303,0.2954135904782674,right,0.0007645487785339355,-0.4457077928042806,-1.2453811691224574,-8.760518899068236,-0.2079368490944705,-0.004802933894097805,-0.002089470624923706,4.22761418839097,0.0013784468173980713
1746233130116695300,6.7326953125,-0.1416048541899554,0.00016324128955602646,-0.10068544675137416,-0.0061392770148813725,0.15853395448592827,0.959913317480374,0.2951881224240891,right,0.0007158517837524414,-0.4460389513578884,-1.2486236581750214,-8.758642583802342,-0.20807675289341204,-0.007703217212110758,-0.0009148120880126953,4.230544104363024,0.0009684562683105469
1746233130156695600,6.772695556640625,-0.14192296983841085,-0.0040562390349805355,-0.10084627307805273,-0.007297865115106106,0.1585103965769578,0.959868630003538,0.29505728585338015,right,-0.0003317594528198242,-0.4463801734500904,-1.2512056374922393,-8.756815368375182,-0.20822269382701347,-0.007180964108556509,-0.0021009743213653564,4.23356286766231,0.001546323299407959
1746233130196695600,6.812695556640625,-0.14237181712518573,-0.0010969580616801977,-0.10105872266002762,-0.0040561724454164505,0.15847031457216246,0.9598307641904205,0.29486641024245086,right,0.0014832615852355957,-0.4466457959057954,-1.2549763882026075,-8.75513954411745,-0.2083248471340483,-0.006176284048706293,-0.0008658766746520996,4.2359123533979055,0.0014867782592773438
1746233130236695600,6.852695556640625,-0.14253962369871098,-0.0034446348436176777,-0.10114810004104406,-0.0024076879490166903,0.1584156760693066,0.9597884788661173,0.2947006518414258,right,-0.000288546085357666,-0.44705644628933305,-1.2561983312129974,-8.753206530228256,-0.20851794882978217,-0.015130072832107544,-0.00148850679397583,4.239543987898529,0.005402326583862305
1746233130276695600,6.892695556640625,-0.14266156612547096,0.0011349692940711975,-0.10122153311631785,0.0034907793160527945,0.15831928603345558,0.9597280117402962,0.2944487986162989,right,0.0023038387298583984,-0.44770462346327994,-1.2568747691698372,-8.75033126705289,-0.2088335852972994,-0.013410074636340141,-0.0007535666227340698,4.245274932765961,0.0038771331310272217
1746233130316695600,6.932695556640625,-0.14255528103374002,0.0007214407669380307,-0.10118595285048335,0.004872655030339956,0.1582760323992693,0.9596966034943549,0.2943675690678704,right,0.0006702542304992676,-0.4480809538372556,-1.2557175619587302,-8.748882237288356,-0.20902757752774687,-0.0028972160071134567,0.0005377978086471558,4.2486014468401665,0.004449576139450073
1746233130356695300,6.9726953125,-0.14262565866177462,-0.0028531644493341446,-0.10120113072252693,0.002545346971601248,0.1582028056194571,0.9597082993351962,0.29420030386052415,right,0.0017939209938049316,-0.44806348568444593,-1.2563438771635294,-8.748867624241113,-0.2090220463714725,0.0030158967711031437,0.0004913657903671265,4.248446840800344,0.0036304891109466553
1746233130396695600,7.012695556640625,-0.142691858574675,-0.003449995070695877,-0.10118961502979723,-0.0015203100629150867,0.1581053375166018,0.9597607319113315,0.2939958382064464,right,-0.0004666447639465332,-0.44771776125045215,-1.2571318126708269,-8.750237743550539,-0.20886045763184505,0.011539831757545471,-0.0003694593906402588,4.245390960361063,0.0025890767574310303
1746233130436695600,7.052695556640625,-0.143082553478696,-0.0029768357053399086,-0.10132026008071213,-0.015419038012623787,0.1580283125879704,0.9598189831955871,0.2937703319396915,right,-0.0038915276527404785,-0.4471919916321899,-1.2608685149811207,-8.751953899818659,-0.208587466570272,0.014331838116049767,-0.0008111894130706787,4.240742550033331,0.0029924511909484863
1746233130476695600,7.092695556640625,-0.14404612935990954,-0.0036616800352931023,-0.10173169649178262,-0.028806380927562714,0.15805083125186478,0.9598469277185077,0.29363008913276356,right,-0.004006862640380859,-0.4466171407437167,-1.2696508102431892,-8.75314573995173,-0.20824122855332325,0.012988329865038395,-0.000960424542427063,4.235658963158726,0.0018837153911590576
1746233130516695600,7.132695556640625,-0.14528805612885098,0.016964375972747803,-0.1023379104972264,-0.04511018097400665,0.15836162713861057,0.9598084374822546,0.29402767551540715,right,-0.004054129123687744,-0.44612464333715734,-1.2808224848598242,-8.753625632423162,-0.20788519422145757,0.013474310748279095,-0.0010218769311904907,4.231302229253948,0.0014274120330810547
1746233130556695600,7.172695556640625,-0.1466519980894633,0.034754544496536255,-0.10309493884385133,-0.05915398523211479,0.15915800510331196,0.9597034293923752,0.29541825859465015,right,-0.006505310535430908,-0.4454647372473229,-1.2931684639528394,-8.754631010073423,-0.20738726610746192,0.025034300982952118,-0.0037496089935302734,4.225463440097868,0.0007682442665100098
1746233130596695300,7.2126953125,-0.1492292838384601,-0.012340817600488663,-0.1043531232175095,-0.10960504412651062,0.16002318316798989,0.959670485040148,0.29673909169701695,right,-0.013937771320343018,-0.44365743429686283,-1.3168605974465608,-8.758806249931455,-0.20624154168802894,0.10017334669828415,-0.01758803427219391,4.209462445628643,-0.01225978136062622
1746233130636695300,7.2526953125,-0.15612292853035084,-0.09268009662628174,-0.1071214518695983,-0.21045836806297302,0.1603335174373944,0.9602168983757324,0.29625314881787296,right,-0.004775524139404297,-0.4359444497055952,-1.3822162821933626,-8.781332554516196,-0.2019941477553369,0.2817830443382263,-0.01763884723186493,4.141022238869965,-0.017488479614257812
1746233130676695600,7.292695556640625,-0.1676875569295057,-0.12273986637592316,-0.11134526798812942,-0.3181907832622528,0.16009606669187415,0.9617287330476291,0.29426773322704347,right,0.0012389421463012695,-0.4179447166005142,-1.4958739332944153,-8.836828816288708,-0.192482061203737,0.564807653427124,-0.012796059250831604,3.9803523689642546,-0.01128128170967102
1746233130716695600,7.332695556640625,-0.18167686110508005,-0.15342800319194794,-0.11641185477833389,-0.32506996393203735,0.16000819813118047,0.9636259368929626,0.2927796592862552,right,0.009918153285980225,-0.3935464638847618,-1.6364073163613677,-8.90792070659995,-0.17964049037692179,0.5973032712936401,0.006418734788894653,3.760518946950137,0.021194398403167725
1746233130756695600,7.372695556640625,-0.19391153954688387,-0.17452895641326904,-0.12066669180560703,-0.22610145807266235,0.15907251217702975,0.9653945169587793,0.2901385174117726,right,0.014953434467315674,-0.3707672382846443,-1.7613203748397528,-8.968976940587163,-0.1677765563202799,0.49400776624679565,0.01306334137916565,3.553250115215778,0.01772370934486389
1746233130796695600,7.412695556640625,-0.20236580689861947,-0.17528066039085388,-0.12332157751860809,-0.12974491715431213,0.15725081253694287,0.9669151896524792,0.2862622181705302,right,0.008421480655670166,-0.3526647621260162,-1.8497089985191821,-9.015305561041831,-0.15855317954186596,0.36474913358688354,0.0025694668292999268,3.3872152111455796,0.008076250553131104
1746233130836695600,7.452695556640625,-0.20719801798064205,-0.15665081143379211,-0.1245393450474449,-0.048713818192481995,0.15497431279560267,0.9681355495212903,0.28177133317424996,right,0.00650477409362793,-0.3399487352093808,-1.901958387324959,-9.047683397555351,-0.15227101354680633,0.23239421844482422,-0.002488657832145691,3.2699174499765036,0.004691630601882935
1746233130876695300,7.4926953125,-0.20845631692187847,-0.07352887839078903,-0.12448856037505454,0.02088792622089386,0.1530826775168559,0.9689181010706653,0.2781953167208922,right,0.003649890422821045,-0.3334176374487779,-1.9177204584717749,-9.065984193399547,-0.14921812008076024,0.06650616228580475,0.0017111897468566895,3.2094653193622826,0.015983253717422485
1746233130916695600,7.532695556640625,-0.20712684928010014,-0.02167908474802971,-0.12372378404656868,0.048971857875585556,0.15203987153147772,0.9691104683902568,0.27621018012791326,right,-0.0020560026168823242,-0.33388521341270855,-1.9053569437220692,-9.067056206545233,-0.1496703744596393,-0.08196847140789032,-0.003279551863670349,3.2137977956086394,0.009605079889297485
1746233130956695600,7.572695556640625,-0.2060035647091147,0.04351115599274635,-0.12332235945888752,0.024471374228596687,0.15173674211054639,0.9689359605467225,0.27549030717233397,right,0.0024736523628234863,-0.3372305748167731,-1.8929611341379582,-9.05861571045816,-0.1514289250954328,-0.035265639424324036,-0.009563013911247253,3.244774825413525,-0.029492825269699097
1746233130996695600,7.612695556640625,-0.2058080357135295,0.0810391753911972,-0.1234682050275279,-0.008957793936133385,0.1529981915307613,0.9686827340535863,0.2780634596374684,right,0.005346894264221191,-0.3380021185102492,-1.8906776993758976,-9.056532474443316,-0.1516606424610327,0.03122483193874359,0.004512175917625427,3.251913883513212,-0.0032592415809631348
1746233131036695600,7.652695556640625,-0.20502959362301387,0.05163421481847763,-0.1233025917273956,0.025045273825526237,0.15438109161586686,0.9685240437683087,0.281061605694761,right,0.011371970176696777,-0.3377381456072412,-1.8838018222570418,-9.058841335907578,-0.1514070257664173,0.01134311594069004,0.010960966348648071,3.2494717510581013,0.023096084594726562
1746233131076695600,7.692695556640625,-0.20347696271135549,0.02225125953555107,-0.12269458742142862,0.027808452025055885,0.1549403511523754,0.9684530291153346,0.2824048902651812,right,0.006031632423400879,-0.3384345916877793,-1.8692767455592751,-9.059536916956304,-0.1517834083794729,-0.014130763709545135,0.004462689161300659,3.2559149358481165,0.018107593059539795
1746233131116695300,7.7326953125,-0.20246153127163188,0.03353806585073471,-0.12234336448381988,0.005846098065376282,0.1554453170715534,0.9683466495761579,0.2835376010181567,right,0.011220157146453857,-0.33933041022265475,-1.8594892187774181,-9.058569533228873,-0.15222872537604398,-0.0035073189064860344,0.00912041962146759,3.264200241373479,0.013842880725860596
1746233131156695600,7.772695556640625,-0.20151047737642752,0.022211967036128044,-0.12202449327696224,0.021447818726301193,0.15602085233107982,0.9682400135114013,0.28482076147978214,right,0.01432114839553833,-0.3400485002804903,-1.8504035566546022,-9.05803469569981,-0.15257378366863084,-0.012466255575418472,0.013228252530097961,3.2708398255184292,0.011494219303131104
1746233131196695600,7.812695556640625,-0.19973444819397776,-0.020929137244820595,-0.12121091348854776,0.058324191719293594,0.15578756372969907,0.968269518197282,0.2845344900680284,right,-0.0008999109268188477,-0.34116261214252797,-1.833589199975878,-9.057729575273394,-0.1532716940561599,-0.0436902791261673,0.006851598620414734,3.2811379321709273,0.01200336217880249
1746233131236695600,7.852695556640625,-0.19883949287131808,-0.004316803067922592,-0.12080889160621516,0.030646251514554024,0.15515748361664858,0.9682283178271612,0.2832104583006166,right,-0.006811678409576416,-0.3433460633452505,-1.824062662217766,-9.052322747793793,-0.15448367056286758,-0.07128892093896866,-0.0003406256437301636,3.3013083212792873,-0.0009906589984893799
1746233131276695600,7.892695556640625,-0.19853275322400998,0.011972721666097641,-0.12083921083492133,-0.00006793811917304993,0.15505204110282303,0.967960422137438,0.2827794342308564,right,-0.020164668560028076,-0.3468436335587876,-1.8189973416522145,-9.041506754747033,-0.15623488331779647,-0.08469224721193314,-0.010696694254875183,3.3335856200277805,-0.008097946643829346
1746233131316695600,7.932695556640625,-0.199946304023222,0.049898479133844376,-0.12174834878632412,-0.0707649439573288,0.15569424586765904,0.9675699970122666,0.2836869748573619,right,-0.01821345090866089,-0.349383568326238,-1.8300886445090174,-9.030598407241701,-0.1573052334663461,-0.022841744124889374,-0.02205592393875122,3.3569998133629557,-0.022214561700820923
1746233131356695300,7.9726953125,-0.20247576555736482,0.07510775327682495,-0.12323504340558879,-0.0757296159863472,0.15730206551728199,0.9671331829099384,0.28655278033870357,right,-0.00020074844360351562,-0.35000532757996966,-1.8525052051089703,-9.023894525688887,-0.15723406231142292,-0.0009531155228614807,-0.016321107745170593,3.3627281278818844,-0.011803686618804932
1746233131396695600,8.012695556640624,-0.20334444674608781,0.0314277783036232,-0.12392858511165518,-0.00882565975189209,0.15836585518507842,0.9667421050849294,0.2884581305837124,right,0.007707536220550537,-0.35201452894649915,-1.8589751317754386,-9.015646337303519,-0.15802424947063504,-0.09190241992473602,-0.004960894584655762,3.381230291517079,0.008932441473007202
1746233131436695600,8.052695556640625,-0.20220712238173705,0.028185147792100906,-0.12360777723734537,0.055868230760097504,0.1582901582235613,0.9664516317626384,0.2881786462194333,right,0.02084791660308838,-0.35609568535759767,-1.8459335716336964,-9.004161651214957,-0.16011444469050498,-0.09732656180858612,-0.002462908625602722,3.418770333099365,-0.018341779708862305
1746233131476695600,8.092695556640624,-0.19868217465459823,0.07779696583747864,-0.1222580434448427,0.08421128243207932,0.1586409466496272,0.9661684763817295,0.2891618713614445,right,-0.004526793956756592,-0.36054555854431153,-1.811162264112383,-8.995609511446952,-0.1624946950322554,-0.11497674882411957,-0.00993068516254425,3.4596371810168027,-0.02203640341758728
1746233131516695600,8.132695556640625,-0.19502518946721462,0.15803450345993042,-0.12111399434936677,0.02860783413052559,0.16018119366168093,0.9655902509443708,0.29257470021192455,right,-0.020927250385284424,-0.36605579056037796,-1.7745321769818663,-8.983333967241645,-0.16525382568757674,-0.1314886510372162,-0.01576189696788788,3.5101468865484,-0.032791733741760254
1746233131556695600,8.172695556640624,-0.19116680915593978,0.2231253981590271,-0.12030620600287778,0.03780822455883026,0.16360295580747625,0.9645475165050909,0.2998456072539759,right,-0.006744980812072754,-0.3731070296714513,-1.7351118746109306,-8.965590805280208,-0.16854822764489572,-0.13611358404159546,-0.019164741039276123,3.5746266652435064,-0.04521024227142334
1746233131596695300,8.2126953125,-0.18506384008219534,0.25069352984428406,-0.11863431429471115,0.06939508020877838,0.16807179092877267,0.9634458419176026,0.3097698761250423,right,-0.00952446460723877,-0.37960222196723814,-1.6760554361388087,-8.953002541863917,-0.17160947712930597,-0.1545160710811615,-0.019623994827270508,3.633864743892848,-0.003049612045288086
1746233131636695300,8.2526953125,-0.17886246168173317,0.13970288634300232,-0.11676026042341917,0.09863824397325516,0.1711568796388719,0.9624704340316215,0.316847521413709,right,-0.00543743371963501,-0.3869565100867776,-1.615704281681031,-8.936683859747648,-0.17527970296829218,-0.1483173817396164,-0.016021251678466797,3.700752460512519,0.0010999739170074463
1746233131676695600,8.292695556640625,-0.17405570361071135,0.08167920261621475,-0.11517918592765977,0.07287660986185074,0.17259492663947848,0.9618258757521323,0.3203749079822337,right,-0.012495875358581543,-0.3930278246429137,-1.5688092595152556,-8.922052692326902,-0.17842545772590523,-0.13454560935497284,-0.013185232877731323,3.7558211445227263,0.00871160626411438
1746233131716695600,8.332695556640624,-0.17117604053802113,0.04645411670207977,-0.11431724625499891,0.012643694877624512,0.1734083780303394,0.9613083899396498,0.3223359578141912,right,-0.031055808067321777,-0.39799113162435973,-1.5399159041166304,-8.908054562112689,-0.18096176764118121,-0.08793791383504868,-0.011313661932945251,3.8007369755700227,0.011009395122528076
1746233131756695600,8.372695556640625,-0.17313216995329328,0.03259141370654106,-0.11540996779815019,-0.10863516479730606,0.1740201485885752,0.9610095962037424,0.3231822240796323,right,-0.024958014488220215,-0.39907603150864857,-1.556627092681825,-8.900958466371893,-0.1812676099971345,0.04685445874929428,-0.00901380181312561,3.810542330269515,-0.0064536333084106445
1746233131796695600,8.412695556640625,-0.1793116058917153,0.033773500472307205,-0.11838494158881291,-0.21356460452079773,0.17561376109765275,0.9607460826505435,0.325500426585671,right,-0.009117424488067627,-0.39618977817337564,-1.6135547024317085,-8.901954491671919,-0.17919720614643903,0.1063392385840416,0.004103928804397583,3.784446058243513,0.009331613779067993
1746233131836695600,8.452695556640625,-0.18755899243864152,-0.004425063729286194,-0.12211864035015732,-0.21924154460430145,0.176958839972712,0.9606511363150331,0.3270871337651113,right,0.013901889324188232,-0.39095711811489653,-1.690586211925,-8.90767754549384,-0.17584611594195715,0.1605321317911148,0.011516213417053223,3.7370547769933937,0.01221725344657898
1746233131876695300,8.4926953125,-0.19494325223478884,-0.0031804342288523912,-0.1253192750481627,-0.14963869750499725,0.17798857426283024,0.9607413619035604,0.3283015525506295,right,0.022649109363555908,-0.3845540496300315,-1.7609153011702,-8.918244532215594,-0.1720207998911196,0.1419316977262497,0.02126866579055786,3.678923782803118,0.026727646589279175
1746233131916695600,8.532695556640626,-0.19876530929796152,-0.038067422807216644,-0.12691827253722104,-0.03975774347782135,0.17825697556548573,0.9608441445411426,0.32841355049635024,right,0.018929481506347656,-0.38106100422392997,-1.797514993162453,-8.923992135956883,-0.16998461435906892,0.026165977120399475,0.02527730166912079,3.647148296096921,0.026425689458847046
1746233131956695600,8.572695556640625,-0.19767938915750555,-0.05446658283472061,-0.1262555523017075,0.09772248566150665,0.17730907612009975,0.9610557567647015,0.32662196009917155,right,0.02273106575012207,-0.381223532218253,-1.7877067158535123,-8.925357579091191,-0.17027312391626012,-0.03574374318122864,0.01126861572265625,3.6486277209997175,-0.0026848912239074707
1746233131996695600,8.612695556640626,-0.1932786093353065,-0.10074666142463684,-0.12421714405054626,0.1704517900943756,0.17608591700368362,0.9611500143651678,0.32462676966044945,right,0.011528253555297852,-0.38475620881528594,-1.745924360526353,-8.920432982170581,-0.17249513390732357,-0.16496028006076813,0.03195232152938843,3.6807615196242924,0.0343758761882782
1746233132036695600,8.652695556640625,-0.18931204754018566,-0.1809997856616974,-0.12209706708080875,0.17651674151420593,0.17255434549038076,0.9614178813787653,0.31762880199166255,right,-0.00019353628158569336,-0.3904979495489238,-1.7065220322035253,-8.906385167595744,-0.17604840391589235,-0.16476163268089294,0.037623122334480286,3.7328912275731563,0.032783955335617065
1746233132076695600,8.692695556640626,-0.1875477623752221,-0.2732633948326111,-0.1205161074570347,0.1327768713235855,0.16719612130810857,0.9620819947152444,0.30657660697829814,right,-0.003028571605682373,-0.3942019635917697,-1.6882164140537381,-8.895736347809434,-0.17866035947712494,-0.08418042957782745,0.013125196099281311,3.7664550590008496,0.02144944667816162
1746233132116695300,8.7326953125,-0.18778720165716944,-0.27920979261398315,-0.11953416139637751,0.051482751965522766,0.16169800113459795,0.9631321768451797,0.2951884428827396,right,-0.006187617778778076,-0.39295866942359536,-1.6912192491315303,-8.899925616192817,-0.17872229046072782,0.03616314381361008,-0.009138926863670349,3.7551945370569824,0.02727043628692627
1746233132156695600,8.772695556640626,-0.19071169884845987,-0.26730597019195557,-0.11955330135071757,0.01389559730887413,0.15633524400774648,0.9645046146543935,0.2839465776868534,right,0.0004004836082458496,-0.3865566488153318,-1.7217615407809614,-8.91836377468109,-0.1760595991925968,0.19354599714279175,-0.021656692028045654,3.6971208260118957,0.0036983489990234375
1746233132196695600,8.812695556640625,-0.19414217886676607,-0.280788391828537,-0.11970533694032921,0.008539561182260513,0.15175074371767258,0.9661962045667801,0.2746564678038696,right,0.012034118175506592,-0.37472123902816046,-1.7606645412795245,-8.95471460647881,-0.17060840038271907,0.2746514081954956,-0.005062595009803772,3.5893630466043946,0.016881465911865234
1746233132236695600,8.852695556640626,-0.19790704418222427,-0.23801521956920624,-0.12011183436440756,-0.0429500937461853,0.14733911058294102,0.9677677565052786,0.2657311418148903,right,-0.00992494821548462,-0.36306163330095226,-1.8024717387869953,-8.988447364732622,-0.16519645689895854,0.21204334497451782,-0.017126187682151794,3.482713812960684,0.0008680224418640137
1746233132276695600,8.892695556640625,-0.20153622142384134,-0.07432511448860168,-0.12098884574518096,-0.04507272690534592,0.14491757759020374,0.9687214673199198,0.2607730100399536,right,-0.012269020080566406,-0.3544824251091273,-1.8409939232744275,-9.010790129444002,-0.1610567155092854,0.15218625962734222,-0.024786949157714844,3.403937797887623,-0.01467403769493103
1746233132316695600,8.932695556640626,-0.20487080235802163,0.01524847000837326,-0.12234523996407792,-0.10651086270809174,0.1450146525443278,0.9689584560110988,0.26079830495726325,right,-0.01703697443008423,-0.34972625656563167,-1.8743031954191625,-9.020349984949826,-0.15849850974791835,0.08501580357551575,-0.016895607113838196,3.360157108350098,-0.005234479904174805
1746233132356695300,8.9726953125,-0.20765468144827573,0.1275242567062378,-0.12377370885269025,-0.08130961656570435,0.14666395783664285,0.9688409659358327,0.2640014630107343,right,-0.001766502857208252,-0.34660376938505133,-1.9015613508313893,-9.025320174577832,-0.15657844594804726,0.09169533848762512,-0.008057087659835815,3.331373204675317,-0.008169353008270264
1746233132396695600,9.012695556640624,-0.20946100071662935,0.1696203202009201,-0.12512829548672222,-0.11943598091602325,0.15003407328382556,0.9683035294710693,0.2707352863502043,right,-0.013257324695587158,-0.34579212646106944,-1.9184224692612886,-9.024512365326284,-0.1556304386752063,-0.000023305416107177734,0.004555463790893555,3.3238860637903214,0.019271939992904663
1746233132436695600,9.052695556640625,-0.21130665745240065,0.14204218983650208,-0.1266162726328461,-0.04953313618898392,0.15319372283188204,0.9675331474579164,0.2767938492428724,right,0.009323179721832275,-0.34790997542498237,-1.933594465560466,-9.014052930632234,-0.1561394110108554,-0.024625936523079872,0.009952813386917114,3.343418154995143,0.0047782957553863525
1746233132476695600,9.092695556640624,-0.21169382655035893,0.07355043292045593,-0.12729321731158436,-0.04251038655638695,0.1554055826917102,0.9669362101355129,0.28109304270143765,right,-0.012257754802703857,-0.350504025534746,-1.9352555306404828,-9.004794103899597,-0.15709778748152908,-0.06477619707584381,0.003947332501411438,3.3673218854129314,0.022918254137039185
1746233132516695600,9.132695556640625,-0.21414141447724666,-0.08938547968864441,-0.12855091894373227,-0.044346049427986145,0.15513571341467847,0.9666061095119685,0.27990215460083473,right,-0.024510085582733154,-0.3533494327223129,-1.9552455947458742,-8.99063113851249,-0.15836676583651424,-0.06440813094377518,0.00679585337638855,3.3935154803335665,0.02000284194946289
1746233132556695600,9.172695556640624,-0.21861292079602002,-0.15238922834396362,-0.13032285493790483,-0.09286348521709442,0.1528183171696755,0.9666587551953779,0.274293525450711,right,-0.010891377925872803,-0.3543048022918742,-1.9947236186534165,-8.978629735073447,-0.1588497446445102,-0.06274865567684174,0.00037300586700439453,3.402304059205949,0.015295833349227905
1746233132596695300,9.2126953125,-0.22219203013446365,-0.1432284265756607,-0.13154859336519792,0.0033884570002555847,0.14971211456446415,0.9668591579377335,0.26718355731521515,right,0.02766132354736328,-0.3553980942970017,-2.026025350368023,-8.967799128979443,-0.15957586516511665,-0.037575677037239075,-0.004267483949661255,3.4123575434476137,-0.0062934160232543945
1746233132636695300,9.2526953125,-0.2229290223691775,-0.11789989471435547,-0.13149107409226618,0.03836433216929436,0.14738583348191692,0.9672141905777886,0.262288024417035,right,0.024772822856903076,-0.35497527845602805,-2.0329528115436433,-8.967709697130323,-0.15963751616131255,0.023675229400396347,0.0004661977291107178,3.408469888359308,0.020378023386001587
1746233132676695600,9.292695556640625,-0.222092637243669,-0.1800033152103424,-0.13039269564175754,0.0830049216747284,0.14428384618034876,0.9680920540531849,0.2563863374778856,right,0.014744400978088379,-0.35077705567584033,-2.0285857023753224,-8.98328603644669,-0.15804309527877405,0.14480578899383545,-0.000044345855712890625,3.369836498582363,0.030688077211380005
1746233132716695600,9.332695556640624,-0.22068247566868363,-0.15793564915657043,-0.1288188788260418,0.03604206442832947,0.1412956849663901,0.9694084154587814,0.25127933561834875,right,-0.00938272476196289,-0.3414014777133972,-2.022742967696488,-9.016570466411114,-0.15391083141762107,0.24049310386180878,-0.009299248456954956,3.283345379087329,0.033526599407196045
1746233132756695600,9.372695556640625,-0.2216526117899675,-0.1471380889415741,-0.12840603690312183,0.028141431510448456,0.1387534513155017,0.9706013337415554,0.24683880823599977,right,0.007985174655914307,-0.33081827916636597,-2.039014595800638,-9.047996701288223,-0.14897130002249384,0.25873759388923645,0.022792905569076538,3.185367235416174,-0.004629701375961304
1746233132796695600,9.412695556640625,-0.22197464619112983,-0.0794459730386734,-0.1278032857627326,-0.036808595061302185,0.13688941575235045,0.9717061986413075,0.24392677561844436,right,-0.03314363956451416,-0.32013840453634496,-2.049301158145815,-9.080007458055018,-0.1439262722843857,0.21705421805381775,0.006259545683860779,3.0861326619431373,-0.042884260416030884
1746233132836695600,9.452695556640625,-0.22305863022118633,0.007413797080516815,-0.12801132711339197,-0.023408664390444756,0.1364325929508163,0.9721365408267706,0.24332834039967693,right,-0.012061893939971924,-0.3147158948767319,-2.0628141351915894,-9.093967009824514,-0.14124378958197056,0.05206187069416046,-0.0049414485692977905,3.0356127272784708,-0.06981149315834045
1746233132876695300,9.4926953125,-0.2240541473534826,0.10799634456634521,-0.1287201634906638,-0.0656827986240387,0.13776727190868074,0.9718225893824777,0.24584414457565254,right,-0.014779984951019287,-0.3156385560336422,-2.0712432331018147,-9.089174514850974,-0.14146444848213552,-0.057562991976737976,-0.003863781690597534,3.044215428189933,-0.04691389203071594
1746233132916695600,9.532695556640626,-0.22647937612882726,0.06225895136594772,-0.13026930591475377,-0.10162382572889328,0.13959299611832898,0.9712050810437728,0.24898007797668611,right,0.00039947032928466797,-0.31850813650168486,-2.0913101618357,-9.075574444043635,-0.14249344519702345,-0.03408796340227127,0.008479520678520203,3.0709535052508112,-0.0040062665939331055
1746233132956695600,9.572695556640625,-0.22947908370012077,-0.0194932222366333,-0.1317830879684426,-0.0935530886054039,0.14020631795553487,0.9709531963063408,0.24980623500157514,right,0.0016903877258300781,-0.3184792389715238,-2.118545082502812,-9.069346363309025,-0.14221539986455606,0.01369975134730339,-0.0010721981525421143,3.0706843329206106,0.029038041830062866
1746233132996695600,9.612695556640626,-0.23147162106294858,-0.047068819403648376,-0.13259016116054018,-0.0033996179699897766,0.13970795855369525,0.9710297547806012,0.24863081329798017,right,0.0063860416412353516,-0.3169975982187148,-2.1376532492071387,-9.069525811529159,-0.1414309696173411,0.024083495140075684,-0.011311933398246765,3.0568817252784966,0.017938315868377686
1746233133036695600,9.652695556640625,-0.23028061744046732,-0.06029631569981575,-0.1318484693601517,0.08479896187782288,0.13867367353980684,0.9712883297369616,0.2467280780508082,right,0.00012350082397460938,-0.3164383943486804,-2.1272396994814273,-9.073727939394116,-0.14136685204139307,-0.026696816086769104,-0.015810474753379822,3.0516707126319407,-0.002077549695968628
1746233133076695600,9.692695556640626,-0.22822136911716212,-0.04962032288312912,-0.13069684818509708,0.03790352866053581,0.1372636953294692,0.9715449386781396,0.2440543563911557,right,-0.026664674282073975,-0.3171827728451213,-2.108035671187192,-9.075874303773045,-0.1420475926276115,-0.03151340037584305,-0.028410300612449646,3.0586072338968515,-0.008766889572143555
1746233133116695300,9.7326953125,-0.2298360784103101,-0.061018723994493484,-0.13132857298457437,-0.06285864114761353,0.1359656718561635,0.9715399415185787,0.24102595115017475,right,-0.022496283054351807,-0.31843302009259983,-2.1218148979537186,-9.068727939149737,-0.14274574571111448,-0.030345924198627472,-0.027924224734306335,3.0702538325488566,-0.025548219680786133
1746233133156695600,9.772695556640626,-0.23400305844470703,0.028334464877843857,-0.13329018909704046,-0.09422175586223602,0.13578556447775156,0.9713167647683473,0.24002543008178995,right,0.0009412765502929688,-0.31861451877308106,-2.159456354083866,-9.059265698799491,-0.14261740051666935,0.0005592908710241318,-0.005845606327056885,3.07194426985383,-0.008230596780776978
1746233133196695600,9.812695556640625,-0.23612041551161492,0.036494653671979904,-0.13439645457390192,-0.05726249888539314,0.13665169101208263,0.9711239947695741,0.24156086673948302,right,0.015882253646850586,-0.3179858713698005,-2.179084599139541,-9.056548841056227,-0.14206375166422117,0.029220758005976677,0.006765246391296387,3.0660891140848396,0.021393269300460815
1746233133236695600,9.852695556640626,-0.23864643476523634,0.04804794862866402,-0.13564527006649085,-0.10237246751785278,0.13796683964756026,0.9710508035692518,0.24423411333841985,right,0.02929401397705078,-0.31467045094326557,-2.204345443254709,-9.060842738857865,-0.1400925785301573,0.1297467052936554,0.021076112985610962,3.035188948908448,0.05157846212387085
1746233133276695600,9.892695556640625,-0.2419241520176833,-0.008274722844362259,-0.1370398395615259,-0.13682839274406433,0.13929676423713935,0.9712855273136372,0.24732631013606624,right,0.011380672454833984,-0.3066126107499736,-2.239819053826481,-9.07701938215494,-0.13572350666966157,0.3016532063484192,0.004674211144447327,2.95995104483366,0.04445967078208923
1746233133316695600,9.932695556640626,-0.24713060117581717,-0.0384940505027771,-0.13905799750907755,-0.1775280088186264,0.140315395662362,0.9718184664655004,0.2501130511067809,right,0.004945218563079834,-0.2931991523258403,-2.2965537713527677,-9.102915455433726,-0.12862091915602678,0.3579619824886322,-0.0015052109956741333,2.8342823456823822,0.03966403007507324
1746233133356695300,9.9726953125,-0.2524342433609361,-0.0358346663415432,-0.14110317544176232,-0.09256831556558609,0.14076914932561785,0.9722737456778907,0.25164827316000365,right,0.008028566837310791,-0.28124134357092,-2.35309691182971,-9.122774586635828,-0.12230222631926203,0.22752627730369568,0.007923871278762817,2.7218206263676286,0.029007762670516968
1746233133396695600,10.012695556640624,-0.25372836836553275,-0.004491772502660751,-0.14151122429685906,-0.005679532885551453,0.14089368965115942,0.9725106993033888,0.2522800038344032,right,-0.0071863532066345215,-0.2763490263896673,-2.368215132115036,-9.13250219992399,-0.11977706239739631,0.024278849363327026,0.002191290259361267,2.67569600405246,0.010590553283691406
1746233133436695600,10.052695556640625,-0.25313518667185897,0.033241309225559235,-0.14133017738658837,0.03122454509139061,0.1408297756010043,0.9723940388219083,0.25195968936366675,right,0.013347089290618896,-0.2787347278612979,-2.361192101610452,-9.127699183556437,-0.1210067252978549,-0.10263949632644653,-0.005823254585266113,2.6981962974131104,-0.029829546809196472
1746233133476695600,10.092695556640624,-0.2519627245828174,0.06285660713911057,-0.1410605076672032,0.012739814817905426,0.14127664817599545,0.9720509430936817,0.25247217730439053,right,0.0045590996742248535,-0.28380780454724724,-2.347045795097202,-9.117087773171066,-0.12353058128225325,-0.09710357338190079,-0.016577422618865967,2.7459911910280583,-0.04344552755355835
1746233133516695600,10.132695556640625,-0.25101578504797595,0.11793335527181625,-0.14092728147771577,0.009609443135559559,0.1426427485753684,0.9716914888002369,0.2550676242460645,right,0.008987188339233398,-0.28691740487513223,-2.3362791941501198,-9.110991209861636,-0.12493290643674859,-0.02900310605764389,-0.009139850735664368,2.7752526490867138,-0.025741636753082275
1746233133556695600,10.172695556640624,-0.24893321268696764,0.1760791689157486,-0.14039151805297134,0.020030319690704346,0.14517930580653876,0.9712468065593086,0.26026271474112633,right,-0.013099133968353271,-0.2896817001444424,-2.3154009490333496,-9.108366706576943,-0.12606647137436874,-0.05271699279546738,-0.011157497763633728,2.801242538128793,0.0032590627670288086
1746233133596695300,10.2126953125,-0.2454599258252209,0.20246107876300812,-0.13940845373165517,0.06311958283185959,0.14853907469331284,0.9706042632832758,0.26713595128265505,right,-0.0028159618377685547,-0.294466035238757,-2.2804681673400102,-9.103249217432737,-0.1281746402945358,-0.08663785457611084,-0.0045623332262039185,2.8461735667452213,0.0013190209865570068
1746233133636695300,10.2526953125,-0.24068945182232326,0.105617456138134,-0.1377635801229289,0.08801961690187454,0.1513742580971284,0.9700867180776073,0.2731101889779183,right,0.00040602684020996094,-0.2994170507974526,-2.2336291131451724,-9.100227239263058,-0.13053241511704483,-0.08365821838378906,-0.003821328282356262,2.892601555921137,0.0015825629234313965
1746233133676695600,10.292695556640625,-0.23593971046489234,-0.0011424645781517029,-0.13567801256764428,0.0887012779712677,0.15165167684346337,0.9701202176579673,0.274059103747236,right,-0.002577662467956543,-0.30210120253054207,-2.188557653144747,-9.103152186799049,-0.13213584634386452,-0.02686747908592224,-0.0218975692987442,2.917742426918447,-0.008685648441314697
1746233133716695600,10.332695556640624,-0.23406054213502625,-0.0991755872964859,-0.13461704692677157,0.037202462553977966,0.1503283606477752,0.9704132150180401,0.27156083088519256,right,-0.014105618000030518,-0.302377396352914,-2.171260335254669,-9.106464672347903,-0.1325811823888525,-0.023482538759708405,-0.03987438976764679,2.92032835175842,-0.005015820264816284
1746233133756695600,10.372695556640625,-0.23772671748961333,-0.16993606090545654,-0.13588790781084303,-0.10621501505374908,0.14750740253778868,0.9707694643589521,0.2654258128816759,right,0.007245838642120361,-0.3005728742498119,-2.205868999560177,-9.103549661684037,-0.13184309487288381,0.06803357601165771,-0.0421808660030365,2.903430116188526,-0.036152005195617676
1746233133796695600,10.412695556640625,-0.24566685800077043,-0.12707333266735077,-0.13909105441803526,-0.1517016887664795,0.14506820000432166,0.9710515873928371,0.2598649794481118,right,0.027936220169067383,-0.29536249206279,-2.2817304423607885,-9.1002985509336,-0.1291029692189417,0.13649620115756989,-0.017990663647651672,2.854585421259701,-0.04463602602481842
1746233133836695600,10.452695556640625,-0.25124509750023,-0.00877169519662857,-0.1414306489780433,-0.0718894824385643,0.14424169313367402,0.9711593886715965,0.2579023211780629,right,0.019825398921966553,-0.2908860954370527,-2.33561181628257,-9.099714613565801,-0.1266531624931652,0.027615845203399658,0.006458491086959839,2.812559466435015,-0.007510513067245483
1746233133876695300,10.4926953125,-0.2495328589446878,0.16431006789207458,-0.1410162598241686,0.14560022950172424,0.14544301491145098,0.9707136613809124,0.2600528681195999,right,0.023298561573028564,-0.2960284398089249,-2.3164250313840804,-9.089564975473284,-0.12913388346114285,-0.2878633737564087,0.03159917891025543,2.8608324989557263,0.03720936179161072
1746233133916695600,10.532695556640626,-0.23899410010143848,0.26959028840065,-0.1372385612431932,0.2948002815246582,0.14783372117925933,0.9695603932891215,0.2644996257601984,right,0.010857343673706055,-0.3148906621359705,-2.2073371724165973,-9.059426442319154,-0.1387925593897103,-0.5304299592971802,0.01828216016292572,3.037242374306917,0.02049437165260315
1746233133956695600,10.572695556640625,-0.22534502113913216,0.33502277731895447,-0.1324703550757928,0.269247442483902,0.15148319243591987,0.9678861623942426,0.2718672430718624,right,0.0006755590438842773,-0.3382031862638004,-2.0670967809468506,-9.017230391624569,-0.15066778869942568,-0.49077939987182617,0.007624015212059021,3.2537741244271396,0.0037966370582580566
1746233133996695600,10.612695556640626,-0.2136076057377567,0.28195640444755554,-0.12858950998640883,0.17644667625427246,0.15575752659246345,0.9662204805233559,0.28098394805711824,right,-0.01035374402999878,-0.356912681194372,-1.9478703898027538,-8.979799947896598,-0.1600698729420119,-0.3228822350502014,0.004217997193336487,3.4262785167723893,0.017645150423049927
1746233134036695600,10.652695556640625,-0.20598688324042708,0.12972092628479004,-0.12611274491943508,0.1022077426314354,0.15865305627963525,0.9651092463115969,0.28736283578404087,right,-0.017125248908996582,-0.3683137884938755,-1.8712702574640512,-8.955561578696965,-0.16579805545780874,-0.18368850648403168,-0.0016009807586669922,3.530814119262993,0.029371798038482666
1746233134076695600,10.692695556640626,-0.20278294095278998,-0.006124779582023621,-0.12497508331965848,0.01957865059375763,0.1593648400579132,0.9647474266249493,0.2890620531199587,right,-0.013869643211364746,-0.37268594524123927,-1.8394409947440027,-8.94630450553,-0.16806732387775306,-0.02179446816444397,-0.01264961063861847,3.5707810957312582,0.003799945116043091
1746233134116695300,10.7326953125,-0.20323673160007383,-0.1060289517045021,-0.12498868749154132,-0.06281512975692749,0.15845065485532492,0.9649427837048741,0.28714222572008485,right,-0.0192374587059021,-0.37196148536229445,-1.8440221850544214,-8.94800020353198,-0.16779979512425777,0.028010651469230652,-0.036366552114486694,3.5641634311571715,-0.027080893516540527
1746233134156695600,10.772695556640626,-0.20857431816811275,-0.11678385734558105,-0.12719856156277448,-0.14453008770942688,0.15722680595279856,0.9650091614972245,0.283787893247923,right,-0.02032017707824707,-0.37055197687944796,-1.8927948376603423,-8.942935905879736,-0.1669061630342765,-0.06714007258415222,-0.02381262183189392,3.551282614535093,-0.033392101526260376
1746233134196695600,10.812695556640625,-0.21572196506021035,-0.1319393366575241,-0.1304004129193763,-0.09912388026714325,0.15490726667274027,0.9645537744518143,0.2773291058032457,right,-0.02419370412826538,-0.37561475308117404,-1.9527932331576943,-8.91150207221806,-0.1692205027010522,-0.2701231837272644,-0.0005793720483779907,3.5975159579217433,-0.043999314308166504
1746233134236695600,10.852695556640626,-0.22055395012540507,-0.03948993235826492,-0.1326040455422103,-0.05530595779418945,0.15234943438962228,0.9639456020237147,0.2704877645963092,right,-0.007560133934020996,-0.38375679242179583,-1.9893563925318418,-8.873085540062188,-0.173247505155041,-0.14368893206119537,-0.012577295303344727,3.671675126849115,-0.0689505934715271
1746233134276695600,10.892695556640625,-0.2221850561631223,0.16650894284248352,-0.13370819704796513,-0.04825330153107643,0.15372866718681816,0.9634528729730925,0.27288892605385756,right,0.009296000003814697,-0.38573187490582955,-2.0022247880637645,-8.862738333570956,-0.17392016785301628,0.015192404389381409,0.00395965576171875,3.6896281321689486,-0.013530641794204712
1746233134316695600,10.932695556640626,-0.21918010319798636,0.32328659296035767,-0.1332333694975366,-0.01118798553943634,0.15903916874581936,0.9628084203732202,0.284510162389747,right,0.006318807601928711,-0.38510597840368455,-1.9760854075483976,-8.870967232733964,-0.17307633561167912,0.06880336254835129,0.014016389846801758,3.683940441921353,0.02841895818710327
1746233134356695300,10.9726953125,-0.21249682613923349,0.3401625454425812,-0.13151096346954963,0.09116674959659576,0.16572678665371912,0.9617014335436803,0.2993470761036694,right,0.007698535919189453,-0.3884785929061584,-1.9141233107626436,-8.871779718160628,-0.17426980037239997,-0.08979146927595139,0.032196834683418274,3.7145711425065993,0.03913930058479309
1746233134396695600,11.012695556640624,-0.20216250586927917,0.279590368270874,-0.12814399888784878,0.1426893174648285,0.17098069757268403,0.9605021274697607,0.3115775829155299,right,-0.008207857608795166,-0.39659408398259255,-1.8162261233732104,-8.861263000321388,-0.17827067888367282,-0.17584168910980225,0.021299943327903748,3.788103703968227,0.042278796434402466
1746233134436695600,11.052695556640625,-0.1949066072531952,0.10168884694576263,-0.1258118994658529,0.07152650505304337,0.173799712393353,0.9595206504576071,0.3182582828621125,right,-0.011623084545135498,-0.40481267955896866,-1.745793719884008,-8.843364940059185,-0.18244236991664442,-0.11791299283504486,0.016455039381980896,3.8623160643875596,0.031786590814590454
1746233134476695600,11.092695556640624,-0.19294259419287715,-0.03770877420902252,-0.1251082414778065,-0.002299763262271881,0.1740621478177373,0.95931185460111,0.3190196220022053,right,-0.01249396800994873,-0.4073062455111204,-1.726569671715051,-8.837297018322348,-0.18376931666640037,0.0061292871832847595,0.012156575918197632,3.8847809941738842,0.031449466943740845
1746233134516695600,11.132695556640625,-0.19431743963941703,-0.07160314172506332,-0.12541352695118724,-0.056357767432928085,0.17301366016744446,0.9596512444930981,0.3167070998748254,right,-0.013743460178375244,-0.40519749474521016,-1.7402959992505609,-8.842932978382706,-0.18277669409984226,0.07085123658180237,0.002093687653541565,3.865784325020015,0.014233320951461792
1746233134556695600,11.172695556640624,-0.19576361253462057,0.014908768236637115,-0.12580787507156774,-0.04211745783686638,0.17275499568348765,0.9600004904654991,0.31613534303546736,right,-0.003571629524230957,-0.4015104750190478,-1.7558431124724447,-8.854328232622146,-0.18090681347887821,0.08212951570749283,-0.00668606162071228,3.8325288288891315,-0.0010268986225128174
1746233134596695300,11.2126953125,-0.19468412517880607,0.1373363584280014,-0.12554440548752344,-0.009698323905467987,0.17460275367935996,0.95989514336218,0.3203055144371122,right,0.00985342264175415,-0.39971589365137417,-1.7476117290914057,-8.862951684060691,-0.1798716515515617,0.05814287066459656,-0.00501684844493866,3.8163232517585155,-0.008665084838867188
1746233134636695300,11.2526953125,-0.19176120116004067,0.16370756924152374,-0.12475646055885463,0.008667493239045143,0.1777569212387902,0.9594901858258983,0.32745139771113196,right,0.009593725204467773,-0.3993204102431324,-1.7219861433170736,-8.869503005400299,-0.17949097616422074,0.01637910306453705,-0.00596560537815094,3.8127503617078062,0.004058152437210083
1746233134676695600,11.292695556640625,-0.18938744590945947,0.1139208972454071,-0.12426680128828159,-0.0020173322409391403,0.18030404227206528,0.9589225250480993,0.333083127643252,right,-0.002750873565673828,-0.40132742671023885,-1.6994832196079193,-8.86603211441934,-0.1803216722972122,-0.07153284549713135,-0.0024451613426208496,3.830876385506987,0.01793009042739868
1746233134716695600,11.332695556640624,-0.18841430469580195,0.04911911487579346,-0.12436166328425191,0.024994995445013046,0.1814447979529301,0.9582523433309212,0.3353481338164437,right,0.006005525588989258,-0.40628289625185365,-1.6872781102903187,-8.848925496795774,-0.18265960815342372,-0.15529632568359375,0.00839570164680481,3.875564253017306,0.020869702100753784
1746233134756695600,11.372695556640625,-0.1867393249644446,-0.0019720420241355896,-0.12396899830673767,0.05302446335554123,0.18114177074574328,0.9577107683295342,0.33464759062879357,right,-0.0024465322494506836,-0.41288112294352175,-1.6676700312398374,-8.82641906595528,-0.18603637539357443,-0.13730178773403168,0.0060906559228897095,3.934918651522696,0.002873927354812622
1746233134796695600,11.412695556640625,-0.18529208854195464,0.021613366901874542,-0.12340433535924561,0.016518838703632355,0.18100305818441276,0.9576001523358478,0.3345269351092851,right,-0.0012496113777160645,-0.4148269444699303,-1.653480616237223,-8.821281118544936,-0.18711277005777321,0.048015207052230835,0.00975741446018219,3.9523897185444827,-0.010982722043991089
1746233134836695600,11.452695556640625,-0.1852105484688715,0.0068105487152934074,-0.12318442878945854,-0.03605378791689873,0.18172052473189973,0.9579640603514052,0.33631918936395433,right,0.0024854540824890137,-0.41000188820182665,-1.656253880342841,-8.840057715207339,-0.1846837455918169,0.1835196167230606,0.01451881229877472,3.909039529378712,0.0039352476596832275
1746233134876695300,11.4926953125,-0.18640634169786,-0.012095003388822079,-0.1232192090470187,-0.008948691189289093,0.18201269970947312,0.9587188738231958,0.3371993238289733,right,0.026261329650878906,-0.40147098210556514,-1.6729431493371725,-8.870518319922684,-0.1804063070032773,0.23817218840122223,0.012492731213569641,3.8321722705364225,-0.011306792497634888
1746233134916695600,11.532695556640626,-0.18332208165983485,-0.018997887149453163,-0.1211485495322543,0.13346531987190247,0.181969533965146,0.959789269549762,0.33823060571626995,right,0.021146535873413086,-0.3921189335186065,-1.652037431691587,-8.910485588651895,-0.17610985113752303,0.207957461476326,-0.012933909893035889,3.747585815618932,-0.013361871242523193
1746233134956695600,11.572695556640625,-0.17812442541889126,-0.024640828371047974,-0.11815502494772474,0.12914633750915527,0.18116548635609428,0.9607811483019185,0.337864194895328,right,-0.008900463581085205,-0.38578843941444163,-1.6098730913095176,-8.942121666887402,-0.17354551545059752,0.09639214724302292,-0.017567232251167297,3.690142219170928,-0.011367321014404297
1746233134996695600,11.612695556640626,-0.17390213258160106,-0.04888635873794556,-0.11586478203399282,0.11858980357646942,0.18017975450520785,0.9613530105448755,0.33669371015711635,right,-0.012077391147613525,-0.3836208875746753,-1.5734828042842446,-8.956696135684847,-0.1729477315606788,0.01673632115125656,-0.014195725321769714,3.670439447574317,0.00902065634727478
1746233135036695600,11.652695556640625,-0.17173140745934676,-0.05219455063343048,-0.11454181198048861,0.08048585057258606,0.17867445711077107,0.9617827799377514,0.33398642673941104,right,0.010706841945648193,-0.38300634697625724,-1.55442183772251,-8.962311637479067,-0.17300127009598124,0.02676309645175934,-0.009927883744239807,3.6648502492651343,0.018666774034500122
1746233135076695600,11.692695556640626,-0.1708680672804706,-0.025796208530664444,-0.11389820580226606,0.02903580665588379,0.17782631495022982,0.9621002372746138,0.33244791932060885,right,-0.0021761059761047363,-0.3817004217520374,-1.5474961301125585,-8.968359100949764,-0.17253444321907638,0.008998904377222061,-0.01294766366481781,3.652968088291585,0.039186954498291016
1746233135116695300,11.7326953125,-0.17062841759842978,0.013312045484781265,-0.11371227061792398,-0.00977914035320282,0.17746083253636738,0.9621898879091021,0.33173807293128327,right,-0.003807246685028076,-0.3815713975769389,-1.545426922623068,-8.969194382730127,-0.17253370044766136,0.006169702857732773,-0.02552199363708496,3.651793783815205,0.025788038969039917
1746233135156695600,11.772695556640626,-0.1715370291200245,0.08232122659683228,-0.11440909111355498,-0.08009159564971924,0.178785470156629,0.9618568093783371,0.33430068546630126,right,-0.00891268253326416,-0.3821007303596941,-1.5532456335499882,-8.965880143615603,-0.17256266941041942,-0.015335259959101677,-0.010511085391044617,3.656611120969057,0.03336012363433838
1746233135196695600,11.812695556640625,-0.17456457839005785,0.019040308892726898,-0.11617363190694256,-0.08097433298826218,0.1802232617215608,0.9613270827263031,0.3366707119984716,right,0.013548076152801514,-0.3835183191062715,-1.5794811679162084,-8.956022766467928,-0.17283978039699743,-0.0036099236458539963,0.014329925179481506,3.6695065506383773,0.011710047721862793
1746233135236695600,11.852695556640626,-0.1772409406343569,-0.020313728600740433,-0.11746239364595201,-0.05260907858610153,0.18070713118696555,0.9611829359282213,0.3372315235093543,right,0.009131908416748047,-0.3828951238285109,-1.6038479858011006,-8.954012595689296,-0.1722642556161817,0.024008067324757576,0.014464959502220154,3.663838441874087,-0.0025196075439453125
1746233135276695600,11.892695556640625,-0.18061954317249582,0.015926722437143326,-0.11882520337404122,-0.04888150468468666,0.1804383250913237,0.9613122116922405,0.3362031359374298,right,0.0190657377243042,-0.38054650559958736,-1.6356320942051708,-8.956983135932683,-0.17088448948903126,0.09600068628787994,-0.010445863008499146,3.6424639376729724,-0.0396847128868103
1746233135316695600,11.932695556640626,-0.18137448447783813,0.15302422642707825,-0.11953642025440686,-0.02787301316857338,0.1825685387737901,0.9609023833047994,0.3405173699097227,right,0.0012505650520324707,-0.38027981839558156,-1.642568761600554,-8.956700811859966,-0.17042997232354515,-0.04115299880504608,-0.019714519381523132,3.6400358337432146,-0.018097668886184692
1746233135356695300,11.9726953125,-0.17976891560679428,0.25954103469848633,-0.11985401944737943,-0.023274186998605728,0.18673989016638234,0.9597367264393946,0.34923302719920063,right,-0.008160531520843506,-0.3848114019182001,-1.6252200057841837,-8.943005463984608,-0.17224582309887052,-0.1211702972650528,-0.03225432336330414,3.6812630394056436,-0.01237979531288147
1746233135396695600,12.012695556640624,-0.1781822010270042,0.4021216034889221,-0.12070729400886374,-0.19330385327339172,0.1929678832982826,0.9579588874366838,0.3621659139538362,right,-0.03735107183456421,-0.3911257875647365,-1.6068759553201495,-8.922517971751093,-0.1746652008964216,-0.06867632269859314,-0.06685367226600647,3.738583886256814,-0.03341054916381836
1746233135436695600,12.052695556640625,-0.1838944921370858,0.46435093879699707,-0.1254689734254442,-0.3965270519256592,0.20275731590015061,0.955261110855681,0.38135805728038114,right,-0.023404359817504883,-0.39543710237990926,-1.6548546810694038,-8.897264288029074,-0.17499513361819644,-0.0254146046936512,-0.01625370979309082,3.77763550144583,0.01785162091255188
1746233135476695600,12.092695556640624,-0.19323105513988031,0.2953656315803528,-0.13173111768322252,-0.29641687870025635,0.21141872065531664,0.9525003269423756,0.3975519267380962,right,0.019290268421173096,-0.4000248834431936,-1.734504848628491,-8.864324141457676,-0.17519175751161498,-0.09018777310848236,0.03484223783016205,3.819114636042714,0.04630923271179199
1746233135516695600,12.132695556640625,-0.19676325938444558,0.08448809385299683,-0.13449622708261802,0.03788420557975769,0.21477660217540526,0.9509456727700761,0.40359744731320724,right,0.050148963928222656,-0.4063292796603287,-1.7610624545559286,-8.834353950607776,-0.17743751318693893,-0.13471266627311707,0.031747832894325256,3.875982186168432,0.014472752809524536
1746233135556695600,12.172695556640624,-0.1913762225356592,0.03614283353090286,-0.13243435619445623,0.1694931536912918,0.2150388733361541,0.9506947967969852,0.40492378255484246,right,0.0218697190284729,-0.4106449485689629,-1.7102485053807497,-8.827208170506358,-0.17999660483160043,-0.05075997859239578,-0.02938847243785858,3.9148222044333814,-0.005679994821548462
1746233135596695300,12.2126953125,-0.18575287811169955,0.05986814573407173,-0.1300317247297989,0.07295992970466614,0.21532526301318053,0.9507370806326108,0.40652061069842993,right,-0.0004869699478149414,-0.4120677607497155,-1.6595529218882321,-8.831202208578587,-0.18117870717495463,-0.010128788650035858,-0.036962926387786865,3.927611251118779,-0.002940237522125244
1746233135636695300,12.2526953125,-0.18328227289251786,0.09739543497562408,-0.12925105089471964,-0.000022977590560913086,0.21667360366950408,0.9504260649734215,0.4097748798335374,right,0.0015975236892700195,-0.41316595358299435,-1.6369423000209034,-8.831029190099239,-0.18176074825269126,-0.02128496579825878,-0.0030037611722946167,3.937477103833854,0.013179302215576172
1746233135676695600,12.292695556640625,-0.1819385374865682,0.09090370684862137,-0.12917438024250344,0.018142402172088623,0.2185360335935224,0.9498392757345704,0.41385225457614083,right,0.007221996784210205,-0.4152691501458076,-1.6235722385771572,-8.82505654543042,-0.18265074678097865,-0.050301097333431244,0.03535240888595581,3.956358037653565,0.02505350112915039
1746233135716695600,12.332695556640624,-0.17875866385899797,0.09333257377147675,-0.12815058332059973,0.044671304523944855,0.2200731748366646,0.9494612744374183,0.41763191792007176,right,0.007123470306396484,-0.41680117685807405,-1.5944219858080149,-8.824199636340142,-0.18348960601937656,0.016248412430286407,0.038354091346263885,3.9701007318019865,0.01171460747718811
1746233135756695600,12.372695556640625,-0.1744859600511656,0.08352253586053848,-0.12634307266259823,0.05242105945944786,0.22162217469520593,0.949463204647372,0.42179495655455473,right,0.01224738359451294,-0.41506912614487035,-1.5578957974433898,-8.837690401554108,-0.18286771574906024,0.11831692606210709,0.013989806175231934,3.9545632631912824,-0.01194983720779419
1746233135796695600,12.412695556640625,-0.1719412142305564,0.040379807353019714,-0.12517773801512472,-0.03929862007498741,0.22340927152136644,0.94954781247386,0.4262068176131864,right,-0.014878511428833008,-0.41125086424103174,-1.5379733917467295,-8.856438941165804,-0.1810464257012474,0.06607136130332947,0.008882224559783936,3.9202696561843156,0.00890815258026123
1746233135836695600,12.452695556640625,-0.17266843975906,-0.0431281179189682,-0.12533886205598643,-0.06800728291273117,0.22376093136697445,0.9497060634561811,0.42691820095112265,right,-0.03277832269668579,-0.40862804982244794,-1.546174818380922,-8.865417197391391,-0.17966549929179015,0.014395207166671753,-0.0002464205026626587,3.8966798140212893,0.014939188957214355
1746233135876695300,12.4926953125,-0.1773903161015681,-0.16748157143592834,-0.12718872634477607,-0.055228009819984436,0.22166599878799495,0.949902177269013,0.42157259110539175,right,-0.01493978500366211,-0.4095639935452558,-1.587374551514536,-8.854423509690164,-0.1799251520686026,-0.09183863550424576,-0.0034965872764587402,3.905100728625059,0.0026995837688446045
1746233135916695600,12.532695556640626,-0.18211948935811914,-0.2918350100517273,-0.1290375856755823,-0.0424487367272377,0.21956935328019483,0.9500908571814165,0.4162202060403643,right,0.002886354923248291,-0.4104768038376788,-1.6285845137812196,-8.843308241435885,-0.18018338368709344,-0.19807247817516327,-0.006745755672454834,3.913310338565707,-0.00951850414276123
1746233135956695600,12.572695556640625,-0.1905353484612436,-0.3411730229854584,-0.13217598295497393,0.014200009405612946,0.21286232223253304,0.9505434946648144,0.4001575413623478,right,0.017919421195983887,-0.41718946183755934,-1.6979367208182812,-8.803297133564948,-0.18353815646494645,-0.2504281997680664,-0.019096702337265015,3.9735821441769597,-0.0209275484085083
1746233135996695600,12.612695556640626,-0.18954141036872824,-0.042618125677108765,-0.13119975820812319,0.037127673625946045,0.2084947159364637,0.9511317583987952,0.3909502679266701,right,-0.02792900800704956,-0.421229203295949,-1.686147791086137,-8.789144105049967,-0.18618535281595788,-0.02075238525867462,-0.08442415297031403,4.009768140801787,-0.028934240341186523
1746233136036695600,12.652695556640625,-0.18910277590547667,0.08037495613098145,-0.13086676547452913,0.03423744812607765,0.20862106636073624,0.9513304217578201,0.39140533282436724,right,0.005918562412261963,-0.41926736889475413,-1.6837679102122782,-8.797592199921608,-0.18526068857718975,0.14084574580192566,-0.030033305287361145,3.9922029657557605,-0.03313779830932617
1746233136076695600,12.692695556640626,-0.18331289114665286,0.3975939154624939,-0.12846652202011477,-0.10376328229904175,0.21448707037420664,0.9513850058408839,0.40539081989989073,right,-0.046298086643218994,-0.40866649635218366,-1.640425612092018,-8.848309410724044,-0.1798836285911685,0.3906508684158325,0.0002511739730834961,3.8970255587190388,0.01143309473991394
1746233136116695300,12.7326953125,-0.1816874279309891,0.26051607728004456,-0.12841779138907564,-0.14606373012065887,0.22276563150857315,0.9505372692906034,0.42357569294872105,right,-0.03006422519683838,-0.3989780734785273,-1.632786495515704,-8.887682805213332,-0.1742502647630218,0.21411938965320587,0.04827880859375,3.809657071867585,0.0687582790851593
1746233136156695600,12.772695556640626,-0.1841572716671938,0.06934738159179688,-0.12971404964154956,-0.0739559754729271,0.226513208734927,0.9501141023351104,0.4312913100921971,right,0.017810523509979248,-0.3932503138623943,-1.6587014196254313,-8.904929123568534,-0.17073147020473908,0.19239556789398193,0.06016175448894501,3.7578365759983656,0.03229907155036926
1746233136196695600,12.812695556640625,-0.18268179587168873,0.0776529461145401,-0.1287115197883032,-0.0009873360395431519,0.22867563383463696,0.9504140645088858,0.43647770397831864,right,0.013718724250793457,-0.3855891736112741,-1.6507422773145137,-8.935415447247028,-0.16689501545699356,0.2133096605539322,-0.006512299180030823,3.6883316626176237,0.0008186697959899902
1746233136236695600,12.852695556640626,-0.18252083288594592,0.11601602286100388,-0.12844357283967217,-0.0991983562707901,0.23128541087747975,0.9504530702169541,0.44233131546321086,right,-0.0024512410163879395,-0.37871212789614367,-1.6538688849024474,-8.960413110381364,-0.16324315294714042,0.15833672881126404,-0.01630038022994995,3.625755671717226,-0.008272320032119751
1746233136276695600,12.892695556640625,-0.18425989494933911,0.10739355534315109,-0.12935014887980892,-0.07852744311094284,0.23418492630230356,0.9500530851594389,0.4483371541429933,right,0.019722700119018555,-0.3746368310587714,-1.6721425004787742,-8.971974368837476,-0.1607020008018853,0.120016910135746,-0.0077608078718185425,3.5885926467537876,-0.04139739274978638
1746233136316695600,12.932695556640626,-0.18355246395936342,0.09498192369937897,-0.12923974341065209,-0.0021280720829963684,0.23643557763721537,0.9496863569886097,0.4532779149130312,right,0.0010547637939453125,-0.37295282434724636,-1.666895685866475,-8.979084493103622,-0.15965960832863557,-0.004449702799320221,-0.013402551412582397,3.573218552011251,-0.015849530696868896
1746233136356695300,12.9726953125,-0.1832764513182804,0.016529835760593414,-0.12955762554873373,-0.060437560081481934,0.23754801640717074,0.9491724288468083,0.4555408095447297,right,-0.027580857276916504,-0.3755791884005627,-1.662701156786084,-8.97028568509817,-0.16080276019723946,-0.11253189295530319,-0.001497223973274231,3.597191548272967,0.02005133032798767
1746233136396695600,13.012695556640624,-0.18601388807851477,-0.04772020876407623,-0.13101154148993474,-0.018401723355054855,0.23701601405481815,0.9489066920686192,0.45381348631217805,right,0.0054833292961120605,-0.37847011118314616,-1.6853202542208134,-8.95544292075336,-0.16197357342774263,-0.04968755692243576,0.026432141661643982,3.6235505628883837,0.03133445978164673
1746233136436695600,13.052695556640625,-0.18719385577973144,-0.06862495094537735,-0.13140825487690555,0.0006198454648256302,0.2358315114095709,0.9490934342352823,0.45108716438749363,right,0.002684354782104492,-0.3790419056253363,-1.695500287451595,-8.951410888758302,-0.16228651738231523,-0.0068303681910037994,0.023749396204948425,3.62876040649116,0.04258370399475098
1746233136476695600,13.092695556640624,-0.1875392400801227,-0.06981169432401657,-0.13117672863657384,0.012217196635901928,0.2344391547178095,0.9495744673121242,0.4481750184150336,right,0.00763624906539917,-0.37745264051479616,-1.699665005915612,-8.956479862585663,-0.16167647385984218,0.057424839586019516,0.010628700256347656,3.6142768308475612,0.023554354906082153
1746233136516695600,13.132695556640625,-0.18761722031492106,-0.11119124293327332,-0.1307198828031986,0.03234802931547165,0.2327817724037565,0.9501887218549672,0.4447850182723674,right,0.008448779582977295,-0.37524093900113237,-1.7018502410002052,-8.964178600394725,-0.16083031453906588,0.02907199040055275,0.004109248518943787,3.594105272695422,0.014643698930740356
1746233136556695600,13.172695556640624,-0.18782791647014288,-0.06727679073810577,-0.1302978824840664,0.008035076782107353,0.23135601215368287,0.9508045158326834,0.4419015186453997,right,0.006658434867858887,-0.3723013183201307,-1.7057042860798537,-8.974160480704903,-0.1595857258154671,0.1152256578207016,-0.0019793957471847534,3.567267826913297,-0.026471376419067383
