time,seconds_elapsed,roll,rotationRateZ,quaternionY,rotationRateY,quaternionZ,quaternionW,yaw,devicelocation,accelerationZ,pitch,gravityX,gravityZ,quaternionX,rotationRateX,accelerationX,gravityY,accelerationY
1746233059445762800,0.2347626953125,-0.7270774600266542,0.08088304102420807,-0.34895534207564677,0.07982063293457031,1.5508996534139724e-17,0.9299146985809106,-0.08311190937626356,right,-0.21631592512130737,-0.21771952673828326,-6.364490023484826,-7.153780452522635,-0.11614159333238389,-0.2105887234210968,0.5413543581962585,2.1182710878670212,0.11603140830993652
1746233059485762800,0.2747626953125,-0.2617868271151994,0.10979612916707993,-0.1401412718795244,0.004835054278373718,0.09160678004541925,0.9737403353518773,0.14347211922939104,right,-0.03487807512283325,-0.3321837826358688,-2.3992808631166813,-8.954688302993773,-0.15426721718628134,-0.24973933398723602,0.14083918929100037,3.1980288563296195,0.007006317377090454
1746233059525763000,0.31476318359375,-0.14348798179729838,0.10957697033882141,-0.08770201444959197,-0.08854915201663971,0.11371941280214004,0.9765635209808927,0.2072148795495413,right,-0.017836570739746094,-0.33954313940323516,-1.3222503276608883,-9.1517318010509,-0.1603118998391825,-0.22707818448543549,0.03154703974723816,3.26616686527133,-0.00012189149856567383
1746233059565763000,0.35476318359375,-0.12379314066514356,0.07526534795761108,-0.07922336888518065,-0.12729117274284363,0.11871501459870942,0.9764967724296267,0.22063062387579416,right,-0.015554249286651611,-0.34079029748689726,-1.141259846521169,-9.171947490605712,-0.16150695357181014,-0.1419905722141266,0.009871497750282288,3.2776965595453977,0.00005817413330078125
1746233059605763000,0.39476318359375,-0.11814311359251604,0.017312999814748764,-0.07693827589503707,-0.14217770099639893,0.12125591749306952,0.9763894838789882,0.22678881214262656,right,-0.007723629474639893,-0.3403143238337781,-1.0896038935638963,-9.179797035062313,-0.16137257142643618,-0.04153952747583389,0.00003915280103683472,3.2732968632817268,-0.002513885498046875
1746233059645762800,0.4347626953125,-0.11837403234717546,-0.01661578193306923,-0.07713347186726403,-0.1273128092288971,0.12255319477355046,0.976446901629226,0.22951397662842424,right,0.0077705979347229,-0.33764130628635003,-1.092753078309819,-9.188200706270337,-0.15994550738456764,0.03165093809366226,-0.005255788564682007,3.2485750944793224,-0.0009595155715942383
1746233059685762800,0.4747626953125,-0.12009787183471193,-0.022392410784959793,-0.07790588565572408,-0.07500529289245605,0.12265975857894736,0.976495901236347,0.22950398821889104,right,0.011268138885498047,-0.3363093648688399,-1.1091078546527773,-9.190590816277265,-0.15918839532682813,0.028858477249741554,-0.005371958017349243,3.236247820086777,-0.007507801055908203
1746233059725762800,0.5147626953125,-0.12175591120105161,-0.012061926536262035,-0.07859073995208152,-0.0036537274718284607,0.12249474319481915,0.9766016141375505,0.22896196705572547,right,0.010914444923400879,-0.33471572820644413,-1.1249696598470211,-9.193847187724709,-0.1583280110786076,0.0415043868124485,-0.009939998388290405,3.2214909804597496,-0.012532860040664673
1746233059765762800,0.5547626953125,-0.12181757042521552,-0.010353188961744308,-0.07849361047306581,0.051921579986810684,0.12219379000959683,0.9767729002077875,0.22840347388750779,right,0.006252944469451904,-0.33308958666275595,-1.126171582982689,-9.198965261390805,-0.15755018049398004,0.03666023164987564,-0.0068582817912101746,3.2064249287530777,-0.005028247833251953
1746233059805763000,0.59476318359375,-0.12095372226075113,-0.022391892969608307,-0.07794279770454611,0.08935043960809708,0.12163681052649855,0.9769549288424767,0.22744599543213453,right,0.00018346309661865234,-0.3320393338898606,-1.1186303738228975,-9.203272603195906,-0.1571260934078658,0.005549492314457893,-0.003483131527900696,3.1966897166803476,0.00021263957023620605
1746233059845763000,0.63476318359375,-0.11857502834037613,-0.03144034370779991,-0.07661824913984143,0.1200365275144577,0.12049915551326688,0.9771812481518278,0.2255081736315249,right,-0.00749361515045166,-0.33183865077759006,-1.0968113407246767,-9.206544172212482,-0.1572466996856347,-0.026144905015826225,-0.002230815589427948,3.194829183505475,-0.0003101825714111328
1746233059885762800,0.6747626953125,-0.11474182439593908,-0.05540953576564789,-0.07455267379500861,0.09185713529586792,0.11868454485199256,0.9774204694437835,0.22236983812211747,right,-0.015834391117095947,-0.3329333330932371,-1.0611118124425412,-9.207201174816488,-0.15813060856368644,-0.0038872119039297104,-0.006225742399692535,3.2049767757713794,-0.012818694114685059
1746233059925762800,0.7147626953125,-0.11383216897214918,-0.0524778738617897,-0.07391350824266081,0.04504799097776413,0.11772284741460516,0.9776520811421433,0.2205912123523941,right,-0.01094353199005127,-0.33184483644603396,-1.053131627343595,-9.211623082911968,-0.157717227843788,0.04458710551261902,-0.006786078214645386,3.1948864666506647,-0.017890214920043945
1746233059965762800,0.7547626953125,-0.11450862064668109,-0.03793499618768692,-0.07391960324973527,-0.019692644476890564,0.1168615241592019,0.9780532265650297,0.21887040677377056,right,-0.008701205253601074,-0.327998745218811,-1.060758688155934,-9.223047563245892,-0.15585674977263256,0.0858984962105751,0.005465075373649597,3.1592034511119125,-0.01300475001335144
1746233060005762800,0.7947626953125,-0.1168448488546265,0.0058243535459041595,-0.07470317337877187,-0.03437962755560875,0.1165640133478497,0.9785236290702011,0.21814043907979994,right,0.002467930316925049,-0.3218256490832368,-1.0845558163940905,-9.239738001284003,-0.15272170948308067,0.09613047540187836,0.01992875337600708,3.1018335044220087,-0.0013856887817382812
1746233060045763000,0.83476318359375,-0.11672833027953322,0.015602907165884972,-0.07459669023034352,-0.0001448318362236023,0.11694007261950568,0.9786720244298481,0.21902394203531364,right,0.004233241081237793,-0.3194501866081022,-1.0843343556631355,-9.247156168586015,-0.1515308083823816,0.05316072329878807,0.02614889293909073,3.079725425249338,0.008084982633590698
1746233060085763000,0.87476318359375,-0.11396309275266013,-0.009318776428699493,-0.0732564119355761,0.053736623376607895,0.11714578487258456,0.9788124053455508,0.21991605069236905,right,0.006575644016265869,-0.3183464570108635,-1.0591455538708716,-9.25349063230455,-0.1511184208303486,-0.0021195784211158752,0.016170337796211243,3.069447192341089,0.009819269180297852
1746233060125762800,0.9147626953125,-0.11045421404485778,-0.028706494718790054,-0.07157968989979441,0.045877836644649506,0.11673459701568598,0.9788492690537032,0.21956724781445988,right,-0.004723966121673584,-0.3196968769511438,-1.0262118370402604,-9.25302184574902,-0.15199845774646809,-0.041944973170757294,-0.0014466643333435059,3.0820220117539168,0.012683987617492676
1746233060165762800,0.9547626953125,-0.10933958667482685,-0.02191106416285038,-0.0711011469012307,0.013966843485832214,0.1162499769355946,0.9787146381617279,0.21864780187293167,right,-0.002848386764526367,-0.322466587051882,-1.0149621287513524,-9.245639334282279,-0.15345431039210405,-0.09032934159040451,-0.008422106504440308,3.107795627696812,0.015849649906158447
1746233060205762800,0.9947626953125,-0.10925088534629086,0.010570148006081581,-0.07128595436975978,-0.026552215218544006,0.1158949049618733,0.9782630061460181,0.21771160792165603,right,-0.01198267936706543,-0.32857457527327627,-1.0120534016977996,-9.22668738105297,-0.15648697117460147,-0.1592995524406433,-0.02868359535932541,3.1645486115321515,0.01674973964691162
1746233060245762800,1.0347626953125,-0.11301452205933202,0.010652318596839905,-0.07353875524890015,-0.1338348686695099,0.11613543704716507,0.9773692839064559,0.21724984422138177,right,-0.024901747703552246,-0.33777299311996467,-1.0434450767181813,-9.193500566244126,-0.16079174984812497,-0.1791401505470276,-0.037874795496463776,3.249793530358374,0.007958084344863892
1746233060285763000,1.07476318359375,-0.118667450372068,-0.012625642120838165,-0.07639140039464558,-0.19555267691612244,0.11626092621570294,0.9769245377964832,0.21644610914237253,right,-0.007179081439971924,-0.3409901033470938,-1.0941549079317598,-9.177025816783308,-0.1620686505957395,-0.0901874378323555,-0.03155802935361862,3.2795430641949177,-0.004515230655670166
1746233060325763000,1.11476318359375,-0.128735835779132,-0.006311549339443445,-0.08120307073978261,-0.1842333972454071,0.11653576527879746,0.9766234389553472,0.21535801084336817,right,0.013757884502410889,-0.3406210644005615,-1.186651039995253,-9.166744076743722,-0.1613448964022992,0.07169819623231888,-0.018823519349098206,3.276132378968596,-0.006153285503387451
1746233060365763000,1.15476318359375,-0.13515137896397644,-0.008979943580925465,-0.0840840062819157,-0.055997833609580994,0.11691029322146833,0.976818515397769,0.21532628093332148,right,0.03142267465591431,-0.33534786378596376,-1.2477462908186017,-9.175933345371485,-0.15839027392704855,0.16052913665771484,-0.0026241689920425415,3.2273455517068506,0.0008898079395294189
1746233060405762800,1.1947626953125,-0.13696522531000255,0.0362464115023613,-0.08467358693479402,0.0021983683109283447,0.1174321761159366,0.9773732709027879,0.21651551448990675,right,0.008929967880249023,-0.3271381545150833,-1.2679630032867193,-9.199593037900328,-0.15421307290050307,0.16394257545471191,-0.011663004755973816,3.151212452358007,0.011376917362213135
1746233060445762800,1.2347626953125,-0.1359483700482034,0.05068109184503555,-0.084240737890994,0.04380388185381889,0.11827194920706133,0.9774535450236911,0.21848576705797404,right,0.01142740249633789,-0.3253147099263742,-1.259384267772734,-9.206555278128384,-0.15329647844112668,0.0279025137424469,0.014149777591228485,3.1342738847777247,0.036012858152389526
1746233060485762800,1.2747626953125,-0.13222135042784475,0.026201700791716576,-0.08275904277282416,0.13913719356060028,0.11879822339812168,0.977125023173427,0.21992062913087346,right,0.0077506303787231445,-0.33003770688159945,-1.2230973680566997,-9.196408562645315,-0.15577098055446106,-0.20608632266521454,0.04033277928829193,3.1781261782467363,0.042042285203933716
1746233060525763000,1.31476318359375,-0.1282994004206088,-0.0014967266470193863,-0.08112185113331477,0.15095146000385284,0.11817879896926764,0.9767139358022867,0.21894302200906712,right,0.007304370403289795,-0.337369604436965,-1.1840068821620195,-9.177777511933446,-0.15963341276898002,-0.23762373626232147,0.030604682862758636,3.24606106583178,0.019763261079788208
1746233060565763000,1.35476318359375,-0.12413358625825308,-0.011139202862977982,-0.07943260195625428,0.08318005502223969,0.11739941999719108,0.9761368682881616,0.21762317494206226,right,0.006526947021484375,-0.346732137854022,-1.1419507513947784,-9.15207082374692,-0.1645135887900236,-0.22374989092350006,0.025749072432518005,3.332556861501932,0.019001513719558716
1746233060605763000,1.39476318359375,-0.12171295319937228,-0.03489309921860695,-0.07861548722522031,-0.02611421048641205,0.11629080063955013,0.9753086110730863,0.21526982861903865,right,-0.003396749496459961,-0.35848811109415046,-1.1149597224861383,-9.115288614794611,-0.170496978850495,-0.1948208063840866,0.007324285805225372,3.4407498174563047,0.01581832766532898
1746233060645762800,1.4347626953125,-0.12314561459392082,-0.009562626481056213,-0.07944503618520758,-0.06731463968753815,0.11602863019488635,0.9748881294376067,0.21428986851459406,right,-0.0046883225440979,-0.36304896659686203,-1.126078351741284,-9.098013070344924,-0.1726815118514438,-0.125559002161026,0.0007682517170906067,3.4825972008436916,0.009771078824996948
1746233060685762800,1.4747626953125,-0.1262920951253542,0.028590239584445953,-0.08118603102910293,-0.10639747232198715,0.11649618087582045,0.9743745046888442,0.21451816903005075,right,-0.009582757949829102,-0.36705568883240136,-1.1529326025277375,-9.080509562358259,-0.1744468271458968,-0.04646129906177521,-0.012960024178028107,3.5193004993408916,0.008515685796737671
1746233060725762800,1.5147626953125,-0.13045782976928913,0.029607603326439857,-0.08339379579881918,-0.12677548825740814,0.11761560534509054,0.974020411361966,0.21602551912298265,right,-0.0022382140159606934,-0.3680604193386047,-1.1902888850409536,-9.07211758158803,-0.1746316613581519,0.013608619570732117,-0.013188809156417847,3.5284956131875513,0.003536015748977661
1746233060765762800,1.5547626953125,-0.13398620548754894,0.026881322264671326,-0.08514725203282261,-0.11314228177070618,0.1185157779533367,0.9739502449952357,0.21731910267266677,right,0.0031436681747436523,-0.36641414172172304,-1.2230655846789478,-9.073605774319171,-0.17356499298314249,0.07961905002593994,-0.017982348799705505,3.5134275156542656,0.0005542635917663574
1746233060805763000,1.59476318359375,-0.13819552562457835,0.0283803828060627,-0.08718380602067968,-0.10258184373378754,0.11965599680478141,0.9739912805739419,0.21908281685940448,right,0.008406102657318115,-0.362914605447571,-1.2629343614697455,-9.080499625486135,-0.17152944762350372,0.09286335110664368,-0.01685398817062378,3.481365320961177,0.005581587553024292
1746233060845763000,1.63476318359375,-0.1422987779713259,0.03957533836364746,-0.08919857663625319,-0.0459236204624176,0.12099176341132245,0.9740116378187236,0.22128784667240642,right,0.01324915885925293,-0.35931648265704896,-1.3019513437367976,-9.087582277223467,-0.1694280901516213,0.045306336134672165,-0.01363787055015564,3.4483556162849065,0.006373345851898193
1746233060885762800,1.6747626953125,-0.14298846318005953,0.06911131739616394,-0.0897121674718084,-0.008476104587316513,0.12212963257375935,0.9738662881540207,0.22351619445078333,right,0.0036659836769104004,-0.3590901097158193,-1.30832979272753,-9.087454266929626,-0.16917594337560454,-0.007731858640909195,-0.018132656812667847,3.446277348706126,0.004208743572235107
1746233060925762800,1.7147626953125,-0.1428465514749883,0.07346773147583008,-0.08989025193221391,-0.005843244027346373,0.12317531783425714,0.9736120219728474,0.22561583044482836,right,0.0019850730895996094,-0.3605141715002778,-1.306340080215037,-9.082772831115125,-0.16978574113547656,-0.03233540058135986,-0.013496235013008118,3.4593484272032975,-0.0007086992263793945
1746233060965762800,1.7547626953125,-0.141946212480362,0.06805914640426636,-0.08983749959656251,0.024220408871769905,0.12468820957361748,0.9732353030815821,0.22876110983853423,right,0.002066195011138916,-0.3629016746127675,-1.2969899219371377,-9.075743370869755,-0.1708656989150942,-0.03554999455809593,-0.00881563127040863,3.4812469552785155,-0.0029362738132476807
1746233061005762800,1.7947626953125,-0.14086182621406557,0.04895457997918129,-0.08948460499418603,0.030735492706298828,0.12533718165709892,0.9731006500507675,0.23023711920740023,right,0.0011425018310546875,-0.36387446106944826,-1.2866715031489728,-9.073787560626863,-0.17134208035962153,-0.01908225752413273,-0.01047639548778534,3.4901638367056846,-0.002631664276123047
1746233061045763000,1.83476318359375,-0.1397541296711482,0.04460135102272034,-0.08912201271782615,0.012950679287314415,0.1260268630175214,0.9729740451833714,0.23180959394083414,right,0.002417922019958496,-0.3646999571211276,-1.276217913673818,-9.072350805822014,-0.1717442862471358,-0.016449378803372383,-0.007864385843276978,3.4977278422191738,0.0011653602123260498
1746233061085763000,1.87476318359375,-0.1375920824672418,0.040705785155296326,-0.08837091752914672,0.05871722847223282,0.1269616275751039,0.9727249153111436,0.23400938137117466,right,0.0038904547691345215,-0.36688929559572736,-1.2555467354364693,-9.067481738480925,-0.1728515718823169,-0.07768618315458298,-0.00035350024700164795,3.517777527557313,0.015612781047821045
1746233061125762800,1.9147626953125,-0.1360685867127175,0.050666674971580505,-0.0878652429426689,0.03217676281929016,0.12737341997001583,0.9724520761394847,0.2349913327637858,right,-0.0039220452308654785,-0.36982108013816073,-1.2403266622118652,-9.059127167111635,-0.17433518300652537,-0.10799293220043182,-0.004129424691200256,3.5445997757703065,0.012633174657821655
1746233061165762800,1.9547626953125,-0.13491912498344233,0.05273466929793358,-0.08768850698883206,0.010972512885928154,0.12812331625934317,0.9719444140140023,0.2365218110910089,right,-0.0020284056663513184,-0.3746368787337347,-1.2276024974562227,-9.043526862397789,-0.17668949389542918,-0.09785298258066177,-0.0018811970949172974,3.588592354492843,0.005195677280426025
1746233061205762800,1.9947626953125,-0.13517547248031378,0.0564412847161293,-0.08828610388537282,-0.06480580568313599,0.12936870542603376,0.9712816347250394,0.23880438542422847,right,-0.011174201965332031,-0.3798485373721953,-1.2273835940085351,-9.02455737351179,-0.17911225580715145,-0.06487074494361877,-0.012414857745170593,3.636107554383576,0.0009858906269073486
1746233061245762800,2.0347626953125,-0.1368230126087241,0.07697996497154236,-0.08933261337630423,-0.0904543325304985,0.13050012823137627,0.9709493469127314,0.24076972600847138,right,-0.004530787467956543,-0.38119512127744554,-1.241581192317605,-9.017664106866716,-0.17957385584833435,-0.034983471035957336,-0.011719077825546265,3.6483684855416416,-0.00022897124290466309
1746233061285763000,2.07476318359375,-0.13993927274828638,0.086326964199543,-0.09122925059460431,-0.09827198088169098,0.13258533887803844,0.9704662026031406,0.24444212354352685,right,0.004237174987792969,-0.3822241910949845,-1.2691522130712867,-9.010028497421741,-0.17970422602016028,-0.0006156191229820251,-0.007968828082084656,3.6577339875191446,-0.000720292329788208
1746233061325763000,2.11476318359375,-0.1430921034958619,0.044600773602724075,-0.09303860502106677,-0.11312738806009293,0.1345431951825774,0.9701481148519764,0.24792339545084807,right,-0.00823742151260376,-0.3816167694992221,-1.2978694812506437,-9.008179654684662,-0.17903760927137508,0.050456732511520386,-0.022123828530311584,3.652206164008379,-0.009411722421646118
1746233061365763000,2.15476318359375,-0.14687415146159388,0.03477038815617561,-0.09487870244316846,-0.15110869705677032,0.13569237892577068,0.9701310913429797,0.24973867410581804,right,-0.019612014293670654,-0.3787238280704863,-1.3334702253334223,-9.013620968955754,-0.17728861662787115,0.1126074269413948,-0.03408925235271454,3.6258617624402043,-0.016330569982528687
1746233061405762800,2.1947626953125,-0.15444712585459397,-0.014655519276857376,-0.09841691946557528,-0.20126551389694214,0.13697182458604804,0.9701433045080443,0.25126011562270817,right,-0.030287444591522217,-0.3737623558739765,-1.4044414118744433,-9.020929246142506,-0.17428348983919553,0.08005457371473312,-0.02999304234981537,3.580609831306338,-0.005319654941558838
1746233061445762800,2.2347626953125,-0.16530153556742613,-0.09870246052742004,-0.10329292824142353,-0.17119714617729187,0.1367320185931022,0.9701002400408388,0.24903596524687518,right,-0.007202625274658203,-0.3701069912236263,-1.5044173052340746,-9.018003129562736,-0.17187310434788036,0.03135566785931587,0.0012891888618469238,3.5472140499219296,-0.017865478992462158
1746233061485762800,2.2747626953125,-0.1697709616077526,-0.10363804548978806,-0.10509729216799792,-0.07425565272569656,0.1355559948713283,0.9702563181315179,0.24593519654196733,right,0.0014041662216186523,-0.36825116163790106,-1.5458169448539614,-9.017662353301048,-0.17082664023336702,0.027326256036758423,0.0014881938695907593,3.5302407032892105,-0.013445407152175903
1746233061525763000,2.31476318359375,-0.17207743602601444,-0.10644381493330002,-0.10573792307383074,0.029037758708000183,0.13330655909102748,0.9705688655590857,0.2409594171580821,right,0.011411547660827637,-0.3672073757723458,-1.567241864068061,-9.017698593658208,-0.17042544826072728,-0.024654701352119446,-0.0019460469484329224,3.520689031089842,-0.014523178339004517
1746233061565763000,2.35476318359375,-0.1700155986713674,-0.09136055409908295,-0.1043407705623938,0.14438293874263763,0.13071058686126305,0.97094688658469,0.23593241734435044,right,0.02398020029067993,-0.36785868879831296,-1.548257323743403,-9.018649026250838,-0.1711428912046968,-0.0580606684088707,0.0030453354120254517,3.526649693059921,-0.017009079456329346
1746233061605763000,2.39476318359375,-0.16568989591787078,-0.07779601216316223,-0.10206293303810925,0.20159439742565155,0.1290334885385318,0.9712348424865753,0.23316809222323573,right,0.02076178789138794,-0.3690610090109748,-1.5085304396413266,-9.02107303852737,-0.1721523664871164,-0.07332610338926315,0.009641826152801514,3.5376489337190984,-0.010742157697677612
1746233061645762800,2.4347626953125,-0.1572099442440119,-0.06090988963842392,-0.09776288094916007,0.2501901090145111,0.1265987189943352,0.9716274990777746,0.2295031149985486,right,0.008187174797058105,-0.3718311950710625,-1.430439045831561,-9.023827305671572,-0.1742276681585454,-0.08448340743780136,0.016661152243614197,3.562972467806935,-0.00930100679397583
1746233061685762800,2.4747626953125,-0.14660951392196156,-0.05521240457892418,-0.09245707798743397,0.19851601123809814,0.12407727207266277,0.9720570580268857,0.2260623499445379,right,-0.02166593074798584,-0.37484908574150827,-1.3331272571146486,-9.02780497713089,-0.1765269081546945,-0.05350182205438614,-0.00385284423828125,3.5905291677743194,-0.008136153221130371
1746233061725762800,2.5147626953125,-0.1428775700135663,-0.03849701210856438,-0.09049062577961996,0.0779690369963646,0.12294836089022156,0.9723443458976567,0.22442631771983684,right,-0.019446372985839844,-0.37468635488593655,-1.299509941934049,-9.033294806718827,-0.17675287315910396,0.033927805721759796,-0.008634746074676514,3.5890438976526258,-0.015731900930404663
1746233061765762800,2.5547626953125,-0.14273643239369194,-0.01324755884706974,-0.09017492158723771,-0.0608157142996788,0.12254451417802621,0.9727729531645825,0.22382412482659136,right,-0.017783939838409424,-0.37066170917607516,-1.3002791727408767,-9.04770268677771,-0.17482568634898057,0.10671529173851013,-0.00920867919921875,3.5522850695759054,0.0036326348781585693
1746233061805763000,2.59476318359375,-0.14723195791891322,0.005031503736972809,-0.09218096694133929,-0.12158460915088654,0.1229107314607267,0.9729410814258603,0.22398326843139332,right,-0.0004590749740600586,-0.36662359110142323,-1.3430335879705846,-9.055881901580095,-0.1725723194512656,0.029702432453632355,0.006766036152839661,3.5153450397133823,0.031984567642211914
1746233061845763000,2.63476318359375,-0.15002590596033163,0.027454799041152,-0.09365501682739029,-0.08396488428115845,0.12344329348299207,0.9726414712932697,0.2245036784114224,right,0.011491179466247559,-0.3680811609432776,-1.3675626106798648,-9.047018211644888,-0.173087218515562,-0.09290549159049988,0.013706520199775696,3.5286852905407544,0.04974627494812012
1746233061885762800,2.6747626953125,-0.15159084705555795,0.05140984058380127,-0.09489669578848599,-0.0006464123725891113,0.12415324892824277,0.9716872051726899,0.2252077716649767,right,0.015974879264831543,-0.3768100951979613,-1.377015060288459,-9.014074557942152,-0.17721380269596004,-0.2434655725955963,0.0008438378572463989,3.6084178756862877,0.04369249939918518
1746233061925762800,2.7147626953125,-0.15116141418550244,0.07346475124359131,-0.09533573608170005,-0.0028177814092487097,0.12491771709136407,0.9705059059368686,0.22623769427216128,right,0.01762765645980835,-0.38837327652599785,-1.3667691222146152,-8.972813742271065,-0.18282480007957141,-0.22370153665542603,-0.00553855299949646,3.7136148646950717,0.01752227544784546
1746233061965762800,2.7547626953125,-0.14991371549012375,0.08796091377735138,-0.09524208731252252,0.02187957614660263,0.1260126313404782,0.9697767751314672,0.22838848366243245,right,0.01957416534423828,-0.39487323753865206,-1.3519389250904321,-8.950455195468663,-0.1859643278621715,-0.13418588042259216,0.0030822306871414185,3.7725314563050865,0.014356642961502075
1746233062005762800,2.7947626953125,-0.14623716274389267,0.06714463233947754,-0.09397786238917856,0.07840308547019958,0.12738923689562373,0.9693094592306442,0.23172193952139322,right,0.009231984615325928,-0.39909617034111133,-1.3166899170547723,-8.939524051609634,-0.18809378227786674,-0.016457878053188324,0.006815686821937561,3.810723824316263,0.016553550958633423
1746233062045763000,2.83476318359375,-0.14167811972462868,0.01675279438495636,-0.09199124875876233,0.08234302699565887,0.12811563939073506,0.9693719237606697,0.23410709377993946,right,0.00240325927734375,-0.39906807581446424,-1.275935735731572,-8.94553995089829,-0.1882604447592034,0.058188751339912415,0.004997923970222473,3.810469849555194,0.014925986528396606
1746233062085763000,2.87476318359375,-0.1394546762355544,-0.011159207671880722,-0.09085744456764647,0.04875031113624573,0.12809354097519113,0.9696477694718151,0.23458617487458513,right,-0.006726264953613281,-0.39705938027797605,-1.257104194011539,-8.955916968005894,-0.18740396267406464,0.08217202126979828,0.0006533265113830566,3.7923113847911356,0.011087149381637573
1746233062125762800,2.9147626953125,-0.13860601450885568,-0.024449605494737625,-0.0902096367538278,-0.0006045326590538025,0.1277715588947231,0.9701219128135127,0.23427496071608653,right,-0.0038361549377441406,-0.39294986376132807,-1.2516457824751734,-8.97233969501853,-0.18547290611611886,0.10766558349132538,0.0029634013772010803,3.7551141652971505,-0.002385646104812622
1746233062165762800,2.9547626953125,-0.13973150939383347,-0.015006739646196365,-0.0905120918841106,-0.03746913745999336,0.12758345584361272,0.9705058086089657,0.23386283344335937,right,-0.0035278797149658203,-0.38887318558527534,-1.2638649203181267,-8.98600990845263,-0.18343542048039677,0.10996627062559128,0.0031326860189437866,3.7181516313418745,-0.008992612361907959
1746233062205762800,2.9947626953125,-0.14100227440030302,0.003837093710899353,-0.09100981795800701,-0.04823102056980133,0.12777673470072226,0.9707169430921491,0.2341589164346103,right,-0.0020598173141479492,-0.3859775787636539,-1.2767907451257108,-8.99501855981648,-0.18193104766556936,0.08548302948474884,0.002444654703140259,3.691860129004717,-0.0038416385650634766
1746233062245762800,3.0347626953125,-0.142623353886726,0.022845618426799774,-0.09176493965498864,-0.04541230574250221,0.12840418417248334,0.9708307565487067,0.23527544833053154,right,-0.0032380223274230957,-0.38335107701724086,-1.292744539452344,-9.002503947135805,-0.18049716742764313,0.035915300250053406,0.0014782547950744629,3.667985040159523,-0.0003294944763183594
1746233062285763000,3.07476318359375,-0.14406090842959401,0.038446955382823944,-0.09257131282661406,-0.052427321672439575,0.12937490964097273,0.9707500933393984,0.23705847611239025,right,-0.007149159908294678,-0.38232924091921827,-1.3062221529237925,-9.00434109943509,-0.17982472361769217,0.013524780049920082,-0.0004300624132156372,3.6586896808087825,-0.0038504600524902344
1746233062325763000,3.11476318359375,-0.14565800930785705,0.05564713105559349,-0.0934951583882282,-0.07802388072013855,0.13041959247220924,0.9705918383691696,0.23893449972402775,right,-0.007380545139312744,-0.3819435721223261,-1.3208061202019452,-9.003638504123687,-0.17944592140691162,0.01684427820146084,-0.0001865774393081665,3.655180503644049,-0.003717660903930664
1746233062365763000,3.15476318359375,-0.14823880014672516,0.061175767332315445,-0.09499820633497054,-0.0797630324959755,0.132073794546307,0.9703019162544649,0.24187980501027148,right,-0.0018128156661987305,-0.3816896048122068,-1.3441751592211424,-9.001118045735359,-0.1790141101792164,0.010321381501853466,0.0033627599477767944,3.652869304092228,0.0008167028427124023
1746233062405762800,3.1947626953125,-0.15046585331283743,0.06131981685757637,-0.09634997039663888,-0.06449864059686661,0.133761364704488,0.9699972393037304,0.24495135237778476,right,-0.00029480457305908203,-0.3816285067396847,-1.3642512941747904,-8.998322862058878,-0.17868942941813784,0.011900289915502071,0.0005481690168380737,3.6523131315141915,0.00013369321823120117
1746233062445762800,3.2347626953125,-0.15190456360885804,0.03990726172924042,-0.09731118292315641,-0.03914693370461464,0.1354177520567862,0.969750144730387,0.2481212000731256,right,0.00142592191696167,-0.3812643010766915,-1.3773970453433693,-8.99766469041109,-0.17826187649699443,0.02476770058274269,-0.0036857575178146362,3.648998307877779,-0.003218322992324829
1746233062485762800,3.2747626953125,-0.15257084027910128,0.0064583830535411835,-0.09760987799579125,-0.018411288037896156,0.1357560283457177,0.9698249290155742,0.24877751006165547,right,0.002615034580230713,-0.37971839556222164,-1.384247349629551,-9.00230988586843,-0.17743237444306603,0.024707024917006493,-0.0030208081007003784,3.6349221439912913,-0.00009047985076904297
1746233062525763000,3.31476318359375,-0.15288434172208648,-0.024236757308244705,-0.09764681852955077,0.006729265674948692,0.1354850355412031,0.9699681429922001,0.24822663622366373,right,0.0028049349784851074,-0.3784801886004781,-1.387753896445781,-9.006316783422232,-0.1768353340243488,0.020383864641189575,-0.004470348358154297,3.6236417483031746,0.00007748603820800781
1746233062565763000,3.35476318359375,-0.1528156979105355,-0.025549456477165222,-0.09745058180940958,0.013144933618605137,0.13488600126005199,0.9701602600703471,0.24706380070009,right,0.0013790130615234375,-0.3773506763302236,-1.3877578419685364,-9.010451691269875,-0.17634684332230588,0.02143324725329876,-0.006968960165977478,3.613346564260125,-0.00006341934204101562
1746233062605763000,3.39476318359375,-0.15244834214252906,-0.017964381724596024,-0.09713796776053793,0.019066601991653442,0.13439243457252684,0.9703400380512025,0.24616839415945196,right,0.000367581844329834,-0.3763053803505604,-1.3850203798286616,-9.014688890448213,-0.17590620488639583,0.019171996042132378,-0.006065815687179565,3.6038150580659507,-0.0001773536205291748
1746233062645762800,3.4347626953125,-0.15192851632291374,-0.004901963286101818,-0.09680274410098023,0.01911507174372673,0.13410007229275508,0.9704734302307267,0.24570182998047074,right,0.0006906986236572266,-0.37551324555357035,-1.3807657911241054,-9.018227001446485,-0.1755779906707365,0.01416773721575737,-0.00394091010093689,3.596589198465645,-0.00004550814628601074
1746233062685762800,3.4747626953125,-0.1511800191707084,0.007624173536896706,-0.09642327213532265,0.01889229565858841,0.13405140125933873,0.9705445510298424,0.24575789136635925,right,0.0002588629722595215,-0.3751138763058197,-1.3742315670497716,-9.020677317208051,-0.17543096792034357,0.004289200529456139,-0.002340853214263916,3.592945289005339,0.0028334856033325195
1746233062725762800,3.5147626953125,-0.15017616837975153,0.012682320550084114,-0.09597929241434582,0.025444744154810905,0.13419610483873345,0.9705585980007715,0.24623639785085683,right,0.0018821954727172852,-0.37513622977791083,-1.3651634405836461,-9.021972617715596,-0.1754861555298654,-0.0007486287504434586,-0.0014291703701019287,3.5931492871448394,0.003147989511489868
1746233062765762800,3.5547626953125,-0.149188116969375,0.006288481876254082,-0.09553695956859212,0.018984567373991013,0.13430751370178373,0.9705759390443491,0.246643242750698,right,0.000024557113647460938,-0.375163325844153,-1.3562341380663214,-9.023220571950077,-0.17554620067438612,0.0060266456566751,-0.002133205533027649,3.593396539904177,0.0021732449531555176
1746233062805763000,3.59476318359375,-0.14861717757724785,-0.0070467982441186905,-0.09523543765399554,0.014224503189325333,0.13423361015796806,0.9706448815195157,0.2466152475118542,right,-0.0006056427955627441,-0.3747514049290296,-1.351301211708784,-9.025456952700019,-0.17538525748307146,0.015618517994880676,-0.002288147807121277,3.5896377718925474,0.0028842389583587646
1746233062845763000,3.63476318359375,-0.14853204644203605,-0.015820857137441635,-0.09512522027681103,-0.001476779580116272,0.13400334536845662,0.9707343830653532,0.24618613604603634,right,-0.0015302300453186035,-0.374164785816078,-1.3508442617215215,-9.027653001439571,-0.17512567737324564,0.011506224051117897,-0.0033891797065734863,3.5842835513830185,0.004383355379104614
1746233062885762800,3.6747626953125,-0.148985060412954,-0.02100122720003128,-0.09525684487670624,-0.0060870461165905,0.13365786274584307,0.970801866864799,0.24541247812005204,right,-0.0010135173797607422,-0.3737785332547064,-1.355139182436466,-9.028408203721046,-0.1749440493543627,0.005131418816745281,-0.0025093555450439453,3.580757423083484,0.0029683709144592285
1746233062925762800,3.7147626953125,-0.14959530031081653,-0.023898964747786522,-0.09545367143683554,-0.0069760652258992195,0.13322311787685898,0.9708618305053253,0.24441913738776844,right,-0.00025260448455810547,-0.373541902110076,-1.360774704105407,-9.028416971549392,-0.17483543327176543,-0.0006254054605960846,-0.0030774176120758057,3.5785970301792025,0.0023200511932373047
1746233062965762800,3.7547626953125,-0.15021272796264645,-0.02444005012512207,-0.09565618431156654,0.0010390756651759148,0.13271991553302617,0.9709026288223186,0.24326796867886366,right,0.0010048747062683105,-0.37360722446142675,-1.3663137796625495,-9.027344373881816,-0.17488119535045676,-0.007169331889599562,-0.0019202828407287598,3.5791935347676276,0.0013624727725982666
1746233063005762800,3.7947626953125,-0.1504442912172977,-0.026691783219575882,-0.09567833909265437,0.008608630858361721,0.13213225216174518,0.9709369070540481,0.24199454790030547,right,-0.0008241534233093262,-0.37401150889714846,-1.368187172318995,-9.025596068909763,-0.1751237183692634,-0.017258865758776665,-0.0020674169063568115,3.5828844982400536,0.0017803609371185303
1746233063045763000,3.83476318359375,-0.1505792296452978,-0.029785681515932083,-0.09566216154520393,0.009258583188056946,0.13149243331162547,0.9709482475985355,0.240612374071132,right,-0.0017955303192138672,-0.3747706575254981,-1.368996735136211,-9.022719636690615,-0.17555076420554377,-0.02683909796178341,-0.0016715079545974731,3.589813420720398,0.0021402835845947266
1746233063085763000,3.87476318359375,-0.15071901971530938,-0.03102780506014824,-0.09565074496726393,0.01503592450171709,0.13075313657793775,0.9709301232323398,0.23900045687517432,right,-0.002268195152282715,-0.37598087986790585,-1.3696046379014848,-9.018226416924595,-0.1762082517085947,-0.0396897979080677,-0.0017021000385284424,3.6008553314775225,0.0029855668544769287
1746233063125762800,3.9147626953125,-0.15092698073040497,-0.022441180422902107,-0.09569883440229433,0.0026028258726000786,0.13007595688119414,0.9708652967553031,0.23748402964716547,right,-0.0007892251014709473,-0.3775639144601398,-1.3706212675981222,-9.012294688788057,-0.17703837534372144,-0.040374599397182465,-0.002925485372543335,3.6152906840652226,0.0015051662921905518
1746233063165762800,3.9547626953125,-0.1511803779072499,-0.01609208434820175,-0.09580316159185705,0.0005869586020708084,0.12964780664477396,0.9707837336085201,0.23648260949059977,right,-0.003428637981414795,-0.3789435167729186,-1.3721524226881563,-9.007007688295841,-0.17774185562366873,-0.03743935003876686,-0.004722967743873596,3.627863457651436,0.0074471235275268555
1746233063205762800,3.9947626953125,-0.15141746804142275,-0.013248381204903126,-0.09590000128895591,-0.0018373073544353247,0.12924952353090371,0.9707075022173627,0.23555054057749503,right,-0.0011968612670898438,-0.38022400809996626,-1.3735859626226126,-9.002082506853341,-0.17839484539260547,-0.029183723032474518,-0.00645078718662262,3.639527007438242,0.006723225116729736
1746233063245762800,4.0347626953125,-0.15162260151997342,-0.006811294239014387,-0.09599926321862803,-0.00027803576085716486,0.129106543114666,0.9706582620360477,0.23518394646684726,right,0.0028151869773864746,-0.38086787406287936,-1.3750783931374548,-8.999481968966126,-0.17871275664688518,-0.01243995875120163,-0.0034990161657333374,3.645389469730854,0.007631838321685791
1746233063285763000,4.07476318359375,-0.15148317873287134,-0.009026171639561653,-0.09590414881513244,0.010052359662950039,0.12893488060609437,0.9706822402903785,0.2348537382521682,right,0.005012631416320801,-0.3809089287995423,-1.3738010666780174,-8.999525808107853,-0.1787575850016927,0.0044058989733457565,-0.0021148771047592163,3.6457632714793085,0.0036057233810424805
1746233063325763000,4.11476318359375,-0.15071311187089823,-0.0005452735349535942,-0.09549097500664616,0.021247215569019318,0.12877440683210054,0.9707781283298238,0.23469113147462362,right,0.002621293067932129,-0.38041377719745434,-1.3671413165278732,-9.00236483092606,-0.1785738164328362,0.01330654788762331,-0.002414107322692871,3.641254854144156,0.00279313325881958
1746233063365763000,4.15476318359375,-0.14980530880096005,-0.003720601089298725,-0.09503416038617328,0.021595455706119537,0.12869759248904647,0.9708558834557581,0.23471937100724843,right,-0.0009493231773376465,-0.3800421570136666,-1.3591701915182173,-9.00493964985013,-0.17844990663593965,0.002224544994533062,-0.0010195225477218628,3.63787105692476,0.0029119551181793213
1746233063405762800,4.1947626953125,-0.14911949250348883,-0.02047664299607277,-0.09465075408819133,0.016287904232740402,0.12838191884080002,0.9709297916623434,0.23419941314269702,right,-0.004629850387573242,-0.3799610335788412,-1.3530379723735153,-9.006161300599574,-0.17847912099883076,0.00026828283444046974,-0.000028759241104125977,3.6371322212561963,-0.002105921506881714
1746233063445762800,4.2347626953125,-0.14886156942135148,-0.020227767527103424,-0.094430245818899,0.009269057773053646,0.1279525661631187,0.9710384305521331,0.2333860918753746,right,-0.005697727203369141,-0.37950738740969275,-1.3509595586642622,-9.008141076239943,-0.1783131115551878,0.014937091618776321,-0.0014783740043640137,3.633000236018002,-0.00632709264755249
1746233063485762800,4.2747626953125,-0.1487273157368853,-0.005947694182395935,-0.09428098674850302,0.005888291634619236,0.1277008709980024,0.9711595827560718,0.23293844572057257,right,-0.006301581859588623,-0.3786232425123392,-1.3502256914317607,-9.011495062842965,-0.17791208065947617,0.022417981177568436,-0.0017269104719161987,3.624945232117176,-0.008247792720794678
1746233063525763000,4.31476318359375,-0.1482270717244863,0.015136418864130974,-0.09401316776563687,0.011858874000608921,0.12780043527122753,0.9712702186040757,0.23329371778672497,right,-0.004366517066955566,-0.37749493150012486,-1.3463207929477095,-9.016209231883288,-0.17737756463994117,0.02911682054400444,-0.0022369474172592163,3.61466173851192,-0.010063767433166504
1746233063565763000,4.35476318359375,-0.14729025744267257,0.030075564980506897,-0.09360869454823764,0.010812557302415371,0.12827718722002715,0.9713460604987337,0.234504508568426,right,-0.005373895168304443,-0.376366818855773,-1.3384712484911083,-9.021493894287943,-0.17683105734262086,0.02712102048099041,-0.002360016107559204,3.6043753222972152,-0.007591992616653442
1746233063605763000,4.39476318359375,-0.14627942229258162,0.03196076303720474,-0.09321182775528769,0.015132549218833447,0.12891777562992093,0.9713748839934531,0.2360500451378658,right,-0.00376737117767334,-0.3755301985202439,-1.3297903677769005,-9.025822863402961,-0.17641618802381667,0.014082979410886765,-0.0005287826061248779,3.596743804505467,-0.004639655351638794
1746233063645762800,4.4347626953125,-0.1452413189371011,0.02425857074558735,-0.09281847681892332,0.015857866033911705,0.12941687229822388,0.9713375511125487,0.23726240965449863,right,-0.004931271076202393,-0.375606202481833,-1.3203802960053086,-9.02692760977447,-0.17646387883731035,-0.01868375763297081,0.00006054341793060303,3.5974373397275805,0.001504272222518921
1746233063685762800,4.4747626953125,-0.14468840085222096,0.014693908393383026,-0.09266780423043872,0.0055608563125133514,0.1296411725327116,0.9711908217709616,0.23775237017438927,right,-0.004081785678863525,-0.3770585496970944,-1.314634299699217,-9.022477060106397,-0.17718460396538502,-0.049157463014125824,-0.0005864202976226807,3.610683190269768,0.00017118453979492188
1746233063725762800,4.5147626953125,-0.14470316159233643,0.01610208861529827,-0.09280523998728986,-0.008430068381130695,0.12976414931506342,0.9709574725886437,0.2378886303194539,right,-0.003800332546234131,-0.3793592231887727,-1.3135660859458147,-9.014213674151897,-0.17829809763955462,-0.06440716236829758,-0.004026263952255249,3.6316505749747154,-0.0022642910480499268
1746233063765762800,4.5547626953125,-0.1451909146031418,0.02927757427096367,-0.09323276345888518,-0.026228245347738266,0.13010924284924216,0.9706215433282743,0.23836666742806148,right,-0.002466559410095215,-0.3822405943028055,-1.3164432488173246,-9.003180238962173,-0.17964746979773244,-0.07145371288061142,-0.007262974977493286,3.657883040601015,-0.0014092326164245605
1746233063805763000,4.59476318359375,-0.1459318200519341,0.040261682122945786,-0.09384330489543066,-0.029348205775022507,0.13078889774677813,0.9702258826213892,0.23948468595692116,right,0.0020875930786132812,-0.38516045036520175,-1.321554600481689,-8.991597353196143,-0.18096843144116243,-0.06449497491121292,-0.007064551115036011,3.6844349474400278,0.0003432631492614746
1746233063845763000,4.63476318359375,-0.14639473336962547,0.03990728780627251,-0.09432741516780284,-0.024462271481752396,0.13161446823073383,0.9698680528214898,0.24098120783719876,right,0.0009061694145202637,-0.38755537971013293,-1.3244259181343019,-8.982229220870137,-0.182033279519729,-0.04840313643217087,-0.008596688508987427,3.7061899753913283,0.00434345006942749
1746233063885762800,4.6747626953125,-0.146855480839047,0.030861571431159973,-0.09476284378918601,-0.01858135499060154,0.13230829251759346,0.9695754209656376,0.24223188530031253,right,0.003286302089691162,-0.38944080380150686,-1.3275393739797174,-8.974689473015069,-0.1828611381322399,-0.03889315947890282,-0.006283551454544067,3.7233018537119027,0.00807979702949524
1746233063925762800,4.7147626953125,-0.14696057350528724,0.02238123118877411,-0.09499082016898718,0.0016918517649173737,0.13278738652676983,0.9693262376605436,0.2431084789931946,right,0.007507383823394775,-0.3912952802798549,-1.327469231352955,-8.967703851911425,-0.18371469427795126,-0.04590713232755661,-0.002307415008544922,3.74012000978291,0.010871410369873047
1746233063965762800,4.7547626953125,-0.14639440439222914,0.006617359817028046,-0.09485134429115674,0.017507214099168777,0.13288600983018495,0.9691151299188813,0.24330991068307253,right,0.005454421043395996,-0.39352226175997934,-1.3211734922096132,-8.960191576585173,-0.18482581554659316,-0.058524616062641144,-0.0027520358562469482,3.7602991667196153,0.01108899712562561
1746233064005762800,4.7947626953125,-0.14561891389707476,0.0008457456715404987,-0.0945846354678899,0.02216508239507675,0.13273646109535925,0.9689073954285936,0.24302295073483238,right,0.004248917102813721,-0.39612026580094695,-1.3128025542274118,-8.951517271742224,-0.1861541622765716,-0.06337233632802963,-0.0036160647869110107,3.7838168204292653,0.00988420844078064
1746233064045763000,4.83476318359375,-0.14473349056432577,0.0005689592217095196,-0.09426067621720008,0.028872881084680557,0.13252475125750784,0.968697270074583,0.2426251264702889,right,0.004523336887359619,-0.3988477951746393,-1.30338283784464,-8.942430878967047,-0.1875576090786665,-0.06575801968574524,-0.003297850489616394,3.8084792602598663,0.010631561279296875
1746233064085763000,4.87476318359375,-0.14364637446954612,0.005001790355890989,-0.09385460342341323,0.02622799389064312,0.13235979379843943,0.9684793319107426,0.24236307366170975,right,0.003105759620666504,-0.4016374706738954,-1.2921345908604562,-8.933292463743687,-0.18899777514666435,-0.06731270998716354,-0.004650279879570007,3.833674491792917,0.01159784197807312
1746233064125762800,4.9147626953125,-0.14261394024182494,0.0034930543042719364,-0.09346689370420883,0.02812551148235798,0.13221450394959977,0.9682779010385668,0.24214522712008074,right,0.0024763941764831543,-0.40419502039342503,-1.2815130974724889,-8.924887038969993,-0.19031902707639065,-0.05408847704529762,-0.0053431689739227295,3.856747032083571,0.010610431432723999
1746233064165762800,4.9547626953125,-0.14183336262357432,0.002899564802646637,-0.09316949959772444,0.01773446798324585,0.13211076480579076,0.9681352469522003,0.24200055238901264,right,0.003789663314819336,-0.4060118631539238,-1.2735535167701542,-8.918933099001645,-0.1912600423443156,-0.031142406165599823,-0.004199683666229248,3.8731221205621957,0.008058220148086548
1746233064205762800,4.9947626953125,-0.14127725998923266,0.005301664583384991,-0.09294373687089616,0.016830064356327057,0.1320558831242041,0.9680682206369868,0.24195486779535763,right,0.004969894886016846,-0.4069332618013447,-1.268090429058671,-8.916103428533672,-0.19174648339678085,-0.011271364986896515,-0.0026084333658218384,3.881421746873855,0.0071273744106292725
1746233064245762800,5.0347626953125,-0.1406378723464171,0.005283865612000227,-0.09266624548709479,0.012068360112607479,0.1320938692649842,0.9680580912662166,0.24214823065712832,right,0.0024845004081726074,-0.40719221128791755,-1.2622484250321984,-8.915916966050863,-0.19190552516434234,-0.0011783158406615257,-0.0021775364875793457,3.88375369695276,0.006182193756103516
1746233064285763000,5.07476318359375,-0.14011822440037258,0.006386536173522472,-0.09243405165617821,0.010973073542118073,0.1321614046072651,0.9680744827928267,0.24239450502861778,right,0.00139695405960083,-0.40710956243336494,-1.2576599281981586,-8.916889025953411,-0.19188831256459793,0.009881383739411831,-0.0020030587911605835,3.883009308326244,0.002782374620437622
1746233064325763000,5.11476318359375,-0.13962846044475163,0.010651592165231705,-0.092218236377011,0.005398931913077831,0.13234556659977834,0.9681174573063527,0.24289506899960372,right,-0.0006644725799560547,-0.406596447417229,-1.2535697362750768,-8.919476119837164,-0.19164833977535464,0.015625977888703346,-0.0014292746782302856,3.878388078266382,0.001977890729904175
1746233064365763000,5.15476318359375,-0.1390466450070244,0.017500031739473343,-0.09198470567683509,0.0068361591547727585,0.13266309036996957,0.9681473010287825,0.2436900460144001,right,-0.0027167201042175293,-0.4060607721200446,-1.2486677895776928,-8.922260197597742,-0.19139006309601722,0.013719330541789532,-0.001190468668937683,3.873562850067019,0.0011975765228271484
1746233064405762800,5.1947626953125,-0.13846543147962842,0.02434847317636013,-0.09175116179267281,0.008273386396467686,0.1329806093158231,0.9681769298977636,0.24448455216864448,right,-0.004769444465637207,-0.4055246962505869,-1.2437683270983397,-8.9250395991832,-0.1911317515747302,0.011812684126198292,-0.000951424241065979,3.8687326534315942,0.0004177093505859375
1746233064445762800,5.2347626953125,-0.13811492369449213,0.019092340022325516,-0.09167054168941649,-0.0042609041556715965,0.1334317288711392,0.9681399963416635,0.2454916142198697,right,-0.0034142732620239258,-0.405388913720503,-1.2407123005285858,-8.92599529247284,-0.19104296164066908,0.004694733768701553,0.00012980401515960693,3.867508956855535,-0.0021294057369232178
1746233064485762800,5.2747626953125,-0.13805515979749733,0.015186717733740807,-0.09172236943178842,-0.015433534048497677,0.133826994690312,0.9680840609154239,0.2463185247921999,right,-0.004087865352630615,-0.40542249531605995,-1.240160950256139,-8.925940931937099,-0.19102534505463534,-0.0026544188149273396,-0.0006253272294998169,3.867811446933448,-0.00021082162857055664
1746233064525763000,5.31476318359375,-0.13888335947845892,0.005977362394332886,-0.0921757430892411,-0.02307230606675148,0.13409658573493252,0.9679888810323951,0.2466986565748889,right,-0.0015934109687805176,-0.4057271967238237,-1.247389732465893,-8.923743129631877,-0.19110039730835945,-0.0037844630423933268,-0.0023929625749588013,3.870557238510251,-0.002969086170196533
1746233064565763000,5.35476318359375,-0.1397435773810071,0.012367639690637589,-0.09262971115650993,-0.020874638110399246,0.13432751845707,0.9679114519542149,0.24699848680400943,right,0.00044596195220947266,-0.40589635085896164,-1.254974488506466,-8.92201820553541,-0.19111097455269785,-0.0013782498426735401,-0.003171756863594055,3.8720813793376085,0.0003572404384613037
1746233064605763000,5.39476318359375,-0.1399692353869256,0.020536988973617554,-0.09283999316173101,-0.004923470318317413,0.1347813398044292,0.9678085306058405,0.2478774392194685,right,0.004049897193908691,-0.4062165793300016,-1.2568147095456719,-8.920506631928681,-0.19121056513294357,-0.005290268454700708,-0.000714227557182312,3.8749662871241566,0.004086911678314209
1746233064645762800,5.4347626953125,-0.13951767545439922,0.015094887465238571,-0.09270234256885639,0.014876211062073708,0.13508941463055354,0.9677570498377132,0.24859304947757443,right,0.0027524828910827637,-0.4064488503298133,-1.2526612431280315,-8.920181637758017,-0.1913206304400812,-0.0025437918957322836,-0.00132085382938385,3.877058875489235,0.00535815954208374
1746233064685762800,5.4747626953125,-0.1387522953555602,-0.009213779121637344,-0.09233454830653308,0.019492916762828827,0.135061889246966,0.9677993043397876,0.24869322506976305,right,0.002732515335083008,-0.40631793505138364,-1.2459037316918373,-8.921640604394673,-0.1913041145796833,0.010401408188045025,-0.000899091362953186,3.875879310315847,0.00408625602722168
1746233064725762800,5.5147626953125,-0.1379019521779653,-0.01773679628968239,-0.0918570310783291,0.025710470974445343,0.13471778514278965,0.9679038794338942,0.2481626410075844,right,-0.0006153583526611328,-0.4060331297947946,-1.2384684671245514,-8.923789891383052,-0.19124758062581976,-0.0010349266231060028,-0.002051219344139099,3.8733138437420127,0.005831003189086914
1746233064765762800,5.5547626953125,-0.1370349602008409,-0.01871510222554207,-0.09136635135458111,0.029802309349179268,0.13420577270764472,0.9679750198316399,0.24726404328169196,right,-0.000009715557098388672,-0.4063116135506049,-1.230583851354569,-8.923791060426831,-0.19148228885130147,-0.014983558095991611,-0.00046716630458831787,3.8758226116925476,0.0013943612575531006
1746233064805763000,5.59476318359375,-0.13651015218069035,-0.012384859845042229,-0.09105934345653689,0.011554362252354622,0.1337728716090081,0.9680051615988253,0.24645363192020445,right,-0.003401517868041992,-0.4067740667757381,-1.225656258759275,-8.922659426048398,-0.19177901291172536,-0.006002112291753292,-0.0033525004982948303,3.879987914678454,-0.003935635089874268
1746233064845763000,5.63476318359375,-0.13643406641672765,0.007191553711891174,-0.09101463942595903,-0.008791422471404076,0.13368334093840614,0.968002624659536,0.24627637737470576,right,-0.006286263465881348,-0.4069455828903322,-1.2248868818219751,-8.922093024337292,-0.191875472129119,-0.010125748813152313,-0.0037806108593940735,3.881532806032896,-0.0013138353824615479
1746233064885762800,5.6747626953125,-0.13681440265152303,0.025528278201818466,-0.09128220260303103,-0.015960048884153366,0.13401176697965828,0.967892051962233,0.2468571662375688,right,0.00015658140182495117,-0.40746658611968817,-1.2280042101249098,-8.919621665787696,-0.1920765985166477,-0.00899521354585886,-0.0014472603797912598,3.8862241787195204,-0.00190657377243042
1746233064925762800,5.7147626953125,-0.13694149937507852,0.028615664690732956,-0.09147839079238318,-0.013437800109386444,0.1345774069568205,0.9677584433001508,0.24797923915726755,right,-0.000508427619934082,-0.4079698483256929,-1.2288706176958977,-8.91752732385695,-0.19226118189810987,-0.009413198567926884,-0.0012428462505340576,3.890754807886481,0.00026088953018188477
1746233064965762800,5.7547626953125,-0.13706118451104676,0.018186984583735466,-0.0916724705192547,-0.01018502563238144,0.13514856350252488,0.9676238178504356,0.2491143436629254,right,-0.0036916136741638184,-0.40847285722369986,-1.2296703897714614,-8.915439996188878,-0.19244538890046847,-0.0041518802754580975,-0.0028507858514785767,3.8952825144439935,0.0004893839359283447
1746233065005762800,5.7947626953125,-0.13791412992377597,-0.0007255710661411285,-0.09208535521058539,-0.034576088190078735,0.13541988838845373,0.967634575194486,0.24953805678148144,right,-0.002151668071746826,-0.40772033481430614,-1.2376770244859159,-8.917288838925957,-0.19200284802734371,0.045600615441799164,-0.003192797303199768,3.8885087825253604,-0.0038536489009857178
1746233065045763000,5.83476318359375,-0.13959869504986447,0.004942677915096283,-0.09281799252004845,-0.04439537227153778,0.13569531899019804,0.9677545401461298,0.24986638847349887,right,-0.00014847517013549805,-0.40560747260559443,-1.2538373011700807,-8.92330707630217,-0.19084750710733897,0.04500690475106239,0.002538144588470459,3.869478503362834,0.007125765085220337
1746233065085763000,5.87476318359375,-0.1405331242960995,0.02675202675163746,-0.09329238338637184,-0.017037181183695793,0.1361146883053775,0.9677513905543509,0.2505872339390639,right,0.0030038952827453613,-0.40474684508939374,-1.2626409314811229,-8.925425383630394,-0.19033253203564346,0.0010305419564247131,0.0008752942085266113,3.861721897886693,0.005419790744781494
1746233065125762800,5.9147626953125,-0.1402371837501657,0.049642931669950485,-0.09334154810051899,-0.005992390215396881,0.13686200398132492,0.9675758031158823,0.25215480981518323,right,0.0013613700866699219,-0.4055402349004316,-1.2595708763860165,-8.922762301900983,-0.19066486067398117,-0.016090499237179756,-0.004045456647872925,3.8688726464241743,0.0009271800518035889
1746233065165762800,5.9547626953125,-0.139773432698718,0.041866403073072433,-0.09336091013989503,-0.007384423166513443,0.1378282244745353,0.9673652057212293,0.25420504009443534,right,0.0016693472862243652,-0.40641903696341025,-1.2549587064154446,-8.919975301530958,-0.19102768238466314,-0.013473749160766602,-0.002968147397041321,3.8767902876809237,0.003304988145828247
1746233065205762800,5.9947626953125,-0.13914308914482343,0.012198159471154213,-0.09321322617273096,0.011160153895616531,0.13839869710894334,0.967239888592437,0.25548135092181334,right,0.00006890296936035156,-0.4070575630427307,-1.2489921992264688,-8.91831116771102,-0.19132164748540395,-0.012521324679255486,-0.002634391188621521,3.882541106292605,0.007700860500335693
1746233065245762800,6.0347626953125,-0.13825751681043733,-0.008611587807536125,-0.0928211127873886,0.020039010792970657,0.13841854131398823,0.9672355406270949,0.25568466761428943,right,0.0009651780128479004,-0.40735983245731877,-1.240932080759108,-8.918250961956382,-0.19152018680396307,-0.000513971783220768,-0.0032312870025634766,3.8852629324719308,0.004143625497817993
1746233065285763000,6.07476318359375,-0.1374057656701845,-0.010146615095436573,-0.09235375205169168,0.030842695385217667,0.13814029773709324,0.9673356770250409,0.25529165803070014,right,0.00332033634185791,-0.40703825024724927,-1.2335066069334744,-8.920542287763952,-0.1914411721181166,0.01034087035804987,-0.0006700009107589722,3.8823672110304233,0.003471553325653076
1746233065325763000,6.11476318359375,-0.13623882333462273,-0.017081134021282196,-0.09172133137143013,0.033758968114852905,0.1376687522671095,0.9674342671943595,0.2545451262630442,right,-0.002127230167388916,-0.40710181880881063,-1.223062515939027,-8.921731205287575,-0.19158684233920759,-0.015300984494388103,-0.00004045665264129639,3.8829397502213716,0.005030155181884766
1746233065365763000,6.15476318359375,-0.1350640179956898,-0.009319718927145004,-0.09112199439910577,0.03252790868282318,0.13720098427055008,0.9674602808166436,0.25377902509829325,right,-0.0005905032157897949,-0.4078714972506795,-1.2121775493092835,-8.920197419849037,-0.19207624594012537,-0.024494513869285583,-0.0011888816952705383,3.8898695494845508,0.000508040189743042
1746233065405762800,6.1947626953125,-0.1340074386289869,0.004122775048017502,-0.09065980374459594,0.02522619627416134,0.1370157063419404,0.9673897005057297,0.25355353979886547,right,-0.000824272632598877,-0.40915429275031684,-1.2020843175791203,-8.916520777162908,-0.1927816346983013,-0.03819320350885391,0.00009756535291671753,3.9014144413277503,0.0021633505821228027
1746233065445762800,6.2347626953125,-0.13300482919544096,0.012685364112257957,-0.09028173016555,0.013553688302636147,0.13700904901573843,0.9672449161431644,0.2536698586064948,right,-0.0018402934074401855,-0.41089157540463433,-1.192243307044357,-8.910990031042694,-0.1936882880311659,-0.04358953237533569,-0.0017975345253944397,3.9170390037000176,0.0015842318534851074
1746233065485762800,6.2747626953125,-0.1325449701474257,0.019069697707891464,-0.09019600073726271,0.004422389902174473,0.137250148673995,0.9670664913081088,0.25419895195660147,right,-0.0013831853866577148,-0.41243945396911286,-1.1873426755212246,-8.905517152589558,-0.19444711822114785,-0.027973569929599762,-0.0006983056664466858,3.9309503324136137,0.0012574195861816406
1746233065525763000,6.31476318359375,-0.13229562767102407,0.02342405915260315,-0.09023528153003775,-0.0112611660733819,0.137678472364806,0.9668759420139506,0.2550822400789897,right,-0.0021567344665527344,-0.41377483866619885,-1.1844286147054284,-8.900601323497295,-0.19507236405197564,-0.03142312914133072,-0.0009183809161186218,3.9429444293290374,0.0046242475509643555
1746233065565763000,6.35476318359375,-0.13236475897136527,0.018441244959831238,-0.09043450864528399,-0.007259928621351719,0.13811888800129757,0.9666546627747499,0.25591984717712796,right,0.0019049644470214844,-0.41528911937210805,-1.1842545733127743,-8.894590684905648,-0.19576436054120278,-0.03404486924409866,0.0025887489318847656,3.9565369013518095,0.005255371332168579
1746233065605763000,6.39476318359375,-0.1322311458258635,0.011938760988414288,-0.09049926532825536,-0.008845876902341843,0.13844689566681537,0.9664915826554471,0.25658018493981605,right,-0.0009009242057800293,-0.4164509674180628,-1.182459214328602,-8.89018631246686,-0.19630725791381162,-0.018781576305627823,-0.003055982291698456,3.966959511166811,0.003350675106048584
1746233065645762800,6.4347626953125,-0.13235038247143183,0.008853797800838947,-0.09064071383741608,-0.007338901981711388,0.13872314675272027,0.9663881342871875,0.25710504491562974,right,-0.000041484832763671875,-0.4170302170318656,-1.183215804849565,-8.887765807321667,-0.19655614516863856,-0.009160113520920277,-0.001818135380744934,3.9721538649395107,0.005139082670211792
1746233065685762800,6.4747626953125,-0.13228475735215434,0.007118250709027052,-0.09066960303334551,0.0019200490787625313,0.1389012744292737,0.966318488572396,0.2574697870879812,right,0.002581179141998291,-0.4174730290334824,-1.1824003968134522,-8.88609875089228,-0.19675891647020302,-0.010006200522184372,-0.001356363296508789,3.976123645353317,0.005363285541534424
1746233065725762800,6.5147626953125,-0.13201778140536782,0.0038696560077369213,-0.09058767586927267,0.008396807126700878,0.13895646774937861,0.9662580024830134,0.25761573435097834,right,0.001582503318786621,-0.4180579978734609,-1.1797216060582547,-8.88410728481412,-0.197054501335532,-0.008645971305668354,-0.0015665814280509949,3.9813668067038055,0.002551466226577759
1746233065765762800,6.5547626953125,-0.13171481652853886,0.002516835927963257,-0.0904646779293306,0.013530906289815903,0.13895095984117783,0.966231421290869,0.25765251387608523,right,-0.0005460381507873535,-0.41841113852413647,-1.1768452469043433,-8.883069758459925,-0.19724511699683148,-0.002501523122191429,-0.0012186914682388306,3.9845317004755136,0.003201127052307129
1746233065805763000,6.59476318359375,-0.13135246782607146,-0.008704197593033314,-0.09027653862660011,0.010111435316503048,0.13883171882946024,0.9662518909603235,0.2574767649862705,right,0.0009021759033203125,-0.4184873303904136,-1.173586683499813,-8.883194846144319,-0.19731515906740874,0.003083808347582817,-0.0018997043371200562,3.9852144220426675,0.0002644360065460205
1746233065845763000,6.63476318359375,-0.1313071185483817,-0.016551479697227478,-0.09018637852480674,0.0038247117772698402,0.1386438962048073,0.9663419277029656,0.2571199922970912,right,-0.0017150044441223145,-0.41789519756228427,-1.1734925754755734,-8.885585540673135,-0.19704728041832975,0.017933694645762444,-0.002295359969139099,3.979907840067148,0.0027090609073638916
1746233065885762800,6.6747626953125,-0.13155453940728543,-0.02243409864604473,-0.09018234297251151,0.0037590430583804846,0.13827261908071878,0.9664735201689113,0.25633312685502646,right,-0.0025159716606140137,-0.4170672352570861,-1.176122850913927,-8.888559003525971,-0.19666412105658584,0.01976824924349785,-0.0018030032515525818,3.9724855811119077,0.000983893871307373
1746233065925762800,6.7147626953125,-0.13191942934341155,-0.021642761304974556,-0.09020826392586204,-0.0034358224365860224,0.1377608525861071,0.9666137900589019,0.25522937834186865,right,0.0004216432571411133,-0.41631102466210046,-1.1797609882205724,-8.891104596355557,-0.19632193995893144,0.014671547338366508,-0.0035391151905059814,3.965704250408709,-0.001079946756362915
1746233065965762800,6.7547626953125,-0.132190179138904,-0.007092172279953957,-0.0902551263222904,0.0031106595415621996,0.13749578229194748,0.9666930604722253,0.25464486519811574,right,0.000029325485229492188,-0.4158290580694789,-1.1824199782967566,-8.892678129282594,-0.19609589300285157,0.002779712900519371,-0.0006401613354682922,3.961381126512587,0.0011535286903381348
1746233066005762800,6.7947626953125,-0.13194543926350882,-0.0014549661427736282,-0.0901128104071557,0.0007975911721587181,0.13736249095931202,0.966723320482544,0.2544201467062167,right,-0.004503965377807617,-0.4157929457900357,-1.1802623618714512,-8.893109506437183,-0.1961053348691633,-0.0021234131418168545,-0.004644840955734253,3.9610570091247554,-0.0000934302806854248
1746233066045763000,6.83476318359375,-0.1320745420746514,0.0016402287874370813,-0.09018619165834157,-0.003358021844178438,0.13735283263291367,0.9666893749632973,0.2543621261427412,right,0.00047266483306884766,-0.4160951049250391,-1.1812527611482888,-8.89176978226602,-0.1962456549438558,-0.01036810502409935,-0.001275777816772461,3.9637677293881772,0.0003511011600494385
1746233066085763000,6.87476318359375,-0.13225986921032287,0.0019243241986259818,-0.09032013494356604,-0.0064421179704368114,0.1373834460020593,0.9665946500557602,0.25435580514372313,right,-0.0029883980751037598,-0.41691113656002127,-1.1824737543106079,-8.888341561383008,-0.1966290225577561,-0.02744365483522415,-0.0024427026510238647,3.9710859434470533,0.0026287734508514404
1746233066125762800,6.9147626953125,-0.132464037772319,0.004473103675991297,-0.09048096130393625,-0.008964348584413528,0.13743288738370296,0.9664672581150621,0.25437346851320786,right,-0.0006088614463806152,-0.4180073809195186,-1.1837127215210348,-8.883779368034004,-0.19714588547945647,-0.02743489108979702,-0.0062757134437561035,3.9809132177174087,0.0008567273616790771
1746233066165762800,6.9547626953125,-0.13301073917140557,0.004185565747320652,-0.09079652817193144,-0.0068991463631391525,0.13751054002927013,0.9663443587275605,0.2543867170552284,right,-0.0002409815788269043,-0.41891703208180997,-1.188088598517701,-8.879538077202438,-0.19754883723266659,-0.016660109162330627,-0.0037054046988487244,3.9890640832081434,0.0010037422180175781
1746233066205762800,6.9947626953125,-0.13333478758249112,0.001640326576307416,-0.09099049752521292,-0.006874898914247751,0.1375704607191149,0.9662609640041004,0.2544199286069591,right,0.0007073879241943359,-0.4195370767404603,-1.1906368947610257,-8.876699638906121,-0.1978257035033359,-0.016264567151665688,-0.005721740424633026,3.9946182102039454,0.0022999048233032227
1746233066245762800,7.0347626953125,-0.1334208966252695,0.007296580821275711,-0.0910777500400841,0.00415539788082242,0.13766245196215587,0.9661867704791758,0.2545705791597958,right,0.0030088424682617188,-0.4200956497753476,-1.1911042200118303,-8.874384347701072,-0.19808375919746452,-0.007354947738349438,-0.0033897757530212402,3.9996202562749383,0.0018751025199890137
1746233066285763000,7.07476318359375,-0.13284092843327772,0.008419463410973549,-0.09084344071527231,0.014643009752035141,0.1377476770055595,0.9661588299186272,0.2548531562463834,right,0.0012960433959960938,-0.42041977533253744,-1.1857854361418634,-8.873788135373593,-0.19826800294765673,-0.00593575881794095,-0.0037049949169158936,4.002522407457232,0.0023534297943115234
1746233066325763000,7.11476318359375,-0.13187340441428025,0.005041494499891996,-0.09042520538246195,0.027979396283626556,0.13775044498753217,0.9661296652492847,0.2550356744120468,right,-0.0005223751068115234,-0.42098230306636353,-1.1769029684409498,-8.872697417527437,-0.19859909880483964,-0.012520913034677505,-0.001394018530845642,4.007557771275938,0.0031715333461761475
1746233066365763000,7.15476318359375,-0.13087334007155196,-0.00025097839534282684,-0.08996705614410745,0.02154153771698475,0.13759937074336273,0.9661095274369061,0.25490211817306935,right,-0.001208186149597168,-0.42167438281351105,-1.1676669380620122,-8.871118039381503,-0.19900948579724206,-0.011394612491130829,-0.004406280815601349,4.013751072958112,-0.0018476545810699463
1746233066405762800,7.1947626953125,-0.13031726065086072,0.006429268512874842,-0.0897260430671784,0.0064186351373791695,0.13757521583236257,0.9660868539415816,0.2549510931115954,right,-0.0018315911293029785,-0.4220857689690151,-1.1625190537795425,-8.870128443822264,-0.19924497276687328,-0.010967392474412918,-0.002089165151119232,4.017431807297468,0.0012808740139007568
1746233066445762800,7.2347626953125,-0.12981987381396687,0.00254693441092968,-0.08953606477644158,0.008627843111753464,0.13761384771681287,0.966031105102152,0.25511027114852214,right,-0.003757297992706299,-0.422708024213501,-1.1577831843640654,-8.868224656027555,-0.199573706819774,-0.01665947586297989,-0.002389483153820038,4.0229976247310635,0.0020422637462615967
1746233066485762800,7.2747626953125,-0.12968111588856845,0.012380555272102356,-0.0895420522730874,-0.0019482877105474472,0.13773410879412204,0.9659257191602116,0.25535507633420435,right,-0.0006546974182128906,-0.4235854005813935,-1.1560956696685403,-8.864881775340438,-0.19999758654453764,-0.021360935643315315,-0.0021720603108406067,4.030843077534437,0.00018152594566345215
1746233066525763000,7.31476318359375,-0.12946839131456014,0.028245756402611732,-0.0895820761672567,-0.00005240528844296932,0.1381113976713047,0.9657555135467842,0.25613713263967636,right,0.004997313022613525,-0.42474756028897337,-1.1536042912442237,-8.86047623385787,-0.20054049359738424,-0.03729137033224106,0.0010231658816337585,4.041229739253223,0.010396569967269897
1746233066565763000,7.35476318359375,-0.12876122086104116,0.012991165742278099,-0.08941902606768794,0.026632152497768402,0.13838408272152222,0.965519761864884,0.2567733407436842,right,0.011024773120880127,-0.4268056106791516,-1.146267810876295,-8.853022995242476,-0.20155814803449254,-0.03890750929713249,-0.00048092007637023926,4.059610614596307,0.008010506629943848
1746233066605763000,7.39476318359375,-0.1279758455812764,-0.008952559903264046,-0.08908009221016766,0.017840497195720673,0.13824163665469785,0.9654545529084616,0.25660512961896137,right,0.00513225793838501,-0.42783272565221075,-1.1387816929046064,-8.849780067798495,-0.2021175880964381,-0.0008214674890041351,-0.0027676746249198914,4.068777379131317,0.0024476945400238037
1746233066645762800,7.4347626953125,-0.12714305392074735,0.005762513726949692,-0.08863044352543145,0.014983102679252625,0.1381911082700606,0.9655983394241882,0.25671227450556694,right,-0.0006302595138549805,-0.42678380021759654,-1.1319518468845635,-8.854954255566,-0.20166219309103972,0.044037897139787674,-0.003260388970375061,4.059415676546097,0.005842357873916626
1746233066685762800,7.4747626953125,-0.12613859254906234,0.010520636104047298,-0.0881144738808365,0.02378861978650093,0.13838609480650607,0.965788319704262,0.25738837725012836,right,0.0022800564765930176,-0.4250122212315081,-1.123959752152115,-8.863207120126486,-0.2008433276424886,0.04750752076506615,-0.00028161704540252686,4.04359442255795,0.0045074522495269775
1746233066725762800,7.5147626953125,-0.12502455198562046,0.008743123151361942,-0.08758038090226808,0.02485857531428337,0.13857663782015017,0.9659122246017985,0.2580534825137963,right,-0.006042420864105225,-0.42389334390900046,-1.1146486107103526,-8.868937188211083,-0.2003490190916955,0.02090805396437645,0.0014809221029281616,4.033595883373916,0.0068708062171936035
1746233066765762800,7.5547626953125,-0.12420318902452682,-0.00028600823134183884,-0.08717035344934687,0.009320633485913277,0.13855005460004727,0.9659898108940553,0.2581849816900955,right,-0.007635831832885742,-0.42342271371240003,-1.1075986191336065,-8.871732371887564,-0.20017208345511117,0.0070306770503520966,-0.0006295368075370789,4.029388494811952,0.005017369985580444
1746233066805763000,7.59476318359375,-0.1239738551896672,-0.018401790410280228,-0.08699731976512064,-0.004851016215980053,0.13833329413795678,0.9660717170475204,0.25779808114454467,right,-0.007982373237609863,-0.42300445558341476,-1.105772353554517,-8.873657786992192,-0.20000207295919922,0.007009462919086218,-0.0032055601477622986,4.025648723761737,0.003391444683074951
1746233066845763000,7.63476318359375,-0.12518088164708188,-0.03414801508188248,-0.08742006070221586,-0.015344485640525818,0.13783734912762058,0.9661728228097713,0.2565433531857373,right,0.002566397190093994,-0.4223811811861005,-1.1167953404154627,-8.874804618939757,-0.19967133065698534,0.018956445157527924,-0.0005069151520729065,4.020074430760741,-0.003017812967300415
1746233066885762800,7.6747626953125,-0.12648753129546225,-0.032116204500198364,-0.08786192588184591,-0.018449971452355385,0.13728123507335013,0.9663094420004876,0.25515505790729087,right,0.0032714009284973145,-0.4214665268207612,-1.128854026999697,-8.87698137845695,-0.1991988691096829,0.013918343931436539,-0.002966836094856262,4.0118914165660735,-0.001277834177017212
1746233066925762800,7.7147626953125,-0.12732416314283268,-0.016716424375772476,-0.0881357112194844,0.005707023665308952,0.13679295625785454,0.9663793384516607,0.25398093898643065,right,0.0038120150566101074,-0.42122174869452594,-1.1364050269011408,-8.877007681941986,-0.1990745297360593,-0.0034134499728679657,-0.0017062276601791382,4.009700920784473,-0.0025662481784820557
1746233066965762800,7.7547626953125,-0.12736100804894301,-0.009150165133178234,-0.08809957529655615,0.006196747068315744,0.13645376812064958,0.9663920806218753,0.2532594945246884,right,-0.0013583898544311523,-0.421546614943511,-1.1365665741384028,-8.875673218467831,-0.1992613202735799,-0.010976940393447876,-0.004654504358768463,4.01260804040283,-0.0017549097537994385
1746233067005762800,7.7947626953125,-0.12720778973300298,0.01274141762405634,-0.08806381275875276,0.0028633945621550083,0.13642612300733747,0.9663170678913602,0.25320487700146815,right,-0.0012233853340148926,-0.4223413736645824,-1.1348016833577304,-8.872681050914526,-0.19965952146822658,-0.02571788802742958,-0.0014906004071235657,4.019718164668977,-0.0005168020725250244
1746233067045763000,7.83476318359375,-0.1265929195142788,0.025584960356354713,-0.0879282121048493,0.006975351832807064,0.13673452245909223,0.9661180333739583,0.2539108300099411,right,-0.005280256271362305,-0.423990423617452,-1.1285074785843492,-8.866789654788374,-0.20046989654309633,-0.05679399520158768,-0.0008337870240211487,4.034463606119155,0.004937231540679932
1746233067085763000,7.87476318359375,-0.12605639551057,0.030198674649000168,-0.08790071934555097,0.0012115156278014183,0.13714223682188745,0.9657983414246003,0.2547730614340704,right,-0.0006955862045288086,-0.4266136216440398,-1.122415737580508,-8.856863888579607,-0.2017401029157931,-0.0630263090133667,-0.0008335188031196594,4.057896504154801,0.005480468273162842
1746233067125762800,7.9147626953125,-0.12588736411663226,0.021715248003602028,-0.08805057959616773,-0.0058469525538384914,0.1375863263055007,0.9654630499483458,0.2556366140309968,right,0.002417266368865967,-0.4292133906620254,-1.1195902318309991,-8.846557598620652,-0.2029733613604497,-0.051904357969760895,0.0018853545188903809,4.081092670825123,0.007091104984283447
1746233067165762800,7.9547626953125,-0.12624391230616216,0.001841805875301361,-0.0883496631684134,-0.017650475725531578,0.13776689645858933,0.9652274981064941,0.25587033070927384,right,0.0010759234428405762,-0.43107296227496145,-1.1217869381576775,-8.838613946139812,-0.20383926650249815,-0.03724253177642822,-0.00027758628129959106,4.097667665790021,0.010985761880874634
1746233067205762800,7.9947626953125,-0.12759883890538057,-0.02158239483833313,-0.08899990225590429,-0.03134854510426521,0.13760570918816517,0.9650861504978455,0.2552089303738559,right,-0.0015503168106079102,-0.43222647726934244,-1.1331593229781836,-8.832391710624098,-0.20433397036264664,-0.014715196564793587,-0.0036488696932792664,4.107942391566932,0.008427232503890991
1746233067245762800,8.0347626953125,-0.12959672401195202,-0.037369273602962494,-0.08979943657059242,-0.041518714278936386,0.13707569226037006,0.9651205894549905,0.25369425191525763,right,0.0038233399391174316,-0.43204726824955797,-1.1508982471559197,-8.830839805006981,-0.20417768964475266,0.019899902865290642,-0.006597749888896942,4.106346354547143,0.0021070241928100586
1746233067285763000,8.07476318359375,-0.1313575501473518,-0.05050069838762283,-0.09036521521192656,-0.013996433466672897,0.13631929150101796,0.9653569835754615,0.2518194142991648,right,0.0001944899559020996,-0.43034063701821956,-1.167362256027013,-8.835734591311216,-0.20331513008711355,0.040011804550886154,-0.007383868098258972,4.09114206341356,0.0006071031093597412
1746233067325763000,8.11476318359375,-0.13175910926125445,-0.027330100536346436,-0.09028560876257351,0.022059720009565353,0.1355521048614255,0.9656734368484114,0.2502253255456764,right,0.002193629741668701,-0.42827319892306714,-1.1720189227264375,-8.843630897518992,-0.2023581446514325,0.04841573163866997,-0.006328679621219635,4.0727071197956795,-0.0017616450786590576
1746233067365763000,8.15476318359375,-0.13075373547924254,-0.010022198781371117,-0.08963014131764299,0.03920983150601387,0.1350388634436513,0.9659549532140105,0.2494374964363916,right,-0.002260863780975342,-0.42659463984533247,-1.1640168911218642,-8.851570458346604,-0.20164808380961552,0.03831189125776291,-0.007369697093963623,4.057726992806792,-0.003701150417327881
1746233067405762800,8.1947626953125,-0.12893120896793342,-0.00702653918415308,-0.08868054563326483,0.05276704952120781,0.13476524586780175,0.9661558028168286,0.24928943296275133,right,-0.003590703010559082,-0.42558507871523493,-1.1484088414929807,-8.857734826195239,-0.201288254081945,-0.005203034728765488,-0.0053484439849853516,4.0487119117021555,0.005782097578048706
1746233067445762800,8.2347626953125,-0.12758635137802513,-0.03200788423418999,-0.08794217115599627,0.04858136549592018,0.13398599035143455,0.9662079752759569,0.24792297990559983,right,0.0011311769485473633,-0.4264977423252206,-1.1360247954118996,-8.855603074863552,-0.20188137141727586,-0.020046064630150795,-0.0056063830852508545,4.0568619004100555,-0.002896219491958618
1746233067485762800,8.2747626953125,-0.12650701912949935,-0.03717496618628502,-0.08726993666115453,0.0454661026597023,0.13307214496928071,0.9663290473453128,0.24624421083270995,right,0.0026782751083374023,-0.42684988507776267,-1.1262857108816504,-8.855406090986728,-0.2021976872119112,-0.006631374359130859,-0.0026485323905944824,4.060005751393735,0.004112452268600464
1746233067525763000,8.31476318359375,-0.1255409799643852,-0.05668911337852478,-0.0865736715775959,0.038997501134872437,0.1318679403056713,0.9665180686291872,0.24395274646955128,right,0.0006864070892333984,-0.4268933824199702,-1.1177083636071532,-8.856315022525191,-0.20238235349998468,-0.008032625541090965,-0.006612449884414673,4.060394166189432,0.0003198087215423584
1746233067565763000,8.35476318359375,-0.12544720980588955,-0.03303425759077072,-0.08627449633045914,0.01387890987098217,0.1308075457051004,0.9667387838105452,0.24180373205879607,right,0.0032389163970947266,-0.4261977125074947,-1.1172311014842242,-8.859220096316934,-0.20214402511255677,0.02995750866830349,-0.00759955495595932,4.054183036589622,-0.005420774221420288
1746233067605763000,8.39476318359375,-0.12530189456193477,0.0040083639323711395,-0.08607931434127418,0.0052171628922224045,0.13055107182766387,0.9669402075251313,0.24135970642474278,right,0.0019329190254211426,-0.4246627720363216,-1.1167200832221655,-8.865545792207122,-0.20142819278635377,0.029510345309972763,-0.0019386932253837585,4.0404721988841885,0.008553504943847656
1746233067645762800,8.4347626953125,-0.12466985671570026,0.023998742923140526,-0.08584829756201022,0.021946614608168602,0.13085405179344906,0.9669217799169985,0.24211941855922336,right,0.0038238167762756348,-0.4246252930764891,-1.1111353418923913,-8.866400363209843,-0.20141866344498963,-0.004870284348726273,-0.0008409097790718079,4.0401372678413985,0.004689633846282959
1746233067685762800,8.4747626953125,-0.12320103567140239,0.021582987159490585,-0.08527195702786121,0.029964016750454903,0.13124520735977213,0.9668654241836745,0.24321907711810709,right,-0.004319608211517334,-0.42506181399985205,-1.097894167525321,-8.866271768394112,-0.20167957959032515,-0.0028948395047336817,-0.005839154124259949,4.044037490150332,0.004409134387969971
1746233067725762800,8.5147626953125,-0.12258034303427653,-0.017070453613996506,-0.0849767819598737,-0.004640689119696617,0.13118352985463339,0.9668816249239407,0.2432176365177478,right,-0.00270766019821167,-0.4251573258522763,-1.092343474595621,-8.866568120992183,-0.20176668379105558,0.0045388974249362946,-0.006940580904483795,4.044890892109275,0.001676112413406372
1746233067765762800,8.5547626953125,-0.12411688884565956,-0.03895871713757515,-0.08554226243242562,-0.03952094912528992,0.13082100690267504,0.9670363524421592,0.24219828632797744,right,0.0023717284202575684,-0.42373640357143066,-1.1066764627873897,-8.870573264980315,-0.20102027023032645,0.05445953458547592,-0.006768651306629181,4.032192738577724,0.00015869736671447754
1746233067805763000,8.59476318359375,-0.12676277660797966,-0.05428666993975639,-0.08647983675176821,-0.06146138161420822,0.13013943732852343,0.9673666250758707,0.24035216813461352,right,-0.00528949499130249,-0.4207261560977432,-1.1316725184865295,-8.879614649569987,-0.19946652386108601,0.08457471430301666,-0.012608923017978668,4.005264984163642,0.002436339855194092
1746233067845763000,8.63476318359375,-0.12971576899968815,-0.05244573578238487,-0.0875923176905881,-0.02499298006296158,0.12976991039797922,0.9677190266671041,0.23912795137227177,right,0.0073854923248291016,-0.4169660043533445,-1.1598288648474961,-8.891105180877446,-0.1975028741438283,0.07426463067531586,-0.005344666540622711,3.9715781108781694,0.007291197776794434
1746233067885762800,8.6747626953125,-0.13141367374357643,-0.04074056074023247,-0.08813298615392699,-0.024024730548262596,0.12902288931949166,0.9679740110640839,0.23731918618807785,right,-0.010249078273773193,-0.4149626418567477,-1.1759637148294597,-8.89699306987226,-0.19649979941281456,0.031042374670505524,-0.021848060190677643,3.9536069853797553,-0.01171371340751648
1746233067925762800,8.7147626953125,-0.13149175456058818,-0.0010152384638786316,-0.08800498369446787,0.0319075733423233,0.12850299621758055,0.9681699070345847,0.23628052420679624,right,-0.00022560358047485352,-0.4137087903397287,-1.1773073845233768,-8.901808945721386,-0.1959316110978256,0.041893668472766876,-0.01628536731004715,3.9423514318719506,-0.020496249198913574
1746233067965762800,8.7547626953125,-0.12958154937363267,0.01564282551407814,-0.08701596113697374,0.040279265493154526,0.12859782589404553,0.9684798691614015,0.236966021948749,right,-0.00267106294631958,-0.41113829980971717,-1.1616066151097417,-8.914060524529217,-0.19477580956786605,0.07200999557971954,-0.010983586311340332,3.919257264271378,-0.0076194703578948975
1746233068005762800,8.7947626953125,-0.12765395228755727,0.01412263885140419,-0.0860287003060851,0.02486434578895569,0.12888850083988834,0.9688199599318217,0.23807699363795928,right,0.002646505832672119,-0.40799643484678094,-1.1459837332379073,-8.928452622497081,-0.193325288958661,0.08283057808876038,-0.00510406494140625,3.8909941696003076,-0.002257704734802246
1746233068045763000,8.83476318359375,-0.12596470348151836,0.035420481115579605,-0.0851745446015499,0.018006742000579834,0.12970710486314413,0.9692432427177902,0.2402868698928208,right,0.001808464527130127,-0.40322464717953566,-1.133219455667585,-8.948694031015037,-0.191020636383615,0.1415572315454483,-0.000982619822025299,3.847995862612128,-0.0041626691818237305
1746233068085763000,8.87476318359375,-0.1251512367869591,-0.004386521875858307,-0.08462716386711876,0.006852293387055397,0.13012357948953657,0.9697209284212363,0.24150098147223065,right,-0.002192378044128418,-0.39812101738447414,-1.1283763264853506,-8.96898161676228,-0.1885403359926637,0.11906595528125763,0.009819760918617249,3.8019104032635687,0.005857795476913452
1746233068125762800,8.9147626953125,-0.12389308495844532,-0.05428759753704071,-0.08377938649342165,0.06646892428398132,0.12969168428185482,0.9701707026102546,0.24099069161702497,right,-0.004610002040863037,-0.39452752819581516,-1.1187721934463828,-8.983893354690075,-0.18689549971031127,0.04860217869281769,0.018200814723968506,3.7694019261077045,0.023287177085876465
1746233068165762800,8.9547626953125,-0.1234582751847158,-0.06825613230466843,-0.08328121762263013,0.01896033063530922,0.12846595322668933,0.9704651582055162,0.23859374386970378,right,-0.013695001602172852,-0.3933187387712888,-1.115426097888872,-8.988894523978233,-0.186435464616849,0.031089453026652336,0.016256622970104218,3.7584558769404888,0.006682664155960083
1746233068205762800,8.9947626953125,-0.12488418691324209,-0.09995609521865845,-0.08355739101040124,-0.01627819612622261,0.1267927453211132,0.9707842458105476,0.23492829278495958,right,-0.008596479892730713,-0.3918758157126435,-1.128916716972366,-8.99266644373238,-0.18579502280356616,0.036549732089042664,0.01602649688720703,3.7453821680948134,0.007403701543807983
1746233068245762800,9.0347626953125,-0.12722402077478934,-0.08393628895282745,-0.08427567116230338,-0.021201131865382195,0.12518501599833382,0.9710656834311653,0.23122828189991737,right,-0.0015075206756591797,-0.39040939155049037,-1.150650556005165,-8.995438246533274,-0.18508888577496196,0.01944110170006752,0.013393282890319824,3.732087509974837,0.007874250411987305
1746233068285763000,9.07476318359375,-0.12948437636437943,-0.06360062211751938,-0.08502053923739987,-0.04585527628660202,0.12374407362248045,0.971262864548548,0.22786536771443977,right,0.0071607232093811035,-0.3895705805060478,-1.1713842780847101,-8.995915800917148,-0.18468204821898038,0.008440361358225346,0.010554492473602295,3.7244790807977317,0.005875498056411743
1746233068325763000,9.11476318359375,-0.1316278616455333,-0.012849245220422745,-0.08597647445911043,-0.016378315165638924,0.12356337257180529,0.9712473604995495,0.22709833006052946,right,0.02014303207397461,-0.3892820872229391,-1.1908051640000195,-8.994449235495924,-0.184441802085267,-0.004993231035768986,0.017196618020534515,3.72186188403666,0.011633306741714478
1746233068365763000,9.15476318359375,-0.13127834983779682,-0.011425566859543324,-0.08579931242515086,0.026497164741158485,0.12336602232274113,0.9712319491927887,0.22673533358381456,right,0.0063073039054870605,-0.3898131927069505,-1.1874025159496813,-8.992903759619592,-0.1847376361779888,-0.010269484482705593,0.006579741835594177,3.7266800979733463,0.007407039403915405
1746233068405762800,9.1947626953125,-0.13113421162782826,-0.02879372239112854,-0.08562757168557934,0.0031130220741033554,0.12294097636332305,0.9713409213026929,0.22591013442263608,right,0.0024361610412597656,-0.38929121215659507,-1.1863604595508426,-8.995002193203568,-0.1845276323613288,0.04363984987139702,0.0015226826071739197,3.7219445938840505,0.005619227886199951
1746233068445762800,9.2347626953125,-0.1321850701523708,-0.06688815355300903,-0.0858563372908402,-0.033883191645145416,0.12214266933522311,0.9716514591468497,0.22417783215325668,right,-0.002398192882537842,-0.3867764614835209,-1.1970421586934477,-9.003000206220149,-0.18331239932648094,0.06226769834756851,0.00338609516620636,3.6991169682651757,0.011159241199493408
1746233068485762800,9.2747626953125,-0.1338923292496779,-0.0662584900856018,-0.08630969915584594,-0.013355761766433716,0.12131916059631623,0.972118046382817,0.22235879471471984,right,0.0010733604431152344,-0.3824125803728988,-1.214554215312749,-9.01685571309328,-0.18116000759276749,0.10682880878448486,0.007067404687404633,3.6594480979606505,0.011905491352081299
1746233068525763000,9.31476318359375,-0.1351505341928304,-0.06062432751059532,-0.08654473085737215,0.015243308618664742,0.12018154495163112,0.9725331673905095,0.21993812181695416,right,0.009184598922729492,-0.3790951701572304,-1.2275272402629256,-9.0272999502182,-0.17957118944614348,0.046349696815013885,0.015687361359596252,3.6292452673986553,0.012853890657424927
1746233068565763000,9.35476318359375,-0.13448102704359233,-0.0041407085955142975,-0.08601436236614998,0.034998759627342224,0.1193905155826819,0.9728047660256146,0.2185104913577408,right,0.004358410835266113,-0.37747072495195294,-1.222271950083226,-9.033950055757165,-0.17888061983704304,0.05356939509510994,0.008660048246383667,3.6144410814985632,-0.004499346017837524
1746233068605763000,9.39476318359375,-0.13363069446194006,0.011246264912188053,-0.0855387966523337,0.001825537532567978,0.1196226943663343,0.9730597225651145,0.21927035270096093,right,-0.0032041072845458984,-0.3747309010593273,-1.2159045339431613,-9.044766633325814,-0.177562253652995,0.08546693623065948,0.003482513129711151,3.589450432626903,-0.011640667915344238
1746233068645762800,9.4347626953125,-0.13341854434145964,0.017848700284957886,-0.0854389278736289,-0.027045046910643578,0.12041489537733857,0.9732747876362782,0.22108886123766597,right,-0.0019645094871520996,-0.3714334233302544,-1.2155535285484045,-9.056706077444552,-0.17588827173841112,0.07108841836452484,-0.0021600723266601562,3.559337910696864,0.00028774142265319824
1746233068685762800,9.4747626953125,-0.1338668093623814,-0.02418581396341324,-0.08562253909168088,-0.06575527787208557,0.12075522452143368,0.9734041757260923,0.22180048042434572,right,-0.02117818593978882,-0.3694168169777553,-1.2205687263619154,-9.063255645218492,-0.1748466483130581,0.03960559517145157,-0.011657677590847015,3.5409029670789836,-0.0055291056632995605
1746233068725762800,9.5147626953125,-0.13657752330400372,0.0007662177085876465,-0.08679733607015626,-0.07294593006372452,0.12084379200793448,0.9735516019958242,0.2216240383127336,right,-0.007410883903503418,-0.36673034983650166,-1.246422787129879,-9.069304862254857,-0.173379244124888,0.06469771265983582,-0.009027764201164246,3.5163223603129383,-0.005101829767227173
1746233068765762800,9.5547626953125,-0.13981696114092368,-0.00426518265157938,-0.08834036192402991,-0.09016339480876923,0.12114549969125213,0.9734853491502499,0.2217097600460088,right,-0.008786320686340332,-0.365871668060519,-1.2762158678472042,-9.068206545624136,-0.17276034525442127,-0.026807241141796112,-0.009018003940582275,3.5084602486357093,0.01004791259765625
1746233068805763000,9.59476318359375,-0.14273855935107124,0.009908760897815228,-0.0898680953450388,-0.043688420206308365,0.12146485149693617,0.9731496010405801,0.22173756607196657,right,0.0006108283996582031,-0.3680346214195365,-1.3016215272605418,-9.056906568452716,-0.17363760333937237,-0.08702675998210907,-0.010306626558303833,3.528259466344118,0.01086917519569397
1746233068845763000,9.63476318359375,-0.14337283810445475,-0.01380752120167017,-0.09032476556336162,0.020548906177282333,0.12131059386735078,0.9727513011799379,0.22108754978555448,right,-0.000133514404296875,-0.37233684276558493,-1.3051849188305438,-9.04097133269608,-0.1757275691724836,-0.1202845424413681,-0.019763275980949402,3.567591944301128,0.003676891326904297
1746233068885762800,9.6747626953125,-0.14282145569949745,-0.009577350690960884,-0.09011089040059463,0.02210090309381485,0.12059718212232126,0.9724779485555611,0.21951280110457722,right,-0.006013929843902588,-0.37643089303158594,-1.2981098658777772,-9.027156742355228,-0.1778289019985458,-0.06236448884010315,-0.03149235248565674,3.6049598441869017,-0.01422584056854248
1746233068925762800,9.7147626953125,-0.1444771952094039,-0.010804403573274612,-0.0908953113191568,-0.0560278445482254,0.12051152027178708,0.9723833376354154,0.2190071930383762,right,0.0049092769622802734,-0.37694995722013724,-1.3127851647011934,-9.02314224601686,-0.1780051158546066,0.04596874117851257,-0.02076616883277893,3.609693010188639,-0.015427738428115845
1746233068965762800,9.7547626953125,-0.14674312124398065,-0.03580021113157272,-0.09181046709193744,-0.039561428129673004,0.12052419744958988,0.9726400976644566,0.21880931272083076,right,0.00932389497756958,-0.37333380890545476,-1.3351273448906837,-9.032998454120754,-0.17611388475763726,0.09513126313686371,-0.0027790218591690063,3.576697041776776,-0.0005755722522735596
1746233069005762800,9.7947626953125,-0.1480989426883891,-0.041173577308654785,-0.09218618802797916,-0.011002367362380028,0.1199210652540744,0.9730054005983926,0.21752082341148993,right,0.007734954357147217,-0.36966599663708555,-1.3492999548889695,-9.044093848630785,-0.1743021566903602,0.07224327325820923,0.0039898306131362915,3.5431817256659266,0.002588033676147461
1746233069045763000,9.83476318359375,-0.14871690416691716,-0.05517768859863281,-0.09221540004757584,0.05360037088394165,0.11891542781882003,0.9732883330547915,0.21545097649578052,right,0.009202122688293457,-0.3676842519675382,-1.3559263872914016,-9.050185151243209,-0.17339351048610546,-0.009043432772159576,0.008521482348442078,3.525053363779187,0.004253029823303223
1746233069085763000,9.87476318359375,-0.14694809435291664,-0.055935200303792953,-0.09119913496067626,0.0480964295566082,0.11760685265231217,0.9733964249960791,0.21301095851550905,right,-0.009771585464477539,-0.3689233019883943,-1.339275550611317,-9.048241615960002,-0.17421478669388388,-0.05857444554567337,-0.0030999183654785156,3.536389581307769,0.011251598596572876
1746233069125762800,9.9147626953125,-0.14638984921855386,-0.06441739201545715,-0.09076437028375606,0.02258307859301567,0.11613920738239328,0.9733830801643824,0.20997355059950804,right,-0.011518299579620361,-0.37119923629090057,-1.3330467392243444,-9.041001727834344,-0.17549650048812193,-0.07244869321584702,-0.00248563289642334,3.5571979760587213,0.00794181227684021
1746233069165762800,9.9547626953125,-0.14663173456586492,-0.04257802665233612,-0.09072648826574345,0.02303110621869564,0.11473454489674839,0.9733012034281442,0.20690398323802475,right,-0.00016188621520996094,-0.3737945630996643,-1.3338802674390375,-9.03151552208662,-0.17688854648881033,-0.07083119451999664,-0.00035487115383148193,3.5809038458168505,0.009819328784942627
1746233069205762800,9.9947626953125,-0.14636785787291318,-0.015257982537150383,-0.09057317090109418,0.021373331546783447,0.11406307427202135,0.9731658735794508,0.2054429854854629,right,0.008310377597808838,-0.37619586884932477,-1.3302391344577074,-9.023334553718566,-0.17814173964093802,-0.050537966191768646,0.002557694911956787,3.602816110156476,0.010987848043441772
1746233069245762800,10.0347626953125,-0.14582551329067436,-0.02097444050014019,-0.09027075701627085,0.015356197953224182,0.11353393441079532,0.9731259656763772,0.20438579796143444,right,0.008265078067779541,-0.37748494493390566,-1.3246692253708838,-9.019452159327267,-0.17884943980295734,-0.021138448268175125,0.0015281736850738525,3.6145705530971286,0.012474536895751953
1746233069285763000,10.07476318359375,-0.14524565055618982,-0.026751946657896042,-0.08990332707772447,0.02262602187693119,0.11304894376261357,0.9732163750218294,0.2035035578090163,right,0.008256733417510986,-0.3773367259481209,-1.3195163726523518,-9.020748628878593,-0.17884970138035702,0.019848737865686417,0.001344338059425354,3.613219430749118,0.01274031400680542
1746233069325763000,10.11476318359375,-0.14450231631540825,-0.034112051129341125,-0.08937167030972086,0.023240063339471817,0.11234225732039203,0.9734524134917103,0.20226106666805166,right,0.0026157498359680176,-0.3759611097268319,-1.3135251694135368,-9.026637102395295,-0.17827592008053275,0.05369756370782852,0.00005780160427093506,3.6006750064745545,0.0034395456314086914
1746233069365763000,10.15476318359375,-0.14406465856687875,-0.024319112300872803,-0.0889672066265285,0.011057325638830662,0.1118291838270814,0.9737833838328256,0.2014337943722929,right,-0.003674030303955078,-0.3731986905480033,-1.310997404501587,-9.037019964721798,-0.17698881964253496,0.06582707166671753,0.00037117302417755127,3.5754631160676476,0.002538740634918213
1746233069405762800,10.1947626953125,-0.14440591873782616,-0.022867348045110703,-0.08897216984575938,-0.010369998402893543,0.11139761161914519,0.9740104172892019,0.20059496115856387,right,-0.005707740783691406,-0.3711492331493992,-1.3151330430015922,-9.04380451029539,-0.17600637215608095,0.031837429851293564,0.004939183592796326,3.5567408799409863,0.006256997585296631
1746233069445762800,10.2347626953125,-0.14480988292416275,-0.013218814507126808,-0.08907455330469805,-0.005475633777678013,0.11110894819419351,0.974117071152318,0.19998046214093823,right,-0.006636202335357666,-0.3701971339362122,-1.3192743805900216,-9.046619567716121,-0.175546281123614,-0.0012485124170780182,0.005514219403266907,3.548038225786388,0.007445842027664185
1746233069485762800,10.2747626953125,-0.1449059543116252,0.0028191115707159042,-0.08912868697282637,0.010185704566538334,0.11099274020278758,0.9740539021903648,0.19968173578289533,right,0.0015552639961242676,-0.37099210622052925,-1.3197358606219292,-9.043698711833358,-0.17594249478472257,-0.02344088815152645,0.01138218492269516,3.5553047096580266,0.004837453365325928
1746233069525763000,10.31476318359375,-0.14358918115682862,0.014914894476532936,-0.08857383564838127,0.06019812449812889,0.1110555824969523,0.9739592307830653,0.1999722014160085,right,0.006369411945343018,-0.37243097203830683,-1.3070927982784808,-9.04035641566813,-0.17670533541454847,-0.028183242306113243,0.020551450550556183,3.568451776000857,0.004676550626754761
1746233069565763000,10.35476318359375,-0.14066967213959536,-0.0008723568171262741,-0.08722696394331309,0.09319163858890533,0.11101060840241478,0.9739748084338176,0.20036048580080726,right,0.006971478462219238,-0.37338613612674326,-1.2802153127469122,-9.040755059596895,-0.17731675421718962,-0.007879961282014847,0.02052205055952072,3.577174888421595,0.004654914140701294
1746233069605763000,10.39476318359375,-0.13639198578383596,-0.01809638924896717,-0.08506237248185627,0.12060034275054932,0.1103312457451223,0.9742575580416496,0.19977925314729028,right,0.009962618350982666,-0.37269098424819036,-1.2418680464349687,-9.048610449272394,-0.1772390267564028,0.05234446004033089,0.022855453193187714,3.570826688438654,-0.003418475389480591
1746233069645762800,10.4347626953125,-0.13247153475028403,-0.024962736293673515,-0.08289928871016627,0.057694196701049805,0.10946660060301049,0.9748620326937819,0.1989156675457507,right,-0.0003789067268371582,-0.368549380715187,-1.208327011360973,-9.067990857046842,-0.1754674927377621,0.13143831491470337,0.008343636989593506,3.5329689592093225,-0.00109100341796875
1746233069685762800,10.4747626953125,-0.13068269991927384,-0.006802551448345184,-0.08183509288792129,0.0015068314969539642,0.10916640622026252,0.9753440041829057,0.19882440173267144,right,-0.02053511142730713,-0.364242228919213,-1.1940758562337606,-9.085140729290247,-0.1734639535649353,0.06350786983966827,0.004835277795791626,3.4935338976606722,0.015006870031356812
1746233069725762800,10.5147626953125,-0.13078465021621155,-0.0080786794424057,-0.08178936558637549,-0.0141376294195652,0.10884902221460828,0.9754639856860521,0.19820131531277232,right,-0.010287821292877197,-0.3632718022156761,-1.1954436374556272,-9.088376057949661,-0.17300947632690541,-0.034516334533691406,-0.008712247014045715,3.4846401048481463,0.0008674561977386475
1746233069765762800,10.5547626953125,-0.13141056322365935,-0.0068660578690469265,-0.0821217643781918,0.014797702431678772,0.10849986182486258,0.9752498529167841,0.19725171803776245,right,0.002492070198059082,-0.36584962524554004,-1.1999508857470005,-9.078690530237555,-0.17427453051378883,-0.08066900074481964,-0.010001249611377716,3.5082582963228224,-0.007884800434112549
1746233069805763000,10.59476318359375,-0.1308432952641589,0.007727218326181173,-0.08194568202465559,0.029471546411514282,0.10821149483910575,0.9749558444316432,0.196584067560928,right,0.006282150745391846,-0.3696118586713346,-1.1930701863225548,-9.066219755721091,-0.17617136326070468,-0.08350662142038345,-0.016161702573299408,3.5426866356253623,-0.006290435791015625
1746233069845763000,10.63476318359375,-0.12982195305654826,-0.0068463715724647045,-0.0815597632433843,0.030326861888170242,0.10808798721879836,0.9747148675566724,0.19637071772678263,right,-0.00149458646774292,-0.3727168965309687,-1.1823800846777857,-9.056482205560803,-0.1777524286246351,-0.0796554684638977,-0.018666699528694153,3.571063127543032,0.011135965585708618
1746233069885762800,10.6747626953125,-0.13016639089123058,-0.01503492146730423,-0.08174965421915938,-0.017084255814552307,0.10764570645483829,0.9744856122425569,0.1952660516107878,right,-0.001296699047088623,-0.3755949109018738,-1.1841604652885347,-9.045846245256065,-0.17918480807590575,-0.05058502405881882,-0.011318773031234741,3.5973341716140506,0.011928409337997437
1746233069925762800,10.7147626953125,-0.13108377488149264,-0.045175254344940186,-0.0821328764654639,0.0038705244660377502,0.1069351098917622,0.9743280608055991,0.19353447788015316,right,0.004303991794586182,-0.37780983315718286,-1.1914140896786003,-9.036834671282767,-0.18028828723946613,-0.05811404436826706,-0.008695513010025024,3.6175323255121707,0.008977562189102173
1746233069965762800,10.7547626953125,-0.13195046082670872,-0.09238485246896744,-0.0822939331074249,-0.005912161432206631,0.10541944739521124,0.9743781330728191,0.19021826280853385,right,-0.006401956081390381,-0.37874688767241965,-1.1987992314938456,-9.032434390497206,-0.18083620902514982,0.009519405663013458,-0.022827915847301483,3.6260718980595468,-0.010995030403137207
1746233070005762800,10.7947626953125,-0.13465384990589596,-0.11245305091142654,-0.08312240404669534,-0.01921098306775093,0.10339029221629621,0.974690430390898,0.18564744465525287,right,-0.005393326282501221,-0.37682151247655177,-1.224147973088175,-9.036061933344602,-0.17994367315869972,0.051775332540273666,-0.02164415270090103,3.608521920582652,-0.013120174407958984
1746233070045763000,10.83476318359375,-0.1380848751906013,-0.12255591154098511,-0.08425967496262533,-0.03646361455321312,0.10106249126401219,0.9749593805008645,0.1803136805990101,right,-0.0021077990531921387,-0.3753628586198062,-1.2558669073015452,-9.037012365937233,-0.17927883424637117,0.00291438028216362,-0.02334018051624298,3.595217325590551,-0.01362636685371399
1746233070085763000,10.87476318359375,-0.1413351822594201,-0.0789332240819931,-0.08540544571376255,-0.03904038667678833,0.09914694786286768,0.9751448457884239,0.17584305607602396,right,0.0019721388816833496,-0.3743214028743264,-1.2857599412620067,-9.036585080435872,-0.1787968361638594,0.020196888595819473,-0.0186777263879776,3.585712999664247,-0.01956954598426819
1746233070125762800,10.9147626953125,-0.14444380450472014,-0.0936928540468216,-0.08656784289271734,-0.07552902400493622,0.09765646686694784,0.9752780389011733,0.17226975781619727,right,-0.009007751941680908,-0.3733665995183721,-1.3143372164487839,-9.035928077831864,-0.17833085352085826,-0.004618950188159943,-0.018809065222740173,3.5769963169842955,-0.013649791479110718
1746233070165762800,10.9547626953125,-0.14882281839363443,-0.06727148592472076,-0.08835222331080549,-0.07267934083938599,0.09627673432778978,0.9753490850945422,0.1686947354213232,right,-0.004721522331237793,-0.37242909998949353,-1.3543895331129432,-9.0333982670933,-0.17781661840971366,0.01815480925142765,-0.01258338987827301,3.5684345326051115,-0.008041352033615112
1746233070205762800,10.9947626953125,-0.15130845696768314,-0.0051077790558338165,-0.0894059257150604,0.001090914011001587,0.0955403454248199,0.9752807762670415,0.16669770283687185,right,0.017708122730255127,-0.37299317945065014,-1.3765354600779711,-9.028012482401728,-0.17806189426315797,-0.0676283985376358,0.0040068477392196655,3.5735865085408087,0.012571483850479126
1746233070245762800,11.0347626953125,-0.14991755897790918,0.06024791672825813,-0.08892909820044188,0.04907354712486267,0.09577596112506585,0.9748669591329476,0.16715402665001783,right,0.009137868881225586,-0.3777325955266242,-1.3614322912313044,-9.01307034933567,-0.18042427040679607,-0.15665626525878906,-0.001427188515663147,3.616828268896043,0.012222886085510254
1746233070285763000,11.07476318359375,-0.14719261187064758,0.07385381311178207,-0.08800970548450336,0.04082481190562248,0.09660301597460012,0.9742011384487655,0.16894131599320342,right,-0.0011742115020751953,-0.3849378541703923,-1.3330103527367114,-8.990734598886966,-0.18399564486549386,-0.1825016289949417,-0.008778005838394165,3.682411917179823,0.01410016417503357
1746233070325763000,11.11476318359375,-0.14590664026264513,0.05313080549240112,-0.08777815211428378,-0.010277438908815384,0.0974244389244927,0.9734538744932973,0.17045501919056355,right,-0.0042192935943603516,-0.3923165134120411,-1.3174610475577413,-8.965314326426386,-0.18759311174879964,-0.1542287915945053,-0.01929958164691925,3.749375913906097,0.004074007272720337
1746233070365763000,11.15476318359375,-0.1468621415953798,0.051380861550569534,-0.08854715714145808,-0.06023811548948288,0.09841229962112255,0.9728888483410136,0.1720509953137049,right,-0.0076569318771362305,-0.39674432758909567,-1.323584498874098,-8.947540769326686,-0.18963592441764976,-0.052859626710414886,-0.010980308055877686,3.789462132839858,0.003177642822265625
1746233070405762800,11.1947626953125,-0.14925849586012996,0.012481946498155594,-0.0898893664817963,-0.09187102317810059,0.0994153279633441,0.9726185910679461,0.17359698639930873,right,-0.008587002754211426,-0.39760340233035846,-1.344537562792748,-8.941120965412258,-0.18986736174725893,0.005299322307109833,-0.006695672869682312,3.797231013275683,0.010093778371810913
1746233070445762800,11.2347626953125,-0.15424482951124288,-0.019901052117347717,-0.09225120338870049,-0.14351993799209595,0.09959189051077696,0.9724387381657276,0.1729974203508585,right,0.0013075470924377441,-0.3974322692189717,-1.389203949123621,-8.934947245213388,-0.1895631398224815,-0.003886602818965912,0.004953205585479736,3.7956834915727375,0.006608694791793823
1746233070485762800,11.2747626953125,-0.16092329052676302,0.05497187376022339,-0.09565559025501867,-0.18350006639957428,0.10059455569190923,0.9717899909486487,0.17356898254111144,right,0.004914999008178711,-0.4004443351715684,-1.4470057113595307,-8.914144695681333,-0.19067015707980217,-0.15993067622184753,0.012926161289215088,3.822902337887883,0.03666377067565918
1746233070525763000,11.31476318359375,-0.16701453833550658,0.08137951791286469,-0.09909262844191816,-0.14432169497013092,0.10224328671925063,0.9704250024445408,0.17514016149956485,right,0.016998708248138428,-0.4100076024455629,-1.4951305675812065,-8.868708055630325,-0.1949420034200705,-0.27501434087753296,0.016421467065811157,3.9090903827831145,0.01938176155090332
1746233070565763000,11.35476318359375,-0.16936976032152729,0.11811783909797668,-0.10085572165633166,-0.06470616906881332,0.10430572626650578,0.9691994780541052,0.17832843078911162,right,-0.007486701011657715,-0.4189274243920054,-1.5100765000395475,-8.830440576556324,-0.19899990245453117,-0.14169371128082275,0.0003226250410079956,3.9891573144495487,-0.010979056358337402
1746233070605763000,11.39476318359375,-0.16981337882078307,0.12306097149848938,-0.10164957805327789,-0.06953063607215881,0.106669710933901,0.9685580796160694,0.1828847939124948,right,-0.017846524715423584,-0.42245494230335134,-1.5116061938248573,-8.81584564949274,-0.20046032793427285,-0.006369173526763916,-0.01890181005001068,4.0207340637132525,-0.012146949768066406
1746233070645762800,11.4347626953125,-0.17018535899171594,0.14605265855789185,-0.10244006985672355,-0.05389479547739029,0.10957214744287559,0.968158477136058,0.18876434429096092,right,0.00396043062210083,-0.4230367833905741,-1.5144889096543193,-8.81297564701438,-0.20042290297557802,-0.004075570497661829,-0.005891159176826477,4.025937769836188,0.006325662136077881
1746233070685762800,11.4747626953125,-0.1686597618258384,0.14076292514801025,-0.10237722263877208,0.009702250361442566,0.1124187774626425,0.9677139936368108,0.1948528392239885,right,0.0093497633934021,-0.42474241206972424,-1.4998872605890035,-8.808493533164262,-0.2010241939382423,-0.03995398432016373,-0.0010409951210021973,4.041183854284882,0.004888951778411865
1746233070725762800,11.5147626953125,-0.16532836254923605,0.12907904386520386,-0.10142123328691137,0.02794097177684307,0.11494030181712814,0.9673541632606142,0.20064369550879854,right,-0.00009310245513916016,-0.42658529005210094,-1.4693062443643807,-8.806080626803636,-0.2018132366447703,-0.009141206741333008,-0.0053679198026657104,4.057643698437512,-0.003988325595855713
1746233070765762800,11.5547626953125,-0.16253881208557686,0.10042837262153625,-0.1006035487287868,0.011164437979459763,0.11713403269819823,0.9671529601386578,0.20573617414081782,right,-0.012276053428649902,-0.4270120414537938,-1.4444551500938831,-8.808435080975293,-0.20192503718004928,0.02614898607134819,-0.011803478002548218,4.061453319853544,-0.004421740770339966
1746233070805763000,11.59476318359375,-0.16225365863356886,0.020881958305835724,-0.10069612716427216,-0.05685711279511452,0.11843026276952735,0.9671401750406646,0.20855117401614176,right,-0.018875181674957275,-0.42573952164065904,-1.4427771338790654,-8.813940108132362,-0.2011825556604334,0.07373940944671631,-0.018492743372917175,4.050091383361816,-0.019739806652069092
1746233070845763000,11.63476318359375,-0.1661719527542878,-0.024195238947868347,-0.10249676529672962,-0.10868638753890991,0.11895803804158123,0.9672791117480993,0.2090336105310025,right,-0.007207989692687988,-0.422359693383574,-1.4795572970047592,-8.821668656557797,-0.19928492865312283,0.10337762534618378,-0.012744903564453125,4.019882123059034,-0.028676271438598633
1746233070885762800,11.6747626953125,-0.17054407930792334,-0.05745866522192955,-0.10430264069167074,-0.06355194747447968,0.1185911436995265,0.9675727531237225,0.20763147201205404,right,0.00914466381072998,-0.4183059849188514,-1.520865751209855,-8.83110225533545,-0.19712953995405863,0.07279187440872192,-0.005597710609436035,3.9835891589283943,-0.031599611043930054
1746233070925762800,11.7147626953125,-0.1723060825808687,-0.02375912293791771,-0.10488204018480143,0.007326580584049225,0.11787140974633191,0.9678588234089639,0.20595352798750707,right,0.004932701587677002,-0.41569536291684234,-1.5382015014141797,-8.838624467533826,-0.19584518618558538,0.022089000791311264,-0.006639733910560608,3.96018168759495,-0.025875985622406006
1746233070965762800,11.7547626953125,-0.17126323779680586,0.018329672515392303,-0.10434097423893905,0.060630831867456436,0.11752930514000981,0.9679066367668545,0.2054352682786026,right,-0.004607677459716797,-0.41604428626653484,-1.5287478827618062,-8.83886119889915,-0.19610316478446438,-0.03615693747997284,-0.005381077527999878,3.9633118023142218,-0.019011765718460083
1746233071005762800,11.7947626953125,-0.16836780665178241,0.04073772579431534,-0.10314263923818356,0.07297459989786148,0.11782670046225718,0.9677381754864877,0.20648620201625206,right,0.018661856651306152,-0.418447919195375,-1.5015484717994927,-8.833833726125954,-0.19738647840588142,-0.07628107815980911,0.009652167558670044,3.984861078560352,-0.0030454695224761963
1746233071045763000,11.83476318359375,-0.16227905045888838,0.12374541908502579,-0.10071836852436637,0.14611607789993286,0.11905620761755636,0.9674049585255483,0.21003208437207846,right,-0.001520395278930664,-0.4224765218432682,-1.445128519310802,-8.826898373904823,-0.19952254101768585,-0.10540544241666794,-0.007172778248786926,4.020927248197793,0.017347484827041626
1746233071085763000,11.87476318359375,-0.15622861374495173,0.14834395051002502,-0.0985683233659061,0.09371782839298248,0.12087114226161182,0.9666447948962672,0.2146354559016392,right,-0.010410189628601074,-0.4296886240385168,-1.3871474549852312,-8.806604942938685,-0.20315612443282333,-0.19347335398197174,0.004228755831718445,4.085330162264406,0.026661843061447144
1746233071125762800,11.9147626953125,-0.14950159299566315,0.14243550598621368,-0.09627618780428113,0.1467101275920868,0.12306827299378648,0.9656656514275465,0.22015248620115713,right,-0.0032998323440551758,-0.43844902559322674,-1.322492758114636,-8.780009196957945,-0.20754523976891018,-0.2219477742910385,0.011446602642536163,4.1632729413837195,0.03423920273780823
1746233071165762800,11.9547626953125,-0.14253721320507137,0.05205075442790985,-0.09363269687748174,0.12622784078121185,0.12394452261185945,0.964798861278975,0.2230473948124385,right,-0.004556894302368164,-0.4474791356845205,-1.2559219984896481,-8.751434844380617,-0.21221196774846773,-0.19459404051303864,0.0095633864402771,4.243280836339295,0.030946433544158936
1746233071205762800,11.9947626953125,-0.138901457955498,-0.04338633269071579,-0.09206115450599285,0.07118722796440125,0.12328926084855225,0.9643514728977802,0.2222327487065206,right,0.0010843873023986816,-0.45330059819132373,-1.2206548702754079,-8.731330798506736,-0.215292288047753,-0.10608785599470139,0.009430721402168274,4.294676677055657,0.027497321367263794
1746233071245762800,12.0347626953125,-0.13913145217773407,-0.08056521415710449,-0.09185922551734642,0.00041610002517700195,0.12164661339528843,0.9643871664833138,0.21870976634255693,right,-0.009601712226867676,-0.45477041695069226,-1.2217862123928964,-8.724788829517363,-0.2161514399106657,0.014265954494476318,0.0019040703773498535,4.307630266653001,0.002591460943222046
1746233071285763000,12.07476318359375,-0.1416451744933878,-0.059099361300468445,-0.09263704908589276,-0.05613220855593681,0.12044931634252873,0.9647549470028404,0.21578611916713872,right,-0.0039055347442626953,-0.4521062523539594,-1.245329731196165,-8.73302065128982,-0.2148447124042964,0.08675578236579895,-0.0019756853580474854,4.284144177125394,-0.0024017691612243652
1746233071325763000,12.11476318359375,-0.14459914665579698,-0.06626097112894058,-0.093685384511855,-0.03680184856057167,0.11968719891176828,0.9651447206992902,0.2137174038583134,right,0.010340988636016846,-0.4485833234395259,-1.273288289962709,-8.744185019382835,-0.21305798209819332,0.07681574672460556,-0.0017854422330856323,4.253040598331392,-0.009871602058410645
1746233071365763000,12.15476318359375,-0.14669488365775002,-0.04737846180796623,-0.09434017682539343,-0.026849698275327682,0.11890748768871173,0.9655632147983102,0.21181460167940527,right,0.004885315895080566,-0.44503218504201913,-1.2938104151181875,-8.756382822176814,-0.21130228324644085,0.09038568288087845,-0.005313083529472351,4.221634529459476,-0.024434208869934082
1746233071405762800,12.1947626953125,-0.14823215996918365,-0.0212785005569458,-0.09479678121549659,-0.029710987582802773,0.11859345359972641,0.9660746656976354,0.21106990951880794,right,0.010834693908691406,-0.44023893192661323,-1.3102433712638915,-8.774296664530038,-0.20892332960794277,0.1275004744529724,-0.0023758411407470703,4.179158785040676,-0.026151388883590698
1746233071445762800,12.2347626953125,-0.1475763571850033,0.02598535642027855,-0.09436096834630393,0.04277631640434265,0.11895853653831517,0.9666540082529503,0.21224695137429955,right,0.015402793884277344,-0.4346894019281924,-1.3078791263505816,-8.797958695146441,-0.20621578152693562,0.12850864231586456,0.004006877541542053,4.129861670169234,0.009972602128982544
1746233071485762800,12.2747626953125,-0.14361157584042558,0.038224294781684875,-0.0924816472444259,0.11479510366916656,0.11934323231580389,0.9671023459456111,0.21405155419258406,right,0.006236433982849121,-0.4313290133735975,-1.2749658677861093,-8.8167604262501,-0.2047375574015706,0.044635795056819916,0.0020065009593963623,4.099949054725468,0.024205893278121948
1746233071525763000,12.31476318359375,-0.13768264085485238,0.10093416273593903,-0.08987620247552208,0.08912244439125061,0.12009458521181689,0.9672729878299897,0.2168900199691474,right,-0.0013929009437561035,-0.4306889271919883,-1.2230297096479683,-8.826762180304527,-0.20465247615786267,0.006269719451665878,0.005069643259048462,4.094245874647796,0.019012808799743652
1746233071565763000,12.35476318359375,-0.1307499734487742,0.12054060399532318,-0.0870818034345309,0.12369683384895325,0.12170230964050191,0.9671194691222965,0.22161630326287182,right,-0.014746248722076416,-0.43227948333705735,-1.1609573574207723,-8.828561338680982,-0.20563414829492987,-0.07104571163654327,-0.0045004114508628845,4.108414392992854,0.02635452151298523
1746233071605763000,12.39476318359375,-0.1258923097764525,0.09585635364055634,-0.08539186243301561,0.05426711589097977,0.12312833297054818,0.9664736339815612,0.22538342243660237,right,-0.013057231903076172,-0.4379310236704816,-1.1151244115285575,-8.810920468050242,-0.20850973863261202,-0.16005262732505798,-0.0011217743158340454,4.15867304637283,0.01585632562637329
1746233071645762800,12.4347626953125,-0.1225166839154042,0.08579334616661072,-0.08448458177782482,0.043333977460861206,0.12447544523753934,0.9655301289519438,0.228618108165267,right,-0.008192181587219238,-0.44584122943971843,-1.0813215837132184,-8.781709571135044,-0.21241414762764843,-0.19274622201919556,-0.0017122328281402588,4.228794338086248,0.012765824794769287
1746233071685762800,12.4747626953125,-0.12079250898113941,0.058857403695583344,-0.08431299916084149,-0.019679471850395203,0.12560994511819373,0.9645262975875558,0.23107257476342463,right,-0.004171907901763916,-0.45394011039578785,-1.0620169445887206,-8.749274451476335,-0.21633879152341978,-0.17242462933063507,-0.007360637187957764,4.300314098420739,0.004157066345214844
1746233071725762800,12.5147626953125,-0.12213526695924072,0.01737923175096512,-0.08532676049146674,-0.07182155549526215,0.1264518549898799,0.9638585393996904,0.23236104248464381,right,-0.004571855068206787,-0.45852431199533855,-1.0713511746451259,-8.728181979086994,-0.2184168416009683,-0.03156924247741699,-0.012576878070831299,4.340671535511315,-0.010698795318603516
1746233071765762800,12.5547626953125,-0.12718015007385589,-0.026240505278110504,-0.08761209547617178,-0.1605771780014038,0.12674785134619476,0.9638958279456383,0.23190430657309904,right,-0.01020801067352295,-0.45657080123022886,-1.1164433851726352,-8.7310607493937,-0.21717257131965104,0.1356549710035324,-0.016938932240009308,4.323484546127915,-0.019793421030044556
1746233071805763000,12.59476318359375,-0.13489533861535927,-0.009829198941588402,-0.09097612934428986,-0.20729640126228333,0.12762926483940254,0.964464519282685,0.23233074491746242,right,0.004970669746398926,-0.4483841568985814,-1.188491699425876,-8.75696792858839,-0.2127022531437605,0.2451225072145462,-0.00858236849308014,4.251280602921545,-0.0070095062255859375
1746233071845763000,12.63476318359375,-0.1413978764578106,-0.009231524541974068,-0.09374683506137789,-0.1293773651123047,0.12866917522058133,0.9652152794869138,0.23349864831942982,right,0.01599705219268799,-0.43840696449940236,-1.2513241493053733,-8.79061067047119,-0.20740086502232455,0.2329716980457306,0.005546137690544128,4.16289943189621,0.0034806430339813232
1746233071885762800,12.6747626953125,-0.1438911926419355,-0.018830984830856323,-0.09461284154117834,-0.01839476078748703,0.12901751983692142,0.9659520191959636,0.23405633758566222,right,0.01447904109954834,-0.4303735591628409,-1.2779922298699617,-8.820276325416565,-0.2033211224226312,0.16209352016448975,0.0022656619548797607,4.091435493402183,-0.0010120570659637451
1746233071925762800,12.7147626953125,-0.14271663123688838,0.0040483735501766205,-0.09384656428854997,0.06706621497869492,0.12892255772183286,0.9664889267928595,0.23431669459033194,right,0.013687729835510254,-0.42581397758768097,-1.2702717186205088,-8.840145393490792,-0.20117371301167494,0.06878500431776047,0.0018080919981002808,4.050756277011335,-0.0058165788650512695
1746233071965762800,12.7547626953125,-0.13817614041539547,0.03002365119755268,-0.09173283054268105,0.1291077584028244,0.1289166455421905,0.9666704211542695,0.23526288107464782,right,-0.0021643638610839844,-0.42552140016321743,-1.2302832609727978,-8.846995405516028,-0.20128057883245,-0.05179712921380997,0.004121460020542145,4.048143171903491,0.00782880187034607
1746233072005762800,12.7947626953125,-0.13190111354343878,0.04208950325846672,-0.08900154880572246,0.15570800006389618,0.1288142573317902,0.9664443315709843,0.23619216846492883,right,-0.0059656500816345215,-0.4296480624922669,-1.172537247512117,-8.837905505609513,-0.2036441871499358,-0.1348230093717575,0.007278114557266235,4.08496834321469,0.008420735597610474
1746233072045763000,12.83476318359375,-0.12518287616479382,0.055555153638124466,-0.08620919640614111,0.13915179669857025,0.12890427326662077,0.9659736109930506,0.23757104054340614,right,-0.011086523532867432,-0.4357914597175939,-1.1099817879430949,-8.820517732957004,-0.20699455359727156,-0.16220812499523163,0.0065408796072006226,4.139661471910775,0.013436347246170044
1746233072085763000,12.87476318359375,-0.11944484197467296,0.06627672165632248,-0.08398551439860363,0.10746516287326813,0.12926903635138182,0.9653140533104311,0.2393227063431839,right,-0.006568789482116699,-0.4428810167444351,-1.055827588429302,-8.79738060299754,-0.21072460513044508,-0.1805303543806076,0.010272368788719177,4.202583792030811,0.019803524017333984
1746233072125762800,12.9147626953125,-0.11447949784272668,0.0659559816122055,-0.08223206425011435,0.09406536817550659,0.12987429455152597,0.9644712394583558,0.24142105267287456,right,0.0010390877723693848,-0.45094606236400625,-1.008228144321218,-8.768556659573315,-0.21486257900690306,-0.21027857065200806,0.010511912405490875,4.273906568488479,0.029258310794830322
1746233072165762800,12.9547626953125,-0.11005794486785916,0.04138966649770737,-0.08068709188300853,0.10682941973209381,0.13005524201004692,0.9635580534740512,0.24254365887356588,right,0.01319974660873413,-0.4598061673982737,-0.9652505878601223,-8.734946650916337,-0.21938836710031548,-0.20469054579734802,0.008447684347629547,4.351940240761637,0.0203113853931427
1746233072205762800,12.9947626953125,-0.10506203862132972,0.027220893651247025,-0.07873908796188246,0.13017873466014862,0.12986859892693325,0.9628441728176775,0.24311652417141477,right,0.01686251163482666,-0.4672906869469852,-0.9181581434261054,-8.70702287120223,-0.22330592562506724,-0.1529720276594162,0.005856513977050781,4.4175925703674555,0.01512959599494934
1746233072245762800,13.0347626953125,-0.09923365895326808,-0.0035389624536037445,-0.07620444993227657,0.14244580268859863,0.1292871465640366,0.9624731417106969,0.24315901414261692,right,0.008968174457550049,-0.47230926918033245,-0.8651877468694001,-8.690055954310298,-0.22610471738096383,-0.09234192967414856,-0.0024330243468284607,4.46147584349662,0.009099245071411133
1746233072285763000,13.07476318359375,-0.09423717685332444,-0.029865896329283714,-0.07379421394877614,0.12113248556852341,0.1283289627843429,0.9625129120746344,0.2423124608252071,right,0.002545297145843506,-0.474007267829705,-0.8210433385860174,-8.686715996232628,-0.22727774199873918,0.009881749749183655,-0.007503114640712738,4.4762981495752925,0.00014853477478027344
1746233072325763000,13.11476318359375,-0.09128693158202447,-0.06257320195436478,-0.07202240058840584,0.06277453899383545,0.1271148729608989,0.9630695415455575,0.24053382777667007,right,-0.007314741611480713,-0.4711824430805138,-0.796561369888857,-8.701657544776797,-0.2261674478765386,0.1282046139240265,-0.010405085980892181,4.451632494874298,-0.00860545039176941
1746233072365763000,13.15476318359375,-0.09107754551774065,-0.07666704803705215,-0.07130095915769138,0.006460152566432953,0.1259108415079001,0.9640233102814445,0.23819887762946504,right,-0.010587632656097412,-0.4643910951745651,-0.7974707398187368,-8.731730611479282,-0.2229838915533524,0.18783970177173615,-0.0058621615171432495,4.392187203215062,-0.004396408796310425
