time,seconds_elapsed,roll,rotationRateZ,quaternionY,rotationRateY,quaternionZ,quaternionW,yaw,devicelocation,accelerationZ,pitch,gravityX,gravityZ,quaternionX,rotationRateX,accelerationX,gravityY,accelerationY
1746232826868478200,0.206478271484375,-0.9018640314510975,0.02118692919611931,-0.4330662616392271,0.031356342136859894,2.2470492242746008e-17,0.8987033833842634,-0.06042263068632631,right,-0.32835692167282104,-0.12466351797222137,-7.633460742509365,-6.034384208893775,-0.06917792452411947,-0.09927388280630112,0.6450254321098328,1.2193676069438457,0.1743103563785553
1746232826908478500,0.246478515625,-0.42347005239078533,0.012677566148340702,-0.21726417811587623,0.048936523497104645,0.09887446729451596,0.9642841434184332,0.146524741155016,right,-0.06443101167678833,-0.2675189456445573,-3.8864714314788578,-8.622400468188523,-0.11478758205060256,-0.11019684374332428,0.261763334274292,2.5922850226551293,0.039118021726608276
1746232826948478500,0.286478515625,-0.2222477905985308,0.009609410539269447,-0.126953267967479,0.04887501522898674,0.13650448565973466,0.9733190899621529,0.24500051097430567,right,-0.013589262962341309,-0.29955672510937087,-2.0653468685396015,-9.139475546067953,-0.1337882522577394,-0.10769122838973999,0.07652248442173004,2.89391059269309,0.014627397060394287
1746232826988478500,0.326478515625,-0.175857695555653,0.014505774714052677,-0.10630919916175235,0.06612436473369598,0.1447235102230484,0.973861914617333,0.2678284438226031,right,-0.001230776309967041,-0.306457092701628,-1.635763173238933,-9.20553937908411,-0.13909149457526093,-0.08897671103477478,0.0365447998046875,2.9584973388940092,0.009234458208084106
1746232827028478500,0.366478515625,-0.1515641308428817,0.018480053171515465,-0.09559220523187133,0.07302580773830414,0.14878034469220744,0.973841112513579,0.2793763416521958,right,0.0009819269180297852,-0.31136332188871135,-1.4094585093840957,-9.228097832372784,-0.14268868077385358,-0.06068246066570282,0.01601085066795349,3.0043334996566173,0.005910247564315796
1746232827068478500,0.406478515625,-0.13815235528786782,0.02186085283756256,-0.08974992229962979,0.051712583750486374,0.15087242887874072,0.9736853547237192,0.2854600445666404,right,-0.002803206443786621,-0.3152801679461301,-1.2839398862279952,-9.234444571051,-0.14532480273140252,-0.021405883133411407,0.005725115537643433,3.0408745933294297,0.0036970973014831543
1746232827108478200,0.446478271484375,-0.13524880643480186,0.0187284704297781,-0.08849502969663539,0.03866741061210632,0.1513568025582788,0.9736367754149253,0.28684885269517174,right,-0.0032042860984802246,-0.31616610697347236,-1.2567581570528448,-9.235460470095276,-0.14591495941781513,-0.0019491761922836304,0.007191106677055359,3.0491333031088113,0.0036488473415374756
1746232827148478500,0.486478515625,-0.13292629471671022,0.010248792357742786,-0.08745242840385242,0.019067617133259773,0.15177091227138562,0.9736474089478272,0.28804732775890807,right,-0.002607285976409912,-0.31617487504646297,-1.235301673656702,-9.238328134486078,-0.14604252617213787,0.022808169946074486,0.008467040956020355,3.0492148439124223,0.002855062484741211
1746232827188478500,0.526478515625,-0.13130888174913197,0.029955998063087463,-0.08671546964733327,-0.02060473896563053,0.1524309495772555,0.9736796198702885,0.28969074216049545,right,-0.0026549100875854492,-0.3151204419578673,-1.2207782043941318,-9.243496477034688,-0.1455790673900522,0.05666186660528183,0.005059964954853058,3.0393852315545082,0.00003215670585632324
1746232827228478500,0.566478515625,-0.13067298456282603,0.05457434058189392,-0.08646481738931117,-0.03449719771742821,0.15337625218173673,0.9736621097204257,0.29178699210516934,right,-0.003124833106994629,-0.3137136335408033,-1.215455986458063,-9.248500568932295,-0.14484996415667858,0.08225656300783157,0.00504118949174881,3.026265637740493,-0.0006646215915679932
1746232827268478500,0.606478515625,-0.13102271918438926,0.07548552751541138,-0.08671401067802746,-0.06792331486940384,0.15518422992508607,0.9735902599717994,0.29557125673439816,right,-0.0021271705627441406,-0.31082742435093996,-1.219826529692486,-9.25669615034759,-0.1432498009890104,0.10299604386091232,0.008484557271003723,2.9993302845418452,-0.0008004903793334961
1746232827308478500,0.646478515625,-0.13231126750853223,0.07682632654905319,-0.08741326529011152,-0.09086485952138901,0.1577005880794411,0.9734787118770036,0.3007370161817517,right,-0.0010764002799987793,-0.30650584263362124,-1.233451661875844,-9.267878638619184,-0.14081403505676596,0.11667648702859879,0.013960123062133789,2.95895297370702,0.006562590599060059
1746232827348478200,0.686478271484375,-0.1335487464196843,0.06481993943452835,-0.08804060749126155,-0.09887231886386871,0.15917149455442703,0.9734002487642999,0.30369468102637903,right,-0.004772782325744629,-0.30387589327016756,-1.2459513702258467,-9.274026055333017,-0.13930222954093452,0.10449156910181046,0.0121542289853096,2.93435395450145,0.008934348821640015
1746232827388478500,0.726478515625,-0.13525974840848826,0.04943707212805748,-0.08891588066429335,-0.09699258208274841,0.16085100875286448,0.9732712164322254,0.30701999068900193,right,-0.004255115985870361,-0.30119445088557345,-1.262873863454163,-9.279643310692906,-0.13770913768459325,0.07989314943552017,0.008504912257194519,2.909252246470749,0.005529165267944336
1746232827428478500,0.766478515625,-0.1370735321355468,0.03679283335804939,-0.08990033550809835,-0.07902606576681137,0.16243102771107085,0.9730633356456879,0.31007971658831546,right,-0.002005934715270996,-0.29966833004349486,-1.2803082517273723,-9.28172537766397,-0.1366807876119397,0.036313239485025406,0.007616147398948669,2.8949563023537395,0.003224670886993408
1746232827468478500,0.806478515625,-0.1377800047255718,0.02904197946190834,-0.09032152016597705,-0.058950331062078476,0.1630994195094646,0.9729382836870559,0.31136076372631194,right,-0.0011504888534545898,-0.2995278962870833,-1.286921093995869,-9.28122093527317,-0.1364970344358983,0.013827050104737282,0.004478886723518372,2.893640543580055,0.002567857503890991
1746232827508478500,0.846478515625,-0.13833938161615106,0.021703194826841354,-0.09071634672980639,-0.030615411698818207,0.16386421595773776,0.972768102630929,0.31284076415576273,right,0.00220644474029541,-0.29983130188813606,-1.2919915291279553,-9.279629866689444,-0.1365323925680782,0.00469000730663538,0.0022917240858078003,2.8964833657905458,0.00021404027938842773
1746232827548478500,0.886478515625,-0.13821633962613117,0.018196584656834602,-0.09075244267742595,-0.004671232774853706,0.1644687502597462,0.9726594280118092,0.31409448453909156,right,0.002084076404571533,-0.2999752144522835,-1.2907922363407909,-9.279375599667429,-0.13655583790262543,0.005644754972308874,0.0006173700094223022,2.897831565529108,0.0006279647350311279
1746232827588478200,0.926478271484375,-0.13782601911908832,0.020331300795078278,-0.0905995261274913,0.005622462369501591,0.1647881692677336,0.9726312666980415,0.31481371891492205,right,0.002062082290649414,-0.29980629082496735,-1.2872374664686619,-9.280363441661,-0.13647293309929276,0.011240551248192787,0.0005705058574676514,2.8962489725127814,-0.00002434849739074707
1746232827628478200,0.966478271484375,-0.13720646763179414,0.022351346909999847,-0.09033389830466278,0.00590249989181757,0.1652268502081778,0.9726120822856141,0.31582321958689713,right,0.0007598400115966797,-0.29934800433514447,-1.2816688725560903,-9.282472981160879,-0.1362547836403832,0.02119946852326393,0.00021004676818847656,2.8919550747111438,-0.000009119510650634766
1746232827668478500,1.006478515625,-0.13682931586321398,0.019675085321068764,-0.09016748513842282,-0.003956913948059082,0.1656786588495988,0.972601518226517,0.3168370006895044,right,-0.0026859045028686523,-0.2986326083419483,-1.2784497643791137,-9.285002791899442,-0.13589119010914777,0.027562353760004044,-0.000241205096244812,2.8852506086364387,-0.0005597770214080811
1746232827708478500,1.046478515625,-0.13687443280767103,0.012429299764335155,-0.09018279540958717,-0.011789817363023758,0.16602661523930423,0.9725993239974757,0.3175811594539714,right,-0.0025072693824768066,-0.29784916115983723,-1.2791767634794116,-9.287181889504193,-0.13547164531898223,0.02783311903476715,0.001074671745300293,2.8779066756144163,-0.0010491907596588135
1746232827748478500,1.086478515625,-0.13728372315246198,0.008486457169055939,-0.09035187102271657,-0.01841726526618004,0.16636009369752716,0.9726057337034067,0.318256254574304,right,-0.0035202503204345703,-0.29681469857375137,-1.2833845904327927,-9.289601225605606,-0.13490244678810487,0.02343486249446869,-0.00029681622982025146,2.868207119376957,0.00033211708068847656
1746232827788478500,1.126478515625,-0.13831980897456161,-0.0000958908349275589,-0.09082035063509826,-0.028451930731534958,0.16660184699761593,0.9725921524245569,0.3186480189406958,right,-0.002278566360473633,-0.29597139377354326,-1.2933417746931313,-9.29065921022594,-0.13438699226387912,0.013244815170764923,-0.0005073845386505127,2.860297953687608,-0.0017299354076385498
1746232827828478500,1.166478515625,-0.13919664844582985,-0.002926228567957878,-0.09123085295983573,-0.031209886074066162,0.166656308017973,0.9725691550767666,0.31864886816288085,right,-0.0017296671867370605,-0.29575349339340934,-1.3015740348570048,-9.290138401222228,-0.13420758615901127,0.005968035664409399,-0.002531692385673523,2.8582538806393742,-0.0027431249618530273
1746232827868478200,1.206478271484375,-0.14051120439044237,-0.00277362740598619,-0.09186255520070673,-0.03169599175453186,0.1667235027430098,0.9725174575225899,0.3186087886328615,right,-0.0015318989753723145,-0.2956872845020842,-1.313811877400428,-9.28860695387125,-0.13406755874862564,-0.00333743030205369,-0.0035942941904067993,2.857632826131582,-0.0014137327671051025
1746232827908478500,1.246478515625,-0.14169904897180438,-0.002716112183406949,-0.09244468027371332,-0.02581828460097313,0.16674125984249866,0.9724594865261911,0.31847280993751104,right,0.0015459656715393066,-0.29587411737236274,-1.3247688863530753,-9.286510858374834,-0.13406595082923312,-0.00835605151951313,-0.004466116428375244,2.859385515017807,-0.0032606124877929688
1746232827948478500,1.286478515625,-0.1428696774498729,-0.0032004250679165125,-0.09301704553013047,-0.022470416501164436,0.16671274049780405,0.9724044721889857,0.3182405570196859,right,0.0012974739074707031,-0.29613099635972795,-1.3355344643868505,-9.284226546829938,-0.13410445858439063,-0.00738385459408164,-0.005280032753944397,2.8617949142470955,-0.003361940383911133
1746232827988478500,1.326478515625,-0.14392062451778764,0.0035353631246834993,-0.09353636070917298,-0.015281202271580696,0.16674044740291424,0.9723475992166111,0.31814278704639704,right,0.0003291964530944824,-0.2963354970545767,-1.3452069864869116,-9.282238587883114,-0.1341211763446584,-0.007467327173799276,-0.003861531615257263,2.863713022828102,-0.0013963878154754639
1746232828028478500,1.366478515625,-0.14455444068799655,0.004677611403167248,-0.0938630220552505,0.0001287255436182022,0.1668122019367054,0.9722974149902225,0.31819287033274457,right,0.00003504753112792969,-0.29654356080943683,-1.3510041284583507,-9.2807942342937,-0.13416748140522944,-0.007144435308873653,-0.004286065697669983,2.8656644491568204,0.00021031498908996582
1746232828068478500,1.406478515625,-0.14470445834084816,0.0018121006432920694,-0.09395213840494805,0.0014587444020435214,0.16683043873738881,0.972272898074203,0.3181991786023928,right,-0.00037664175033569336,-0.2967599231366494,-1.3523068816199897,-9.279977657213806,-0.13426021891574913,-0.006103659979999065,-0.003832995891571045,2.8676936168968674,-0.0012769103050231934
1746232828108478200,1.446478271484375,-0.14472951552493435,0.004598153289407492,-0.09398636996516284,0.005012433975934982,0.16686213196042732,0.972247435271491,0.31824842124705743,right,-0.0001691579818725586,-0.2970171798402072,-1.3524329922176896,-9.279213102582096,-0.13438130957218106,-0.005672904662787914,-0.0039294809103012085,2.870105938735604,-0.0008357763290405273
1746232828148478500,1.486478515625,-0.14453162573983117,0.009487325325608253,-0.09394466652025481,0.0029348814859986305,0.16698946250764893,0.9721950885505889,0.31851334326826786,right,-0.0005872845649719238,-0.29752029463127333,-1.3503886269085108,-9.27805048854351,-0.13463080190809867,-0.015867825597524643,-0.0035654455423355103,2.8748236149072643,-0.0021215081214904785
1746232828188478500,1.526478515625,-0.14469084642508748,0.009285155683755875,-0.09406159996189878,-0.002169528976082802,0.16709426602906113,0.9721430934148243,0.31868848493581853,right,0.0001360177993774414,-0.29790070943122277,-1.351708038944006,-9.276752849948405,-0.13479482693038902,-0.008750081062316895,-0.0034036636352539062,2.878390075217187,-0.003895014524459839
1746232828228478500,1.566478515625,-0.14476115482971302,0.010310821235179901,-0.09413844416474221,-0.0004539425717666745,0.16734048688718414,0.9720883822427965,0.3191789158452004,right,-0.0006141066551208496,-0.2980322963299905,-1.352305566445738,-9.276282894349098,-0.13483006035176115,-0.0021586772054433823,-0.0028166919946670532,2.879623416404426,-0.0010329186916351318
1746232828268478500,1.606478515625,-0.1445800208154425,0.011529527604579926,-0.09408528029518193,0.01318275649100542,0.16758604222726792,0.9720534171519873,0.31970985992570683,right,0.0014835000038146973,-0.29801970562541036,-1.350630618970841,-9.276563464856148,-0.13481410426326346,-0.002019978826865554,0.0009043663740158081,2.879505635243654,0.0023966431617736816
1746232828308478500,1.646478515625,-0.1438752156306381,0.006068730261176825,-0.09375694187131837,0.024556215852499008,0.16763490009973658,0.9720689755989215,0.3199075644178779,right,-0.0015237927436828613,-0.2980318139365629,-1.344087042546272,-9.277478241613506,-0.1348697936764135,-0.00242080120369792,0.0015253126621246338,2.879619032490253,0.0034498870372772217
1746232828348478200,1.686478271484375,-0.14266738828149989,-0.0019434872083365917,-0.0931641594225594,0.028541013598442078,0.16756160145463156,0.9721313270327943,0.3199290260564059,right,-0.003267228603363037,-0.29793410265837367,-1.332920482496172,-9.27937384610176,-0.13492234615090765,0.007889149710536003,0.00045102834701538086,2.8787030866891143,0.0021431446075439453
1746232828388478500,1.726478515625,-0.141539603103999,-0.00474017858505249,-0.09257054244139235,0.016077108681201935,0.16740597254174627,0.9722340253837018,0.31978836721640364,right,-0.0048367977142333984,-0.2974444046347047,-1.3226532093733547,-9.28226547589004,-0.1347844554754202,0.013810370117425919,-0.0011040270328521729,2.874111959506571,0.002290666103363037
1746232828428478500,1.766478515625,-0.1410658828756562,-0.004601406864821911,-0.09229826136560515,0.01430394034832716,0.16732131200844028,0.9723018200543455,0.3197029096917136,right,-0.0031981468200683594,-0.2969504993651624,-1.3184553192920982,-9.284295520412922,-0.13458712103879772,0.014869739301502705,0.0018591135740280151,2.8694807925745844,0.003038763999938965
1746232828468478500,1.806478515625,-0.14045481639474086,-0.007831654511392117,-0.09193620146604993,0.007751391269266605,0.16713669725008307,0.9724024747360758,0.31943756359853404,right,-0.005252957344055176,-0.296307975700203,-1.3130395778536796,-9.286922946307062,-0.13433699299735458,0.011814179830253124,-0.00014725327491760254,2.8634549564138054,0.00007697939872741699
1746232828508478500,1.846478515625,-0.14024719435822164,0.0028361044824123383,-0.09177407044780565,-0.010968185029923916,0.16705747619828795,0.9724784005211434,0.3193377235736827,right,-0.003693222999572754,-0.29556516119150483,-1.3114083233900367,-9.289299027788639,-0.13399652978558596,0.014528589323163033,-0.0015850663185119629,2.856487163227796,-0.0010178089141845703
1746232828548478500,1.886478515625,-0.14034974366559183,0.016701005399227142,-0.09182297293204403,-0.01451413705945015,0.1672570985795747,0.9724695327285404,0.31975228528800964,right,-0.0038136839866638184,-0.2951739220933327,-1.3125171614147721,-9.290270503169298,-0.1337780557278002,0.010800957679748535,-0.001563921570777893,2.8528163657605647,-0.0007637441158294678
1746232828588478200,1.926478271484375,-0.14045250332790135,0.030565904453396797,-0.09187187912011703,-0.01806008815765381,0.16745661752514462,0.9724606056746066,0.3201666558693569,right,-0.00393444299697876,-0.29478273018850226,-1.3136278991356491,-9.291239640462399,-0.13355957520528572,0.007073325105011463,-0.0015425682067871094,2.8491458605542777,-0.0005097091197967529
1746232828628478200,1.966478271484375,-0.14127684308668714,0.038033612072467804,-0.09242076803016194,-0.036447566002607346,0.1686074079332162,0.9722356274807197,0.3224220382062384,right,-0.0038726329803466797,-0.2947502691108974,-1.3212996028073132,-9.29024536872804,-0.13337057314430517,0.0008236421272158623,-0.004421696066856384,2.848841324649751,-0.0019397437572479248
1746232828668478500,2.006478515625,-0.14270205874107106,0.027564510703086853,-0.0931782761109643,-0.04577426612377167,0.16916284484244606,0.9720878325040586,0.32336824569640527,right,-0.001476883888244629,-0.2947728601046681,-1.3345298173889517,-9.28828897396326,-0.13321733978039282,0.009384561330080032,-0.006867498159408569,2.8490532138347624,-0.007908821105957031
1746232828708478500,2.046478515625,-0.14581477980199373,0.007880669087171555,-0.0947012268187789,-0.06782178580760956,0.16987975999434848,0.9719145366318264,0.3244582270170462,right,0.001967787742614746,-0.2939356306322303,-1.3637811924450098,-9.286446560966969,-0.13249398052213757,0.035121627151966095,-0.00855293869972229,2.8411960705935955,-0.013856977224349976
1746232828748478500,2.086478515625,-0.1485167564818592,0.02060220018029213,-0.0959133720356359,-0.07817927747964859,0.17057289972568898,0.9718714646342025,0.325637167022045,right,0.0008176565170288086,-0.2915401452010773,-1.3898710347302257,-9.289432298779488,-0.13103958978586597,0.07834381610155106,-0.013187751173973083,2.8187036682784554,-0.020548373460769653
1746232828788478500,2.126478515625,-0.15150968572859988,0.03697826713323593,-0.0971749562229758,-0.09106387943029404,0.17159079911727548,0.9718892275120428,0.3275488542667323,right,-0.006081640720367432,-0.28730796266959674,-1.4194552950024604,-9.296940482452511,-0.1286272652875391,0.13122104108333588,-0.01826333999633789,2.778926369163394,-0.020390957593917847
1746232828828478500,2.166478515625,-0.1548803960580736,0.04000810161232948,-0.0985565267958939,-0.08793904632329941,0.17281388835570116,0.971930369984828,0.32991111593002465,right,-0.006606042385101318,-0.28191518071958854,-1.4530750944010913,-9.306774478724599,-0.12559123048450344,0.1351260095834732,-0.016610100865364075,2.7281688263505695,-0.01310741901397705
1746232828868478200,2.206478271484375,-0.15820424341098738,0.05478312820196152,-0.0999939385481217,-0.08535908162593842,0.17417333446211633,0.9718739156889319,0.3325300588734105,right,-0.000625908374786377,-0.27743393933351457,-1.4859125112503766,-9.313872912552952,-0.12298717744789385,0.0864618793129921,-0.008144184947013855,2.6859303978189826,-0.0031346678733825684
1746232828908478500,2.246478515625,-0.1601752955246633,0.07257746160030365,-0.10098133019919926,-0.02454555407166481,0.1756109992381479,0.971666909007492,0.3353456818318112,right,0.017764747142791748,-0.27557344320627086,-1.5050621790088712,-9.315842751321195,-0.12176596819067627,0.02574656531214714,0.007160410284996033,2.6683780822545287,0.00170174241065979
1746232828948478500,2.286478515625,-0.1600437838625382,0.07037895172834396,-0.10115536467390662,0.005982048809528351,0.1770519065598152,0.9713579631977212,0.33828538439177214,right,0.005622982978820801,-0.2763334696824575,-1.5035133421316742,-9.314035994160175,-0.12199959675281913,-0.033429376780986786,0.00580345094203949,2.6755495813190935,0.015594691038131714
1746232828988478500,2.326478515625,-0.1592573184738872,0.07496128976345062,-0.10108351041585614,-0.006207968108355999,0.17839887682546096,0.9710171802204298,0.3410572332440694,right,-0.003722250461578369,-0.2781334028425,-1.495421513351798,-9.31044586071372,-0.12280673309912735,-0.022304369136691093,0.0017575323581695557,2.6925267273440956,0.011514633893966675
1746232829028478500,2.366478515625,-0.15889734145536402,0.08207126706838608,-0.10117203807460969,-0.020865529775619507,0.18000507824895304,0.9706818284583765,0.34436954908265843,right,-0.0030785202980041504,-0.2788915038004065,-1.491746478100866,-9.308965266767144,-0.12304093083329828,0.02292659319937229,0.004659309983253479,2.699674845533073,0.013051927089691162
1746232829068478500,2.406478515625,-0.15856553186267366,0.10493066906929016,-0.10115288957780673,-0.02515535056591034,0.18195139186606812,0.9704294341421594,0.3484992153485643,right,0.0003440380096435547,-0.2774942417029605,-1.4892517386756836,-9.313175577938557,-0.12218136858223484,0.08741801977157593,0.00432133674621582,2.6864991376176475,0.0056074559688568115
1746232829108478200,2.446478271484375,-0.15842877650022202,0.12075793743133545,-0.10114234002946998,-0.04123859852552414,0.1844825323836734,0.9701904095808344,0.3539185375992792,right,0.0017822980880737305,-0.2741232136291905,-1.489398453669995,-9.32226898497641,-0.12027793670560424,0.12773597240447998,0.0055382996797561646,2.654690040902793,0.007886379957199097
1746232829148478500,2.486478515625,-0.15855181242969665,0.1160091757774353,-0.10118837357011926,-0.041641488671302795,0.1872082369348926,0.9699634560198295,0.3597637821002722,right,0.0028389692306518555,-0.26973286454833456,-1.4923711858704685,-9.333504664739966,-0.11783298347665645,0.1454164683818817,0.011583268642425537,2.6132176283076403,0.008588224649429321
1746232829188478500,2.526478515625,-0.1585763254025477,0.09264359623193741,-0.10109956288956311,-0.036771468818187714,0.18970670584098825,0.969810952355258,0.36518574394621,right,0.0006851553916931152,-0.2647659344008514,-1.4946312397569417,-9.346169500523805,-0.115138334643837,0.15029603242874146,0.013986945152282715,2.5662378504678607,0.00911065936088562
1746232829228478500,2.566478515625,-0.15878490052233676,0.04293553903698921,-0.1009883085461913,-0.031167984008789062,0.19140121285600745,0.9697998708772114,0.36893154041082177,right,-0.001620948314666748,-0.2597645092257731,-1.4985913755595683,-9.35841406506896,-0.112494549604542,0.1340639889240265,0.014837458729743958,2.518867904266715,0.012185662984848022
1746232829268478500,2.606478515625,-0.15922195325383443,-0.00028873980045318604,-0.10088241252720055,-0.016253238543868065,0.19200398179953385,0.9699644118229722,0.37038245164819944,right,-0.0011112093925476074,-0.25512060347362575,-1.5045197426952421,-9.369206677240133,-0.11011871051813006,0.12371031939983368,0.014466360211372375,2.474827394749224,0.005267083644866943
1746232829308478500,2.646478515625,-0.15963440888464542,-0.043791089206933975,-0.10072242780710491,-0.009806033223867416,0.19181375335692696,0.9702436836517006,0.37017128382112274,right,-0.004600405693054199,-0.25107157334883146,-1.5099644179672003,-9.378401791086793,-0.10811829410816294,0.09341618418693542,0.01190611720085144,2.4363851436302064,0.006915479898452759
1746232829348478200,2.686478271484375,-0.16045182184949933,-0.06717808544635773,-0.10073953976279239,-0.02156030386686325,0.19086944037091746,0.9706021402140464,0.36832023545806225,right,-0.007710576057434082,-0.24780986178425643,-1.5188915285274385,-9.384958957645296,-0.10654474564916883,0.06767760962247849,0.007228270173072815,2.405388678472489,0.0013651549816131592
1746232829388478500,2.726478515625,-0.16190995467209424,-0.0658450573682785,-0.10110753861004321,-0.03871891275048256,0.18969158153576543,0.9709273597769363,0.3658769651578253,right,-0.011387407779693604,-0.24534706636922063,-1.5335247417747973,-9.38855259822309,-0.10532946277824667,0.0387478731572628,0.002206742763519287,2.381967324744165,-0.004017889499664307
1746232829428478500,2.766478515625,-0.16414173870435683,-0.05098419263958931,-0.10194770266304973,-0.04864594340324402,0.18863448570016658,0.9711305235317692,0.36354282933808735,right,-0.0044179558753967285,-0.24392113728002124,-1.5550275485306977,-9.388447968804837,-0.10454198946327911,0.01741725765168667,0.0007824152708053589,2.3684001332931217,-0.007587447762489319
1746232829468478500,2.806478515625,-0.16662834573188617,-0.04129002243280411,-0.10299551707147214,-0.06711583584547043,0.18793419922453872,0.9712172434782385,0.3618864184029728,right,-0.0101546049118042,-0.2430512797452785,-1.578709160630405,-9.386580421367286,-0.10396879816650215,0.004620528779923916,-0.0030793696641921997,2.3601214036390186,-0.0038992315530776978
1746232829508478500,2.846478515625,-0.1691430536547459,-0.024629713967442513,-0.10412758954957087,-0.05266530066728592,0.1874845067661159,0.971219677602155,0.3607124354138871,right,-0.005573749542236328,-0.2427154666004065,-1.602442064525932,-9.383361459320783,-0.10362988299192234,-0.006819409318268299,0.00020928680896759033,2.356924799554795,-0.0028290152549743652
1746232829548478500,2.886478515625,-0.1711090569226017,-0.009984753094613552,-0.10504712440728652,-0.03423713892698288,0.1872569338601314,0.9711804516069255,0.3600341984694993,right,-0.0032051801681518555,-0.2427150187706618,-1.6208867988854645,-9.380193935200571,-0.10348094565895911,-0.0077501521445810795,0.0027752965688705444,2.3569205617710947,-0.0025444477796554565
1746232829588478200,2.926478271484375,-0.17252638854895483,-0.01823291927576065,-0.10573633714445137,-0.03603598475456238,0.18704549760121478,0.9711368006232367,0.35942260811699306,right,-0.009160220623016357,-0.24310675812123175,-1.6340214441381393,-9.376976726719736,-0.10357149211544636,-0.02246001549065113,-0.0013431757688522339,2.3606493730358777,0.0010298937559127808
1746232829628478200,2.966478271484375,-0.17441448205818105,-0.027573011815547943,-0.10669666803936555,-0.02783317118883133,0.1865329386524225,0.9710703121997785,0.35807642110414417,right,-0.0028043389320373535,-0.24447328306433924,-1.6511618179008363,-9.370689024752378,-0.10413273621823717,-0.05732478201389313,0.0039331912994384766,2.373654254429042,0.0016488134860992432
1746232829668478500,3.006478515625,-0.17452948514632322,-0.02301064133644104,-0.10694925082843847,0.043099433183670044,0.18590690284878644,0.9709785147506984,0.35655606386610367,right,0.006911158561706543,-0.24782207001015383,-1.6508498293422162,-9.362618531021475,-0.10583547403343303,-0.12417572736740112,0.012628883123397827,2.4055047060675916,0.007648959755897522
1746232829708478500,3.046478515625,-0.1707128372869712,0.04914635419845581,-0.10549595380447467,0.1659485399723053,0.18547276185536304,0.9708860617955928,0.35573878245268215,right,0.017408251762390137,-0.2532135069190615,-1.6128773876920341,-9.355934523212909,-0.1088608847774801,-0.13882796466350555,0.005586698651313782,2.456726213130355,-0.010269343852996826
1746232829748478500,3.086478515625,-0.16184341850450887,0.18368788063526154,-0.10194429178706775,0.22780054807662964,0.18700522967121688,0.9705336077783443,0.35951253651605153,right,0.017232418060302734,-0.25979553023532626,-1.527194515839964,-9.353709832900762,-0.11269816719188915,-0.14457544684410095,-0.0034130066633224487,2.519161918777227,-0.015161648392677307
1746232829788478500,3.126478515625,-0.14805730253111102,0.35728275775909424,-0.09633261549178028,0.31239229440689087,0.19148685964459874,0.969821119077677,0.3700803859162032,right,0.011609852313995361,-0.26536082076907686,-1.3960123139642178,-9.359862510311602,-0.11618875483024843,-0.06188315153121948,-0.003850415349006653,2.571867965309322,-0.01687157154083252
1746232829828478500,3.166478515625,-0.1324000840752806,0.3611006438732147,-0.0898812009978185,0.2843720614910126,0.19779548322908086,0.9688920831271842,0.384854665979852,right,-0.003647923469543457,-0.268428957600296,-1.2482501486875117,-9.372706209793686,-0.11851721983821742,0.014977917075157166,-0.015026271343231201,2.60089064617604,0.006382673978805542
1746232829868478200,3.206478271484375,-0.12172750909031707,0.27627894282341003,-0.08547228501172217,0.10402683913707733,0.2036703804969422,0.9680398882457314,0.3983101930857691,right,-0.01967376470565796,-0.26800393507398457,-1.1482841922000049,-9.386590942761302,-0.1187920118219597,0.08272646367549896,-0.022641927003860474,2.5968717659235,0.008497059345245361
1746232829908478500,3.246478515625,-0.1187201610140492,0.12198832631111145,-0.08423456763085559,-0.060258299112319946,0.20783124121583468,0.9674707431736622,0.40738558412423803,right,-0.013193607330322266,-0.264661712616929,-1.1210720678865909,-9.39856721175909,-0.11709378638249163,0.12921442091464996,-0.008896224200725555,2.5652514697790143,0.013064026832580566
1746232829948478500,3.286478515625,-0.12149206159035283,0.02221253514289856,-0.08517461517167807,-0.08035814017057419,0.20954170030179473,0.9674288211660119,0.4107942712020742,right,0.011543869972229004,-0.258482176353048,-1.1490188631501048,-9.410979534086584,-0.11366116792369814,0.17887942492961884,0.006206080317497253,2.5067121870487927,0.004734396934509277
1746232829988478500,3.326478515625,-0.12579645426237843,-0.030911199748516083,-0.08671961190999739,-0.11461494863033295,0.20984813984712994,0.9676008859948131,0.4111306595469061,right,0.004269897937774658,-0.25275709551643877,-1.1912976967573166,-9.420029686504602,-0.11041665227475524,0.12866371870040894,-0.0021532922983169556,2.4523928601011633,0.0032412707805633545
1746232830028478500,3.366478515625,-0.13086441692073783,-0.021978892385959625,-0.08882213630953624,-0.1241278275847435,0.2099520600189283,0.9676370002907198,0.41090490639463506,right,0.0015300512313842773,-0.24928553110618695,-1.2401260250732302,-9.422255545860528,-0.10820940979509586,0.04624452441930771,-0.010388702154159546,2.4194153041288256,-0.00030496716499328613
1746232830068478500,3.406478515625,-0.13533470261952868,-0.04648345708847046,-0.09086815995040116,-0.09783787280321121,0.2097317525768966,0.96757981742957,0.40997947274073,right,-0.0009542107582092285,-0.24859552033575755,-1.2824587077595293,-9.418269691094755,-0.10744696058871755,-0.023942463099956512,-0.016054198145866394,2.412857260787487,0.004257887601852417
1746232830108478200,3.446478271484375,-0.13859037816152006,-0.1292116791009903,-0.09246087554079839,-0.012685023248195648,0.208028099690296,0.9676829986263006,0.40599152811997663,right,0.0017407536506652832,-0.2510185208626807,-1.3123030802726745,-9.40822643598616,-0.1084661857767875,-0.12607502937316895,-0.0068359375,2.435881139630824,0.013293817639350891
1746232830148478500,3.486478515625,-0.14058761147774734,-0.21365943551063538,-0.0935792325754579,0.0674629658460617,0.20402765944019655,0.9680310140784839,0.3972011013942659,right,0.016447484493255615,-0.25776195035687605,-1.3287589789025485,-9.38910906306207,-0.11194454225643093,-0.24005281925201416,0.0019593536853790283,2.4998832178115844,0.000532001256942749
1746232830188478500,3.526478515625,-0.1393951870397802,-0.150442972779274,-0.09333204925268607,0.09870845079421997,0.19967150963533284,0.9683597455380848,0.38793226154122806,right,0.0071846842765808105,-0.2671223365755611,-1.3142533375576138,-9.367102982959151,-0.11704608053263195,-0.2778462767601013,-0.01657755672931671,2.5885338534280655,-0.011073917150497437
1746232830228478500,3.566478515625,-0.135959422103109,0.0031842440366744995,-0.09229881343221116,0.13707809150218964,0.19739781516378915,0.968247617662415,0.3832331549322728,right,0.0013273954391479492,-0.27723930082439097,-1.2784472801610827,-9.345137234866618,-0.12252147142241977,-0.24694111943244934,-0.02013373374938965,2.6840947068244216,-0.018526166677474976
1746232830268478500,3.606478515625,-0.13159928186909903,0.11772889643907547,-0.09111252804590886,0.08992037177085876,0.19785036511471943,0.9676206736296754,0.3843551578156217,right,0.0037992000579833984,-0.28676836584871057,-1.234276860653609,-9.3248426348567,-0.12752970070956834,-0.2074272185564041,-0.009927704930305481,2.7738512578561902,-0.016108453273773193
1746232830308478500,3.646478515625,-0.12328532443368381,0.2425163984298706,-0.08809787715026017,0.266255646944046,0.2008032341553523,0.9668264862298998,0.39135714147425865,right,0.026051759719848633,-0.29287505386695534,-1.1546041159365326,-9.317797977042197,-0.13100870142615498,-0.08513504266738892,0.02135271579027176,2.831239909246564,0.0011854767799377441
1746232830348478200,3.686478271484375,-0.10869403124486147,0.21519595384597778,-0.08198888433813169,0.34855857491493225,0.20425421364881588,0.966244864923025,0.4003925651346991,right,0.015577495098114014,-0.2965789610693225,-1.0173827069617807,-9.323163887989521,-0.1338983003180619,-0.04029787704348564,0.021223247051239014,2.8659964575901626,0.03244408965110779
1746232830388478500,3.726478515625,-0.09490747052998948,0.14095059037208557,-0.07597859547696706,0.18478666245937347,0.2069458032446788,0.9659033616606595,0.40785779334065064,right,-0.02784210443496704,-0.29810807490020125,-0.888339343745634,-9.33192996276915,-0.13576169275148336,-0.02321828342974186,-0.015068300068378448,2.88033390276134,0.05275440216064453
1746232830428478500,3.766478515625,-0.09005548679557593,0.07826148718595505,-0.07399759960694237,0.012953922152519226,0.20891581813768573,0.965560200026062,0.412615078057033,right,-0.009103775024414062,-0.29850215095490873,-0.8429485155977309,-9.334998702690005,-0.13627860163961303,0.06586671620607376,-0.0006481707096099854,2.8840277888432144,0.026190638542175293
1746232830468478500,3.806478515625,-0.09047002006836155,-0.09623412042856216,-0.07358152051519684,-0.04605007544159889,0.20890789165515528,0.9660254578879159,0.41262934446496474,right,-0.015233099460601807,-0.2922013359561177,-0.848443094426021,-9.352560662865638,-0.13318356391229796,0.2807617485523224,0.013027086853981018,2.824913628834486,0.004951357841491699
1746232830508478500,3.846478515625,-0.09617962338021371,-0.2843378782272339,-0.07456394075622358,-0.09794189035892487,0.2059917578589513,0.967526602831557,0.4060661951626375,right,-0.0005183219909667969,-0.27829584521255185,-0.9055133275169879,-9.385759168112278,-0.126093869496657,0.3596823811531067,0.04730237275362015,2.694058759216964,0.020815640687942505
1746232830548478500,3.886478515625,-0.10220657253841656,-0.4889891743659973,-0.07525733670502725,0.002369426190853119,0.19901541359209154,0.9697919465262709,0.3912053145330245,right,0.020132601261138916,-0.2644183600615895,-0.9657858637806027,-9.416418510270118,-0.1193004068471837,0.27112090587615967,0.07917329668998718,2.5629478690117597,0.02217167615890503
1746232830588478200,3.926478271484375,-0.1048755567040746,-0.5611116886138916,-0.07430439385837007,0.06997943669557571,0.18884949204524548,0.9724963139134299,0.3702522339270823,right,-0.014846205711364746,-0.2530788814367779,-0.9938932564333081,-9.442104155668616,-0.1143044200387171,0.20625010132789612,0.04961288720369339,2.4554478637576103,0.00024819374084472656
1746232830628478200,3.966478271484375,-0.10825435972546542,-0.4763336181640625,-0.07395724420855636,-0.07389972358942032,0.17876281236280242,0.9749166929341727,0.3494412959996094,right,-0.05334198474884033,-0.2434219599435729,-1.0283045715358108,-9.46182533970475,-0.11005222265317875,0.183306023478508,-0.017280757427215576,2.3636494316346943,-0.012576520442962646
1746232830668478500,4.006478515625,-0.11845041253095207,-0.313758909702301,-0.07741602071445011,-0.2366037368774414,0.17177153910985218,0.9764059639448964,0.33429484597362863,right,-0.009217977523803711,-0.23479042431076066,-1.1270917665675282,-9.470755665135384,-0.10551114730231877,0.209447979927063,-0.016823209822177887,2.281411439539492,-0.03125797212123871
1746232830708478500,4.046478515625,-0.13140812009790662,-0.26876792311668396,-0.08232820964695811,-0.2921207547187805,0.16749072600473455,0.9774327881569268,0.3246928917861315,right,0.013034999370574951,-0.2228825221613467,-1.2531840979583562,-9.481617835411429,-0.09896503254151102,0.33938872814178467,-0.005656838417053223,2.1676797002889217,-0.01933594048023224
1746232830748478500,4.086478515625,-0.146185274191727,-0.40649041533470154,-0.0877029756829462,-0.32646995782852173,0.16233276032854987,0.9787443696090448,0.3136484159996076,right,0.014907121658325195,-0.2051649955605822,-1.3985289729602635,-9.498574230909346,-0.08953030588357057,0.4639812409877777,0.0015035122632980347,1.9978965496011076,-0.014865249395370483
1746232830788478500,4.126478515625,-0.16101438843540225,-0.49032849073410034,-0.09265775792286499,-0.27600622177124023,0.1550217983772937,0.9805001535889775,0.29891763331143684,right,0.017308592796325684,-0.181650391720881,-1.5463310318559407,-9.52053939447999,-0.0774732728314865,0.5762553811073303,0.035548850893974304,1.771601822618395,-0.025694236159324646
1746232830828478500,4.166478515625,-0.17737987420654047,-0.4786278307437897,-0.09828061018122593,-0.474570631980896,0.14652553287306636,0.982234451620306,0.2823567442624463,right,-0.03929924964904785,-0.15500081544075586,-1.7096506856180727,-9.537054475951194,-0.06392550535822446,0.6056675910949707,-0.015011623501777649,1.513959917344153,-0.06063911318778992
1746232830868478200,4.206478271484375,-0.20427776887020793,-0.36942416429519653,-0.10948184609346694,-0.706366777420044,0.14062434249154196,0.9827295547791502,0.27101647639486875,right,-0.021008551120758057,-0.1290484657754354,-1.9728357581026852,-9.522898524826765,-0.04980971279357895,0.5540820956230164,-0.018870443105697632,1.2620238224960862,-0.05961986631155014
1746232830908478500,4.246478515625,-0.23227176809781894,-0.2888661026954651,-0.1215453637898381,-0.6517276763916016,0.13607967407189323,0.9825373587240375,0.2629947203489447,right,-0.0006740689277648926,-0.10491612423523608,-2.2449700068488716,-9.490826393261552,-0.036458688833043,0.5067368149757385,-0.048018649220466614,1.0269896164797245,-0.03642963618040085
1746232830948478500,4.286478515625,-0.25607652653449176,-0.3286788761615753,-0.13194319370429325,-0.48392677307128906,0.13147834437251568,0.9821564205331416,0.25510425700454215,right,0.03482973575592041,-0.08575814721335083,-2.4747692348212,-9.452002449348567,-0.025941755305915998,0.3418869972229004,-0.05361089110374451,0.8399700112435966,-0.03246179223060608
1746232830988478500,4.326478515625,-0.2725978568735332,-0.23285219073295593,-0.13913496956886315,-0.24710603058338165,0.1270622463011504,0.981914030404176,0.2475374812052109,right,0.06134176254272461,-0.07169807683062893,-2.6335037527501584,-9.420271094045042,-0.018473643953161756,0.2371404767036438,-0.04013076424598694,0.7025160356219857,-0.04202752560377121
1746232831028478500,4.366478515625,-0.279963938381106,-0.09554116427898407,-0.14217483714587167,-0.10091309249401093,0.12466305737656391,0.9818647125794258,0.24379375817215596,right,0.02218097448348999,-0.062334813717908256,-2.704521116520464,-9.406527230852841,-0.013671208022931982,0.16997094452381134,-0.07286331057548523,0.6109002300569787,-0.0538533553481102
1746232831068478500,4.406478515625,-0.28448250062675223,0.08400259912014008,-0.14402386340471202,-0.06715203821659088,0.12546266739631334,0.9815377273419927,0.2462778529470275,right,-0.004851162433624268,-0.0557675043348822,-2.748064197909832,-9.39785877122879,-0.009984010725733664,0.15833738446235657,-0.05636078119277954,0.5466092884648591,-0.04640846699476242
1746232831108478200,4.446478271484375,-0.28624596290145327,0.10810404270887375,-0.14453306978097918,-0.009890079498291016,0.1278208311138749,0.9811888830990072,0.25196259596043385,right,-0.01404350996017456,-0.04940488065438822,-2.7655586458072063,-9.39614378400445,-0.006337266382856379,0.2103186696767807,-0.05097442865371704,0.48429962035045027,-0.037138741463422775
1746232831148478500,4.486478515625,-0.28747600565883497,0.10396871715784073,-0.1448123627830641,-0.023852132260799408,0.13053352998447199,0.9808060989073192,0.258269640880166,right,-0.01175004243850708,-0.04387476232208413,-2.777831267403066,-9.395160033664107,-0.003086720931231566,0.10793378949165344,-0.01114770770072937,0.4301267161361873,-0.0005020499229431152
1746232831188478500,4.526478515625,-0.28683093510391505,0.07562124729156494,-0.14442549291293552,0.06804822385311127,0.13255945844929512,0.9805937540162064,0.2625754589150921,right,-0.014177083969116211,-0.042658403371593864,-2.771916198140383,-9.397444929730892,-0.002220866905648,-0.020031064748764038,0.04325607419013977,0.4182094838492572,0.027580950409173965
1746232831228478500,4.566478515625,-0.28339800205313104,0.02675705775618553,-0.14305263552275158,0.15310712158679962,0.13305386065770103,0.9807186713721988,0.262907097651,right,-0.002962470054626465,-0.04755858411649793,-2.7390330424532294,-9.404824518588185,-0.004829747511895763,-0.20510751008987427,0.07563474774360657,0.46621491494234646,0.060738444328308105
1746232831268478500,4.606478515625,-0.27523271816285305,-0.039559561759233475,-0.13979544067098512,0.2590346336364746,0.13161235173307345,0.9813245804857659,0.2583539016549626,right,0.0024011731147766113,-0.05983448640520082,-2.6603935132414103,-9.420658047536016,-0.011719453960497497,-0.40125370025634766,0.05855800211429596,0.5864261158727109,0.06101852282881737
1746232831308478500,4.646478515625,-0.26300522136359294,-0.026850182563066483,-0.1349073601225409,0.38236233592033386,0.1296033868351909,0.9820896710603817,0.25195159345562124,right,0.032369792461395264,-0.07908734018247171,-2.541599668295681,-9.439829196473955,-0.022419550722081592,-0.5900644063949585,0.03914138674736023,0.7747739740379154,0.0789780467748642
1746232831348478200,4.686478271484375,-0.2460864190590999,0.03302442282438278,-0.12804334519842545,0.4442751109600067,0.12753689388603362,0.9828376703608352,0.2450155115381019,right,0.017080485820770264,-0.10559088582488653,-2.375694820345938,-9.458234037214517,-0.03700218418113455,-0.7519475221633911,-0.005222409963607788,1.0335700908485799,0.05006738752126694
1746232831388478500,4.726478515625,-0.22835092678038024,0.058314088732004166,-0.12101065883631955,0.41924339532852173,0.1261462053352382,0.9831033273365691,0.23940951473896596,right,-0.0086173415184021,-0.13777819950063222,-2.1989104125939307,-9.461559382244944,-0.054324217930467156,-0.834884762763977,-0.02038818597793579,1.3468722893506289,0.015745654702186584
1746232831428478500,4.766478515625,-0.21268207642625875,0.025928307324647903,-0.11484622461781481,0.3961310386657715,0.12457443479727724,0.9829735619428309,0.23401789679947785,right,0.006257832050323486,-0.16918846200150153,-2.040455003867298,-9.448822065746784,-0.07109481491927966,-0.7158756256103516,-0.013582080602645874,1.6512682008847592,-0.026503726840019226
1746232831468478500,4.806478515625,-0.19922454824199248,0.07218277454376221,-0.10935148777068793,0.2937762141227722,0.12319023374190015,0.98275177289031,0.23001946873617835,right,0.0014243721961975098,-0.19335471472666765,-1.9046607781514524,-9.433546755203604,-0.08405484682321766,-0.5207896828651428,-0.03052370250225067,1.8843695391424,-0.03841802477836609
1746232831508478500,4.846478515625,-0.1887910418822445,0.20454202592372894,-0.10532183396393803,0.24995766580104828,0.12446033938645898,0.9821161494030469,0.23189085826558872,right,0.01818603277206421,-0.212755161430508,-1.7989336277887225,-9.41522024039626,-0.09415228331365398,-0.44189879298210144,0.006926491856575012,2.0707113181822,-0.01551470160484314
1746232831548478500,4.886478515625,-0.17749323961504804,0.28923189640045166,-0.10109191552244809,0.2622320353984833,0.12801752200183286,0.9811601976230785,0.2388331175335808,right,0.022580981254577637,-0.23107411142930717,-1.6854685766503215,-9.396025126060843,-0.10352037591804078,-0.420162558555603,0.04563179612159729,2.2459511268407106,0.018705293536186218
1746232831588478200,4.926478271484375,-0.16426447743250688,0.3120143711566925,-0.0961185097587793,0.25320327281951904,0.13265150589019953,0.9800245994777382,0.2484641699695739,right,-0.011706411838531494,-0.24909784366388668,-1.5541541266970336,-9.376035646477341,-0.11276717860160838,-0.40711477398872375,0.03984864801168442,2.4176314894519746,0.01844547688961029
1746232831628478200,4.966478271484375,-0.154610846521099,0.24534937739372253,-0.09285763025702902,0.11655659973621368,0.13709178451708395,0.9787515747885034,0.25765306825397666,right,-0.018638014793395996,-0.265317817084085,-1.4573393277168274,-9.350622388279437,-0.12094792357124427,-0.3198559880256653,0.022685840725898743,2.571460845813155,0.005289793014526367
1746232831668478500,5.006478515625,-0.15025418899286644,0.23949433863162994,-0.09194555611771102,-0.023907721042633057,0.14138593032140778,0.9775258261764159,0.2663121928387922,right,-0.021175265312194824,-0.27681213388046594,-1.4120702993176877,-9.327041021683812,-0.126488175989631,-0.21260946989059448,0.0020276010036468506,2.6800653051778673,0.001623004674911499
1746232831708478500,5.046478515625,-0.14975588103463078,0.1458357870578766,-0.09264831259874623,0.0021136365830898285,0.14507342149577276,0.9764466244295938,0.27348120962131656,right,0.02941596508026123,-0.2847554815867172,-1.4042017578996717,-9.30639921567142,-0.13008451572420612,-0.12390857934951782,0.03163417428731918,2.754912164108455,0.006558150053024292
1746232831748478500,5.086478515625,-0.14781824718831393,0.07380559295415878,-0.09221220632690187,0.056467246264219284,0.1467824305283944,0.9759414226438697,0.2769989974790359,right,0.03186434507369995,-0.28922306733817404,-1.3843401424795387,-9.296835853034258,-0.13225044986490625,-0.07770104706287384,0.02302105724811554,2.796932273714244,0.009675562381744385
1746232831788478500,5.126478515625,-0.14338348239866,0.09267272055149078,-0.09046305441456627,0.14773598313331604,0.14786043365815477,0.9756600418456037,0.2796147654966619,right,0.03664284944534302,-0.2930237348468919,-1.34156877611503,-9.292295286995172,-0.13431757205859293,-0.09409157931804657,0.007783189415931702,2.8326357475191353,0.008353888988494873
1746232831828478500,5.166478515625,-0.13223154635985399,0.16453400254249573,-0.08572930537480392,0.29194122552871704,0.14964406815100406,0.9753380057884604,0.28455116196394814,right,-0.0005921125411987305,-0.29877331146232,-1.23569257267043,-9.29038039328456,-0.13774215639271553,-0.12545979022979736,-0.004905670881271362,2.8865692900195716,-0.008912533521652222
1746232831868478200,5.206478271484375,-0.11946841600884728,0.16720302402973175,-0.08033509658351479,0.2559971213340759,0.15188980824591944,0.9749283225678571,0.2907370083396459,right,-0.01864612102508545,-0.3047859609439896,-1.1149321038268505,-9.287994374930857,-0.14138723669130454,-0.11322829872369766,-0.00902179628610611,2.9428683926075694,-0.009240061044692993
1746232831908478500,5.246478515625,-0.11088208995104262,0.15636754035949707,-0.07691608908521459,0.10783395171165466,0.15437711124421105,0.9744118684982979,0.2969327990179877,right,-0.038730740547180176,-0.30954844419513294,-1.0335795893292874,-9.283190189519525,-0.14412817382643062,-0.08057604730129242,-0.024755321443080902,2.9873864565089345,-0.015725255012512207
1746232831948478500,5.286478515625,-0.1080708696829068,0.09752465039491653,-0.0761484608351376,-0.01693183183670044,0.15699776921925052,0.9738568922093193,0.3026467840600588,right,-0.035032451152801514,-0.31225417408148476,-1.0066029542721808,-9.277989113745093,-0.1454496602805178,-0.03237580507993698,-0.023889116942882538,3.012648615798354,-0.013196676969528198
1746232831988478500,5.326478515625,-0.10869076840442163,0.03605727478861809,-0.07662715368762688,-0.03885270655155182,0.15845156583502312,0.9736431908609476,0.30555498925068236,right,-0.0248335599899292,-0.3117675880519244,-1.0125130550988017,-9.278819719350338,-0.1450521659914255,0.0598696768283844,-0.02659592032432556,3.008107172976434,-0.03680539131164551
1746232832028478500,5.366478515625,-0.10991405817843991,0.024954739958047867,-0.0770686731623366,-0.05208631604909897,0.15951482045075266,0.973773150167088,0.30769056276899437,right,-0.018770873546600342,-0.3074439161106476,-1.0252801091480999,-9.29041488007605,-0.14276230910032334,0.14321132004261017,-0.015874378383159637,2.967722263357043,-0.03198409080505371
1746232832068478500,5.406478515625,-0.11230077860146438,0.0047311075031757355,-0.07790990308604372,-0.04500212520360947,0.16005121686896912,0.9740337553409488,0.30861750910185454,right,0.0031078457832336426,-0.3020432992361053,-1.0492316242303699,-9.30373262681067,-0.13989888729632866,0.11919107288122177,0.0026377737522125244,2.917200867387652,-0.033236920833587646
1746232832108478200,5.446478271484375,-0.11337715962215512,0.08993081748485565,-0.07831791609724224,-0.013343017548322678,0.1610826265795431,0.974107550609511,0.3107010960614851,right,0.011418461799621582,-0.29841640136656084,-1.0604353744857014,-9.313048736688494,-0.13795994895534663,0.0527375191450119,-0.004311911761760712,2.883224071244895,-0.03563794493675232
1746232832148478500,5.486478515625,-0.11174586221208278,0.2173888236284256,-0.07797579592489767,-0.009998937137424946,0.1642431116917006,0.9736363342032012,0.31742765387756067,right,0.0012392997741699219,-0.29825993231644027,-1.0452919466938824,-9.315214390289784,-0.13775340227839428,-0.026913762092590332,-0.014792338013648987,2.8817575058236717,-0.026246845722198486
1746232832188478500,5.526478515625,-0.10838194316497358,0.24307523667812347,-0.07719603387783096,0.04429025948047638,0.16884746211506366,0.9727639617962256,0.327296691837725,right,0.002093791961669922,-0.30058571355058733,-1.0132227377381176,-9.311990167546272,-0.13878546659764396,-0.044735997915267944,0.004514142870903015,2.9035508199587463,-0.00009837746620178223
1746232832228478500,5.566478515625,-0.10435608652275856,0.07149595022201538,-0.07591066338668485,0.10642515122890472,0.17187387052996955,0.9721391288591671,0.33402511689193937,right,0.01381760835647583,-0.30321075896734156,-0.974928516787663,-9.308380744877457,-0.14015067709239887,-0.03837914392352104,0.032076396048069,2.9281293808981776,0.027182340621948242
1746232832268478500,5.606478515625,-0.10065349971346592,-0.10569049417972565,-0.07406828879852832,0.11168485134840012,0.17118722751662244,0.9723341649368773,0.33314086423425476,right,0.00901806354522705,-0.3034616250514755,-0.9403829808462411,-9.311195802298188,-0.14062364876386474,0.022745702415704727,0.0387977696955204,2.9304771130681035,0.046042680740356445
1746232832308478500,5.646478515625,-0.09977064451859911,-0.2988976836204529,-0.07293200333384518,-0.018000252544879913,0.1667501794150774,0.9732021648972297,0.3241706013631876,right,-0.04161804914474487,-0.3024706338086191,-0.9324510188031941,-9.314907516297698,-0.14054466252845063,-0.005660727620124817,-0.00352613627910614,2.921201627461612,0.057910382747650146
1746232832348478200,5.686478271484375,-0.1092490671383828,-0.26611801981925964,-0.07664435045262655,-0.21650737524032593,0.16128316190223665,0.9738993745542791,0.3115801642709664,right,0.010256409645080566,-0.30222621334272454,-1.0207762949228285,-9.3063606372267,-0.14011887480671437,-0.03334460407495499,-0.0017324760556221008,2.918913224263489,0.030698925256729126
1746232832388478500,5.726478515625,-0.11936186592824326,-0.14779210090637207,-0.08110100546401851,-0.15183673799037933,0.1575367118274781,0.9740363172992867,0.3023426353595762,right,0.016546785831451416,-0.30476755486055834,-1.1139489380083978,-9.288166808888315,-0.14091809190368898,-0.10381373018026352,-0.001282721757888794,2.942696250911057,0.007292002439498901
1746232832428478500,5.766478515625,-0.12683590148096638,0.023035928606987,-0.0847890420839955,-0.16139104962348938,0.15641602812721359,0.9736576870943708,0.29878677477945553,right,0.016732990741729736,-0.3091146505796276,-1.181707884504646,-9.26680428738594,-0.14260178002912308,-0.08470652997493744,-0.01869180053472519,2.983334258508682,-0.020310044288635254
1746232832468478500,5.806478515625,-0.13124524780909516,0.12360446155071259,-0.08737127338475552,-0.06574490666389465,0.1584209106990074,0.9729726216512016,0.3021415010068252,right,0.032444536685943604,-0.3119677898175919,-1.2214379104118793,-9.253027690967917,-0.1435030941782655,-0.006928339600563049,0.0029845312237739563,3.009975597196817,-0.022130370140075684
1746232832508478500,5.846478515625,-0.1343677350276926,0.08057208359241486,-0.08919866311832161,-0.19531533122062683,0.1609720264007201,0.9724923844961194,0.3069488161154663,right,-0.017440974712371826,-0.3114603073884929,-1.2505289072744548,-9.250681420102715,-0.14279393635783677,0.052263613790273666,-0.022935941815376282,3.005238924063742,0.002782195806503296
1746232832548478500,5.886478515625,-0.13979463544146897,0.04444858059287071,-0.09185385560015913,-0.11000152677297592,0.16260552885256593,0.9722302400844387,0.3096258868167121,right,-0.006473064422607422,-0.30900118160189105,-1.3017385777689516,-9.251048499849437,-0.1410341785830303,0.07272733747959137,-0.01509702205657959,2.9822742280617356,-0.008000999689102173
1746232832588478200,5.926478271484375,-0.14417585473742187,-0.0195733942091465,-0.0938813774472333,-0.1079738512635231,0.16331981147643462,0.9721424714505714,0.310575224859461,right,-0.00945216417312622,-0.3066157102130138,-1.3432751416414976,-9.252270735120772,-0.13946954951204743,0.038381900638341904,-0.03164394199848175,2.959980270928144,0.016008377075195312
1746232832628478200,5.966478271484375,-0.1477740568123582,-0.05155504122376442,-0.09550493400265504,-0.01413840800523758,0.1628819632544103,0.9721182374597199,0.30917856906223223,right,0.010596632957458496,-0.30621664375411717,-1.3767317133024335,-9.24854499259591,-0.13904758284069416,-0.021246392279863358,-0.016494333744049072,2.95624897544533,0.010640203952789307
1746232832668478500,6.006478515625,-0.1483774026132664,-0.11142079532146454,-0.09560272980771846,0.08672567456960678,0.16077236199232056,0.9723159604116638,0.3046660488884362,right,0.04438018798828125,-0.3079282731166074,-1.3815614715464413,-9.242694513002037,-0.14004935939189173,-0.05313245952129364,-0.002266988158226013,2.9722493853926655,-0.01010662317276001
1746232832708478500,6.046478515625,-0.1440351797930434,-0.038791969418525696,-0.09338481398940811,0.1946018487215042,0.1588380081319908,0.9726357262612759,0.3012184177216235,right,0.032323360443115234,-0.3099070216442438,-1.340567928509414,-9.242768162760138,-0.14152470734651867,-0.06444944441318512,0.00312727689743042,2.9907354746758936,-0.01144590973854065
1746232832748478500,6.086478515625,-0.13493114808932993,0.05635840445756912,-0.08911950626715778,0.26118922233581543,0.15820454302332335,0.9728572451433243,0.301136205900758,right,0.003504037857055664,-0.31236407313495407,-1.255374739870429,-9.24728008722663,-0.1434490763979196,-0.04210507869720459,0.004772275686264038,3.0136741594538092,-0.0138435959815979
1746232832788478500,6.126478515625,-0.1254046608682294,0.1436012089252472,-0.08493448980763568,0.14676430821418762,0.15951380848784538,0.9727652399229377,0.3051466026932268,right,-0.03114008903503418,-0.3146608533500889,-1.16635614772439,-9.251927620771527,-0.145151951641235,-0.048405323177576065,-0.01051175594329834,3.035099809320271,-0.0021403133869171143
1746232832828478500,6.166478515625,-0.12008875559704885,0.20614810287952423,-0.08307667335683536,0.021146565675735474,0.1625597407331203,0.9721741931006345,0.31209519963289045,right,-0.02834618091583252,-0.3177578086005667,-1.1160261096086352,-9.24862098044157,-0.14679856822049314,-0.05877465009689331,-0.006456553936004639,3.0639649615377187,-0.002726525068283081
1746232832868478200,6.206478271484375,-0.11736689965703746,0.23858767747879028,-0.08258386256027817,-0.03518963232636452,0.1667534858191378,0.9713565308786872,0.321060467469073,right,-0.010132670402526855,-0.32007822269035147,-1.090013131951913,-9.244538679563998,-0.14778225521038058,0.002516184002161026,-0.005773790180683136,3.0855729822337628,-0.00966179370880127
1746232832908478500,6.246478515625,-0.11749342558758652,0.26154354214668274,-0.08346086744661436,-0.11036191880702972,0.17218857663217985,0.9704138581765659,0.33224124132213845,right,0.0036937594413757324,-0.3199578351474754,-1.091226380199194,-9.244769565710424,-0.1472487834014669,0.0500982366502285,0.006244204938411713,3.0844524537712332,0.0001863241195678711
1746232832948478500,6.286478515625,-0.11840065141820667,0.21212194859981537,-0.08455600762025667,-0.12136701494455338,0.1774731887476415,0.9695762850188492,0.3430559359964788,right,-0.006709039211273193,-0.31820128821652965,-1.1002512520454824,-9.24914178944528,-0.14586052046987308,0.0769800916314125,0.0057785362005233765,3.0680960699930786,0.010387927293777466
1746232832988478500,6.326478515625,-0.12089653035540623,0.10697107017040253,-0.08602824098527705,-0.11197248846292496,0.1810537248404155,0.9690919033227925,0.35017128636761935,right,-0.0029459595680236816,-0.31505617228065924,-1.1244907902888952,-9.255900031533837,-0.14380391129080086,0.12033180147409439,0.008036024868488312,3.0387860966175793,0.0013103187084197998
1746232833028478500,6.366478515625,-0.12370877019700782,0.04990078881382942,-0.08727087276643668,-0.12358850985765457,0.18333799980671064,0.9690004385644375,0.35465127440379524,right,-0.017301440238952637,-0.3096895119509672,-1.1525118198323994,-9.268751329800486,-0.14074441465017315,0.15316344797611237,-0.004373364150524139,2.988703968848288,0.012655824422836304
1746232833068478500,6.406478515625,-0.12830520447176472,-0.0006212927401065826,-0.08908945512317958,-0.10885769873857498,0.18409597208945327,0.969170574120583,0.3557647828234746,right,-0.003471195697784424,-0.30379074451099586,-1.1973377075739204,-9.28067966800332,-0.13740485869692656,0.17032870650291443,-0.01487092673778534,2.9335572511658072,-0.012542158365249634
1746232833108478200,6.446478271484375,-0.13156232277379165,0.015562735497951508,-0.09016751633658263,-0.07765558362007141,0.1847392323020845,0.9694728268650585,0.356901325021246,right,-0.0006422996520996094,-0.2968029586467822,-1.2302186713039873,-9.296825331640242,-0.13365485275205086,0.18370842933654785,-0.02059018611907959,2.868097229261696,-0.01174914836883545
1746232833148478500,6.486478515625,-0.13263265181365327,0.051690224558115005,-0.09024540342024304,-0.011741846799850464,0.1857878362033124,0.9697642042433162,0.3592001755070035,right,0.0036895275115966797,-0.2896763655083474,-1.2428402524679898,-9.315527694022656,-0.12998473845749628,0.1858832687139511,-0.014810845255851746,2.801192561507225,-0.01745513081550598
1746232833188478500,6.526478515625,-0.13264044811288236,0.05791296809911728,-0.08992541700270176,-0.038550931960344315,0.1873334336704483,0.9699350970098344,0.36264715488327576,right,-0.011647045612335205,-0.28318712008746566,-1.2452907143600285,-9.333339829567075,-0.12667093157756268,0.15448015928268433,-0.012815475463867188,2.7401477256968616,-0.011200517416000366
1746232833228478500,6.566478515625,-0.13414984224845677,0.09632619470357895,-0.09040079342700137,-0.09413716197013855,0.1893348004922662,0.96992712743202,0.3668284139273462,right,-0.009358346462249756,-0.2770941521853071,-1.2615866001226008,-9.34782135938406,-0.12337513084155176,0.14655931293964386,-0.007974669337272644,2.682725464297831,-0.011808305978775024
1746232833268478500,6.606478515625,-0.13643606304830566,0.07275070995092392,-0.091380707739153,-0.09006476402282715,0.19143396898798531,0.9697500119325557,0.37105835304602564,right,-0.011437296867370605,-0.2725997828892033,-1.2845813990019261,-9.356763375252484,-0.12077823228944007,0.08378159999847412,-0.0049885958433151245,2.6403052494585513,0.001402735710144043
1746232833308478500,6.646478515625,-0.1383183113626087,0.04047823324799538,-0.0922328022713556,-0.049186527729034424,0.19278543478965965,0.9695917832606402,0.3737222818222023,right,-0.002669215202331543,-0.2700653258871614,-1.3031092816002665,-9.360926924672722,-0.11924199313826843,0.06348088383674622,-0.011162549257278442,2.6163600179865956,-0.008698523044586182
1746232833348478200,6.686478271484375,-0.14002496521460467,-0.03828207775950432,-0.09289879160487824,-0.0344017893075943,0.19319823418006118,0.9696104590002189,0.37446907719570766,right,0.002810955047607422,-0.2677103772896862,-1.319939566500485,-9.364764310878515,-0.11789698668126772,0.056125711649656296,-0.00382956862449646,2.5940955792084335,0.010502099990844727
1746232833388478500,6.726478515625,-0.14102937369115254,-0.1635957956314087,-0.092900694205838,0.003515481948852539,0.19131745547690193,0.9701479738450777,0.37060380378059116,right,-0.001397550106048584,-0.2647365426265461,-1.330423404983431,-9.371030385535954,-0.11653271231210131,0.06391599029302597,-0.0055893659591674805,2.5659596180483697,0.01526731252670288
1746232833428478500,6.766478515625,-0.14292443240058852,-0.27153390645980835,-0.09295604352896923,-0.0021537947468459606,0.18718131002149327,0.9711745622317132,0.3620583624765479,right,-0.005183041095733643,-0.2604028997807917,-1.3497509135268628,-9.37941067586839,-0.11463985465714514,0.07496291399002075,-0.0011914968490600586,2.524917705824971,0.02190345525741577
1746232833468478500,6.806478515625,-0.1463813672574629,-0.3861582279205322,-0.09353093971279795,-0.001895439112558961,0.18091479191685342,0.9725203770638827,0.3489720492435997,right,0.0032992959022521973,-0.2560488191171848,-1.383757228025049,-9.385476259517668,-0.11280890234132128,0.042996715754270554,0.014519721269607544,2.483634386061132,0.03272929787635803
1746232833508478500,6.846478515625,-0.14998858957814784,-0.5063223242759705,-0.09397027819420527,0.030195962637662888,0.17206232225174056,0.9742219868647484,0.33055474111939487,right,-0.00027114152908325195,-0.2524663632679158,-1.4189241107352077,-9.389161085510253,-0.11160464900231579,0.021970314905047417,0.005265966057777405,2.4496321632161737,0.016660764813423157
1746232833548478500,6.886478515625,-0.15438575999671134,-0.561284065246582,-0.09456336062724419,-0.006774835288524628,0.16170743390398598,0.9761354761275685,0.30909326894842626,right,-0.006271839141845703,-0.24756989628148823,-1.4620229554884134,-9.394570251077413,-0.1098543603072905,0.062068164348602295,-0.0019412189722061157,2.4031071434065696,0.01744556427001953
1746232833588478200,6.926478271484375,-0.16049595467572172,-0.6914240121841431,-0.09574605709355853,-0.0015081390738487244,0.14965794105719843,0.9782181249657068,0.2841502794631746,right,0.00197446346282959,-0.241012484356957,-1.5218835499502719,-9.400815282946825,-0.10735215798419158,0.09382181614637375,0.006893321871757507,2.3407103084653613,0.02532336115837097
1746232833628478200,6.966478271484375,-0.1682968018907509,-0.9206700921058655,-0.0973727296608057,-0.042992375791072845,0.13442680686667322,0.9806257095749937,0.252786857755071,right,-0.011433541774749756,-0.23228092216595506,-1.5985333666495978,-9.408448554304242,-0.10402479437020816,0.07687043398618698,0.018378809094429016,2.2574697151988743,0.059211477637290955
1746232833668478500,7.006478515625,-0.18029304051810932,-1.222275972366333,-0.10054353299475592,-0.06270980089902878,0.11352400562574971,0.983307633911547,0.20969969012058753,right,0.005885720252990723,-0.22239129280727762,-1.7152013054825364,-9.410099828642606,-0.10054556551233437,0.0488404706120491,0.037186071276664734,2.1629813133396207,0.06143386662006378
1746232833708478500,7.046478515625,-0.1930465644516686,-1.3238035440444946,-0.10383943456609983,-0.011566653847694397,0.08815853653969809,0.9858659807470126,0.1577459126143626,right,0.015299320220947266,-0.21221770294139244,-1.8391972491160034,-9.408570719379187,-0.09753846164856528,-0.013721682131290436,0.03299601376056671,2.06555919611603,0.027824491262435913
1746232833748478500,7.086478515625,-0.20147417931085795,-1.0578868389129639,-0.1053773467999135,0.05496327579021454,0.06390290045531727,0.9877872809201865,0.10859630601129061,right,0.007591545581817627,-0.2032006891531461,-1.9220719316795467,-9.410603101989626,-0.09533295463111646,-0.009707842022180557,-0.005801498889923096,1.9790332975685596,-0.03810906410217285
1746232833788478500,7.126478515625,-0.2072442933949909,-0.6122673749923706,-0.10652148907156866,0.001296408474445343,0.04720657755239817,0.9887534496056493,0.07488925571527183,right,0.0028603076934814453,-0.19673919548167895,-1.978929837194085,-9.411673361569642,-0.09376222400445948,-0.0019409512169659138,-0.014029175043106079,1.9169304771378635,-0.05767050385475159
1746232833828478500,7.166478515625,-0.21123485067896305,-0.22483819723129272,-0.10770127751380273,-0.04806138202548027,0.03926205835208272,0.9890924819927044,0.05886641468782553,right,-0.0010764598846435547,-0.1926135873722972,-2.018112823677808,-9.411354212617873,-0.09249269231008106,0.04102048650383949,-0.0059016793966293335,1.8772363262616096,-0.04971383512020111
1746232833868478200,7.206478271484375,-0.21415239156246277,-0.04566067457199097,-0.10892063800076841,-0.05883696302771568,0.03713651217540192,0.9891772728852243,0.054643226320291595,right,0.0016179680824279785,-0.1892958510895792,-2.046874515520781,-9.411460595601797,-0.09102387951005361,0.07187281548976898,0.011323556303977966,1.845291912729293,-0.021772637963294983
1746232833908478500,7.246478515625,-0.21635046311297937,-0.004847973585128784,-0.1099792015391014,-0.05239502713084221,0.037059836360606876,0.9892186612490943,0.05464317484435544,right,-0.005439162254333496,-0.1859277360109516,-2.068878988188505,-9.412955218073725,-0.08931631806521835,0.07699128985404968,0.01631699502468109,1.8128415955014525,-0.010323747992515564
1746232833948478500,7.286478515625,-0.2196300594303975,-0.004488412756472826,-0.11159685014186606,-0.10867424309253693,0.03725443623022687,0.9891401452893421,0.054990193111615245,right,-0.007492184638977051,-0.18361144468980942,-2.100647752892971,-9.410192767623066,-0.08808991356767454,0.0374910868704319,0.01027652621269226,1.79051315157637,0.0020761638879776
1746232833988478500,7.326478515625,-0.2240343733803217,-0.01639568991959095,-0.11375215281585821,-0.10086431354284286,0.037205320643222246,0.9889143726108196,0.05453098377310998,right,-0.0002117156982421875,-0.18331809331048313,-2.1421892852015794,-9.401361226391792,-0.0878886490342243,-0.021279897540807724,0.0010108649730682373,1.7876846501521766,0.009099617600440979
1746232834028478500,7.366478515625,-0.22841339303799815,0.025552773848176003,-0.11592187968605332,-0.11653311550617218,0.037385871230977905,0.9885830502191729,0.054307264462180045,right,-0.0012021064758300781,-0.1850990151943637,-2.1826130655266343,-9.388774716541171,-0.08870078102067687,-0.054759785532951355,-0.016881003975868225,1.8048541038788855,0.004083722829818726
1746232834068478500,7.406478515625,-0.23314742544282785,0.11083123087882996,-0.11837854452306008,-0.12309852242469788,0.038812880966530586,0.9881552011301549,0.05651002543134482,right,0.010561764240264893,-0.18737353720622452,-2.226081035853177,-9.374318321165442,-0.08960628048832323,-0.014472465962171555,-0.01965758204460144,1.8267738208726048,-0.007196590304374695
1746232834108478200,7.446478271484375,-0.23600993743155174,0.17717011272907257,-0.1200738932406649,-0.06394471228122711,0.041982614444914024,0.987802010511436,0.06252115773042506,right,0.020027458667755127,-0.1886384047446931,-2.2523637703619896,-9.365653953194618,-0.0898153649202686,0.029309891164302826,-0.008818209171295166,1.838959348706901,0.0002114027738571167
1746232834148478500,7.486478515625,-0.2362993746172151,0.17612244188785553,-0.1205605566580839,-0.020304281264543533,0.045786193568502026,0.9876166710613908,0.07019794961077265,right,0.010404109954833984,-0.1886277255875545,-2.255079166800529,-9.365020331466198,-0.0893419104265005,0.048674799501895905,-0.002667263150215149,1.8388564728543162,0.009346693754196167
1746232834188478500,7.526478515625,-0.23546868910663055,0.14248433709144592,-0.12044716518419327,-0.003120874986052513,0.049107770496010957,0.9875402777998517,0.07708678920735788,right,0.0022301077842712402,-0.18786883962075593,-2.2476238823585213,-9.368244554209708,-0.0885715142976649,0.05973029509186745,0.003735676407814026,1.831545857580006,0.005179509520530701
1746232834228478500,7.566478515625,-0.23399115282309774,0.11214867234230042,-0.11994245904733315,0.017405159771442413,0.05166028080171179,0.987539843731723,0.08249858662472857,right,-0.0063346028327941895,-0.18690191608352386,-2.234189085115492,-9.373273780548573,-0.08780564189062666,0.04977056384086609,0.004208222031593323,1.8222296015717088,-0.0044891685247421265
1746232834268478500,7.606478515625,-0.23281656251729888,0.1138853207230568,-0.11956856943023314,-0.005646891891956329,0.053962747806353024,0.987496239927188,0.08729548119841433,right,-0.013283252716064453,-0.18664116809236128,-2.22328731348142,-9.376353626385331,-0.08742056151462611,0.014316219836473465,0.0038900524377822876,1.8197168880984187,-0.008386686444282532
1746232834308478500,7.646478515625,-0.23254651172046495,0.10932444036006927,-0.11965432827666134,-0.017836175858974457,0.05628521307082621,0.9873348800588234,0.09190758576515519,right,-0.009046494960784912,-0.18766992151793496,-2.2203224723264574,-9.375127299460768,-0.08766058112573119,-0.010862644761800766,0.008514076471328735,1.829629356434196,-0.008135050535202026
1746232834348478200,7.686478271484375,-0.23291745209553263,0.07112047076225281,-0.12001413356469448,-0.030939411371946335,0.05811737983317915,0.9871528272826653,0.09545270294415133,right,-0.004146099090576172,-0.1888569764902096,-2.2232971042230725,-9.372183062702417,-0.08802411295729522,-0.006134095136076212,0.0068817585706710815,1.841064796553552,-0.002878934144973755
1746232834388478500,7.726478515625,-0.2335618351783244,0.04440046846866608,-0.12044760389964149,-0.02005367912352085,0.05931005314157803,0.9870052203480291,0.09771547905040653,right,-0.0007805228233337402,-0.18971153850329472,-2.2289710582062603,-9.3692142760247,-0.08829138161697654,-0.016107380390167236,0.005764976143836975,1.8492954492822289,0.0035142451524734497
1746232834428478500,7.766478515625,-0.234011375315613,0.01362973265349865,-0.12072153094950704,-0.005204257555305958,0.059710771160290825,0.9868941491753901,0.09833956246355677,right,0.006910800933837891,-0.19101995321385326,-2.2326196438416837,-9.365849768027664,-0.08888675835822434,-0.03789152950048447,0.003073856234550476,1.861894818614423,0.0015595704317092896
1746232834468478500,7.806478515625,-0.2338046793399157,0.027827056124806404,-0.12068185687791651,0.013350038789212704,0.059975615094450235,0.9867610113980506,0.09858633262293538,right,-0.0006661415100097656,-0.19375706930439754,-2.229494643688947,-9.361318554338812,-0.0902300922363609,-0.09086360037326813,0.0006897896528244019,1.8882415582701562,-0.001975342631340027
1746232834508478500,7.846478515625,-0.23287987209703118,0.03965872526168823,-0.12031825337899525,0.01634426973760128,0.06036305549645145,0.9866039330337167,0.09901964475390015,right,-0.0022853612899780273,-0.19764887364455258,-2.2191234718002377,-9.356154887965321,-0.09215398527970975,-0.08752453327178955,-0.006159752607345581,1.9256785778693855,-0.013323202729225159
1746232834548478500,7.886478515625,-0.2321828158238668,0.058502331376075745,-0.12010375987425366,0.00021822750568389893,0.061252701692996354,0.9864374121897257,0.1005413210368947,right,-0.0047844648361206055,-0.2007557775031442,-2.2112138677194713,-9.351832348591088,-0.09361801591353582,-0.057625576853752136,-0.007840543985366821,1.9555442854315042,-0.007924020290374756
1746232834588478200,7.926478271484375,-0.23201758251534543,0.06228581815958023,-0.12015373915147701,0.0035551961045712233,0.06232505772887575,0.9862791932826396,0.10250483753902959,right,0.0024190545082092285,-0.20278821792540194,-2.2087501079544425,-9.348310019683836,-0.0945087445946385,-0.02072056382894516,-0.002575621008872986,1.9750714082002638,-0.011277630925178528
1746232834628478200,7.966478271484375,-0.2316148760110551,0.04609481990337372,-0.12008027852438856,-0.008721347898244858,0.06349553048508148,0.9861897593291451,0.1048327486339009,right,-0.0035240650177001953,-0.20354670634880032,-2.2046407729394732,-9.347737772753835,-0.09475608450608602,0.003057127818465233,-0.0010301023721694946,1.982356742902845,-0.007751584053039551
1746232834668478500,8.006478515625,-0.23187200670452657,0.0015880391001701355,-0.12024959211045003,-0.01966683939099312,0.06400131689343892,0.9861586001162908,0.10586997057496347,right,-0.006669402122497559,-0.2032213031487058,-2.2071925032489,-9.347797978508472,-0.09452491799480209,0.010976902209222317,-0.000009551644325256348,1.9792313043586909,-0.0044668614864349365
1746232834708478500,8.046478515625,-0.23293078022756958,-0.03382572904229164,-0.12071601262583691,-0.02296588569879532,0.06353345910407845,0.9861484972502806,0.1048649562348523,right,-0.004182398319244385,-0.20281536742848627,-2.217273606149852,-9.34623672054112,-0.0943512950290361,-0.0048150429502129555,-0.0031898468732833862,1.9753322510935365,-0.009262248873710632
1746232834748478500,8.086478515625,-0.23445997594994086,-0.023010114207863808,-0.12140779644660896,-0.03790881484746933,0.06290515224520436,0.9860840441357082,0.10340634079485206,right,-0.0073539018630981445,-0.20315272049123637,-2.2314083683557806,-9.342186568367481,-0.09455779331336805,-0.03165772929787636,-0.0076444149017333984,1.9785725481890142,-0.011090785264968872
1746232834788478500,8.126478515625,-0.23648687664704754,0.015337212011218071,-0.12240416791193767,-0.04156583920121193,0.06272340251461042,0.9858934972373893,0.10265073940236023,right,-0.0022060275077819824,-0.2048480875303186,-2.2495503203764557,-9.334370341658591,-0.0953770436281856,-0.053273994475603104,-0.005934074521064758,1.9948536747738719,-0.010174274444580078
1746232834828478500,8.166478515625,-0.2382919477939786,0.04287530109286308,-0.12337807669176344,-0.0380588062107563,0.06325887326589072,0.9856062171986341,0.10322764211005672,right,0.0023987293243408203,-0.2077749686204232,-2.2650080017492176,-9.32458076905012,-0.09672915845436984,-0.07762348651885986,-0.005491465330123901,2.022947842618823,-0.0018661171197891235
1746232834868478200,8.206478271484375,-0.23930157584095363,0.052894096821546555,-0.12399516383084239,-0.022731337696313858,0.06407519115257587,0.9853320815691398,0.10442180780624473,right,0.005338728427886963,-0.21094030058251442,-2.27289203299731,-9.31602161501944,-0.09818487927231713,-0.0636947974562645,-0.005841776728630066,2.0533114167004825,0.0032305866479873657
1746232834908478500,8.246478515625,-0.23960629098244088,0.033393312245607376,-0.12425176403270208,-0.013824560679495335,0.06482613219960312,0.9851430399645846,0.10564581345203951,right,0.002791106700897217,-0.21329124442508038,-2.274578817040473,-9.31061361849606,-0.09925877425217138,-0.03415815532207489,-0.00852280855178833,2.07584955785349,0.0027520209550857544
1746232834948478500,8.286478515625,-0.23968812988226917,0.04209023341536522,-0.12437009503956556,-0.00026612449437379837,0.06551512575801205,0.9850596045889692,0.10696410587734095,right,0.007284700870513916,-0.21392078446696972,-2.275030067939311,-9.30915582090318,-0.09948468621326605,0.013198371976613998,-0.006979808211326599,2.081882992798835,-0.004136815667152405
1746232834988478500,8.326478515625,-0.23931365519473322,0.039299376308918,-0.12427387510575504,-0.0016050166450440884,0.06642184721224564,0.9850392932248888,0.10888291410521386,right,0.0012516379356384277,-0.21357127740224394,-2.2717162672162057,-9.310713571739196,-0.09920537354755221,0.022815244272351265,-0.0030923038721084595,2.078533390109986,-0.0002560466527938843
1746232835028478500,8.366478515625,-0.23901370855710358,0.021039264276623726,-0.12417865501285195,0.005636710673570633,0.06701094795195693,0.9850455630891047,0.1101717020414357,right,0.00034373998641967773,-0.21302445131084166,-2.2691921555660666,-9.31249753254652,-0.09886562475832383,0.012607494369149208,-0.0007862299680709839,2.0732924207165837,0.0009528249502182007
1746232835068478500,8.406478515625,-0.23833130300058775,0.024207673966884613,-0.12388076988897857,0.023966684937477112,0.06736308848931317,0.9850632830664858,0.1109588611772269,right,0.0027589797973632812,-0.21299190203311605,-2.262852577280998,-9.314109643918275,-0.09882367761030639,-0.00001106318086385727,0.0006904006004333496,2.0729804321579635,-0.00122128427028656
1746232835108478200,8.446478271484375,-0.23694258025591758,0.0341649129986763,-0.12326381421862226,0.035699691623449326,0.0678467461831456,0.9850725461951756,0.11199649719606,right,-0.0007683038711547852,-0.21373122532359673,-2.249555288812518,-9.315750396862626,-0.09917117136383345,-0.01680772379040718,-0.000867202877998352,2.080066298765689,0.0020068883895874023
1746232835148478500,8.486478515625,-0.23548341017409866,0.030424661934375763,-0.12262279910337785,0.02669229544699192,0.06839561679034223,0.9850697806183388,0.1131518659297561,right,-0.0008512735366821289,-0.21467396447495002,-2.235501190627366,-9.317112332865594,-0.09961485361869156,-0.006214176304638386,-0.0019266903400421143,2.0891002307012676,-0.0007586479187011719
1746232835188478500,8.526478515625,-0.23423663781993173,0.02116718888282776,-0.12206412813848104,0.02922636643052101,0.06883687783350478,0.9850964508138415,0.11414290190857808,right,0.0020233988761901855,-0.2149510449598087,-2.2237486473828554,-9.319328839871288,-0.09973367227702662,0.00635050144046545,0.0011948347091674805,2.0917549829937516,0.0012883543968200684
1746232835228478500,8.566478515625,-0.2327283369036868,0.008896918036043644,-0.12135766253415735,0.03242848813533783,0.06908010501430223,0.9851524767366379,0.11476114443623868,right,-0.0007842779159545898,-0.21520614616310843,-2.2095666850343347,-9.322152665120363,-0.099873891709021,-0.007501216605305672,0.001260131597518921,2.0941990151450036,0.0012081116437911987
1746232835268478500,8.606478515625,-0.23150490799139034,-0.004564795643091202,-0.12075842485743257,0.027977939695119858,0.06901619536751927,0.9852149866453329,0.11473089851015962,right,-0.0016543865203857422,-0.21542914811657896,-2.198052772851288,-9.32439430656731,-0.10002796587990684,-0.0041221026331186295,0.003527596592903137,2.096335442651808,0.0005292594432830811
1746232835308478500,8.646478515625,-0.23071902651628723,-0.020164985209703445,-0.120346339497386,0.021111290901899338,0.0686731091939006,0.9852645536409709,0.11407495622531894,right,-0.0031343698501586914,-0.21578706187250554,-2.190552480223775,-9.325387409257889,-0.1002711341100648,-0.024330686777830124,0.005123898386955261,2.099764101926237,0.0033423304557800293
1746232835348478200,8.686478271484376,-0.23041781711668863,-0.014712430536746979,-0.12016781222202536,0.006680999882519245,0.06812857080661687,0.98524129316301,0.11283886063964715,right,-0.005483150482177734,-0.2172591792459868,-2.187035265883058,-9.323027694389223,-0.10108200170913115,-0.05904256924986839,0.00034327805042266846,2.11386350055784,0.003500804305076599
1746232835388478500,8.726478515625,-0.23067164683173239,0.008520493283867836,-0.12030751000758177,-0.006621158681809902,0.06788502765114197,0.9851051262031846,0.11203432707195404,right,-0.0016843080520629883,-0.21984747023740958,-2.1881433732554316,-9.317114670953154,-0.10239851792628603,-0.06789989769458771,-0.001626521348953247,2.1386422602444886,0.000681951642036438
1746232835428478500,8.766478515625,-0.23098618639764176,0.028163133189082146,-0.1205333699677518,-0.009781909175217152,0.06816854717464324,0.9849190087665675,0.11227588324340876,right,0.002398192882537842,-0.22259133989677068,-2.189722166879475,-9.310678500425816,-0.10372659999647342,-0.05777326226234436,-0.0033558309078216553,2.1648945996150375,0.0021035224199295044
1746232835468478500,8.806478515625,-0.23092571168328554,0.0228436142206192,-0.12059260543165362,0.0026962049305438995,0.0686781538313992,0.9847653584199292,0.11307363403193536,right,0.00454479455947876,-0.2248106596284044,-2.188054087536782,-9.306111046379804,-0.10477502761307794,-0.035543374717235565,-0.0024064481258392334,2.1861163974724707,0.002216517925262451
1746232835508478500,8.846478515625,-0.23099996229174707,0.001988619565963745,-0.12066925310890086,0.006135142408311367,0.06885999297594372,0.9846741045532947,0.11328745994633188,right,0.004927456378936768,-0.2261563191502308,-2.188069577366859,-9.303076208728552,-0.10542311258934775,-0.019721975550055504,0.0002631545066833496,2.198978801655024,0.0030340850353240967
1746232835548478500,8.886478515625,-0.23070276427387645,-0.0026625245809555054,-0.1205296199060191,0.018456503748893738,0.06877383622545065,0.984646312789454,0.1130443845357973,right,0.003434896469116211,-0.22706867902777347,-2.1848449162319303,-9.301769217783212,-0.1058978478092912,-0.02510877139866352,0.00011005997657775879,2.2076972379006445,0.003883257508277893
1746232835588478200,8.926478271484376,-0.23010718535035082,-0.003656132612377405,-0.1202385809430275,0.01066829264163971,0.06858425932157033,0.9846239784724833,0.11258798727210578,right,-0.0023362040519714355,-0.22830865202965142,-2.1786785025566817,-9.30039617586434,-0.10655714572907583,-0.03343595564365387,-0.0027128756046295166,2.2195433046475053,0.0018919557332992554
1746232835628478200,8.966478271484375,-0.23003836932940117,0.0097089484333992,-0.12022073716051933,-0.0038660215213894844,0.06852258831148081,0.9845504514103143,0.11231136500870395,right,-0.001857161521911621,-0.22976362200598566,-2.177299907679856,-9.29739231787324,-0.10729348170956025,-0.035524461418390274,-0.002515852451324463,2.233439143531024,-0.0011960119009017944
1746232835668478500,9.006478515625,-0.23018697976044533,0.029981538653373718,-0.12035626543763997,-0.009932072833180428,0.06884957048865675,0.9844176056709472,0.1127630947866702,right,0.00018227100372314453,-0.2315623586709171,-2.1777613877117634,-9.293141674691437,-0.10814795734048865,-0.04397992417216301,-0.0010677129030227661,2.2506115198671814,0.0004323124885559082
1746232835708478500,9.046478515625,-0.2304485997824622,0.03404226899147034,-0.12057843831902901,-0.014882422052323818,0.06942376949917083,0.9842449764550182,0.11367580901002153,right,-0.0011597275733947754,-0.23362494091830383,-2.1791277076289055,-9.288032953375577,-0.10910062375176877,-0.041475433856248856,-0.0043744295835494995,2.270293833197653,0.001591995358467102
1746232835748478500,9.086478515625,-0.23111271332897348,0.03554825857281685,-0.12100062098098655,-0.02231314592063427,0.07008670827168333,0.9840649362192546,0.11476752096634639,right,0.0016511082649230957,-0.23528745884845562,-2.184427859863639,-9.282896759530901,-0.1098308939472708,-0.021567370742559433,-0.006445452570915222,2.2861516198039054,0.00035059452056884766
1746232835788478500,9.126478515625,-0.23156064096643592,0.04009141027927399,-0.1213162877316906,-0.01587841473519802,0.07082895205397222,0.9839308816848811,0.11612087150691462,right,0.0025881528854370117,-0.2362487566200661,-2.188080391021818,-9.279774243596195,-0.11020683990840308,-0.008727265521883965,-0.006632387638092041,2.2953177998170253,0.00008568167686462402
1746232835828478500,9.166478515625,-0.23161603353886884,0.03280682861804962,-0.12143273785524704,-0.003264450468122959,0.07153660731448372,0.9838394533381806,0.11748319471908965,right,0.0006304383277893066,-0.23688781091850844,-2.188257208893448,-9.278222922500968,-0.11043708391859408,-0.006303329020738602,-0.0037861019372940063,2.301410271473229,0.0018800944089889526
1746232835868478200,9.206478271484375,-0.23142888495262415,0.02200997620820999,-0.12140858545737356,0.005904632620513439,0.07206354990846323,0.983784556771959,0.11852458145244112,right,0.0012859702110290527,-0.23735299053971257,-2.1862749490350484,-9.277589300772547,-0.1106097809007054,-0.005665160249918699,-0.0021488219499588013,2.3058444545283914,-0.00046712160110473633
1746232835908478500,9.246478515625,-0.2310409425284063,0.006803600117564201,-0.12125629495297917,0.008818179368972778,0.07231590177814956,0.9837606297932956,0.11902993705940336,right,-0.0008043050765991211,-0.23782342036007295,-2.1824270414352416,-9.27738004193604,-0.11082490361165445,-0.012412618845701218,-0.0014081597328186035,2.310328321944177,0.0009962916374206543
1746232835948478500,9.286478515625,-0.2306841372818633,0.008366679772734642,-0.12110580767443406,0.010121680796146393,0.07236761387522127,0.9837168918161571,0.11906323454305483,right,-0.0020487308502197266,-0.23885311721857466,-2.1785715350508688,-9.275837488669156,-0.11134310323932375,-0.03339039534330368,-0.002736389636993408,2.320140690906346,-0.0017339438199996948
1746232835988478500,9.326478515625,-0.23005226984352534,0.0348975770175457,-0.1208605381824485,0.01529233530163765,0.0726448018821161,0.9836250359924159,0.11950079657970221,right,-0.0014632940292358398,-0.24067481852980915,-2.171742711944133,-9.273081467959285,-0.11223701173535983,-0.0461881160736084,-0.003971308469772339,2.3374944151587784,-0.003911256790161133
1746232836028478500,9.366478515625,-0.22894830850304637,0.05612391605973244,-0.12046339763946613,0.01140938326716423,0.07347441020701558,0.9834706236272408,0.12103253769977586,right,-0.006260931491851807,-0.24328435475208024,-2.160112479905039,-9.269501271384954,-0.11347039636505599,-0.06014545261859894,-0.006883084774017334,2.362339664210379,-0.001891300082206726
1746232836068478500,9.406478515625,-0.22829652493802075,0.050857383757829666,-0.12029851766115995,0.010503115132451057,0.07441486584888626,0.9832871192385185,0.12275351837618347,right,0.0016399621963500977,-0.2457730669062003,-2.1527330371782183,-9.265151844003796,-0.1146166937292548,-0.036506496369838715,-0.004119887948036194,2.386019522744417,-0.0057787299156188965
1746232836108478200,9.446478271484375,-0.22745769881681885,0.033061861991882324,-0.12001192230830153,0.016199080273509026,0.07521521794795585,0.9831801741521764,0.12431559878164676,right,0.000811159610748291,-0.24730767590443822,-2.1441322359628976,-9.263376066502929,-0.11530999081108494,-0.023245854303240776,-0.0026890039443969727,2.4006138652861115,-0.0025531798601150513
1746232836148478500,9.486478515625,-0.2266123873125594,-0.006726022809743881,-0.11963888462169868,0.023390866816043854,0.07541761808910047,0.9831665779361589,0.12474791762330642,right,0.0019073486328125,-0.24804774915006386,-2.1359012909732757,-9.263451469826698,-0.1156803814230553,-0.008693618699908257,0.00009034574031829834,2.407650047533214,-0.0015035420656204224
1746232836188478500,9.526478515625,-0.22569018588678794,-0.034213773906230927,-0.11913197246523609,0.025256769731640816,0.07495332724791558,0.9832711083197598,0.12394340483471128,right,-0.0014405250549316406,-0.24775080763831575,-2.127517493509501,-9.26611338251233,-0.11561683625341893,0.010512718930840492,-0.0020896345376968384,2.4048270990669725,-0.0030854791402816772
1746232836228478500,9.566478515625,-0.2251120901073433,-0.040323406457901,-0.11873237219639778,0.023087816312909126,0.07411944289944647,0.983441137344335,0.12244581711206351,right,-0.002051830291748047,-0.24651437817489505,-2.1228226136915382,-9.270233092790841,-0.11511845382797116,0.03629563748836517,-0.0008285343647003174,2.393070171908289,-0.0057038068771362305
1746232836268478500,9.606478515625,-0.22477957045297758,-0.02060731314122677,-0.1184742220249643,0.009119081310927868,0.07352936922974676,0.9836022672073853,0.12145718153212684,right,-0.0015819072723388672,-0.24487947682314506,-2.1206091754257677,-9.274740341082214,-0.11438400299884265,0.02567974105477333,0.0006719380617141724,2.377518820902705,0.0022361278533935547
1746232836308478500,9.646478515625,-0.22477283265602344,-0.003888193517923355,-0.1184298581608969,-0.0001158490777015686,0.07322953776452712,0.9836470776267726,0.12088710981107043,right,-0.0035204291343688965,-0.24451176646562559,-2.120741277372837,-9.27560601800084,-0.11423686395938482,-0.009080886840820312,0.0013212859630584717,2.374020165131986,0.003917768597602844
1746232836348478200,9.686478271484376,-0.22507762589091004,0.022042201831936836,-0.11860357004097866,-0.024940762668848038,0.0733428711824667,0.983576956983129,0.12100310519963486,right,-0.0028763413429260254,-0.2452600495398312,-2.1231712809987364,-9.273225260344146,-0.11458744840969602,-0.013106334023177624,-0.0022727400064468384,2.381139495617896,-0.002589598298072815
1746232836388478500,9.726478515625,-0.2259110284639481,0.048773616552352905,-0.11911671052853877,-0.030292389914393425,0.07414894507047677,0.9834180600299814,0.12245288393210474,right,0.0012485384941101074,-0.24613144387246944,-2.1304333809562026,-9.269426452583074,-0.11489979570402427,-0.013127369806170464,-0.0009682178497314453,2.3894283082745966,0.00438043475151062
1746232836428478500,9.766478515625,-0.2266765163075043,0.04891231283545494,-0.1196342562349763,-0.033712029457092285,0.0752307297393549,0.9832249196306405,0.12444321954813041,right,0.00407940149307251,-0.24726593318011772,-2.1369177745394405,-9.265145998784899,-0.1153111649433111,-0.009227238595485687,0.000668257474899292,2.4002169749230147,0.004264086484909058
1746232836468478500,9.806478515625,-0.22725579075153216,0.02985706366598606,-0.12002531678579713,-0.02550032176077366,0.07613885170474367,0.9831102006113434,0.12620039392139415,right,0.0037075281143188477,-0.24747516984203474,-2.1421713111534713,-9.263416983035206,-0.11528700152225267,0.018016669899225235,0.0015525966882705688,2.402206395174563,0.0065551698207855225
1746232836508478500,9.846478515625,-0.22820320083713067,-0.012472564354538918,-0.12050901199964699,-0.028603482991456985,0.07646593363269714,0.9830787358923042,0.126837064750591,right,0.0015979409217834473,-0.24670446738580679,-2.151364671434462,-9.26318375880122,-0.11483305589323126,0.028409291058778763,0.0030541718006134033,2.3948779519826173,0.008719295263290405
1746232836548478500,9.886478515625,-0.22927720982506752,-0.031793102622032166,-0.12096328553896507,-0.015469933860003948,0.0761802796489202,0.983151796411125,0.12632834377695135,right,0.0035889148712158203,-0.24486239977595517,-2.162311158993095,-9.265148336872459,-0.11391567322457266,0.05918753892183304,0.0042110830545425415,2.3773563238173723,0.003462657332420349
1746232836588478200,9.926478271484376,-0.23030555702195918,-0.02915717102587223,-0.12136538843493101,-0.017984777688980103,0.07579682166072518,0.983297967137984,0.12574482939882126,right,0.0011386871337890625,-0.24194104469928163,-2.1734140061572194,-9.269642141160368,-0.11247321456271377,0.07523263990879059,0.00441393256187439,2.3495520788297055,0.006293103098869324
1746232836628478200,9.966478271484375,-0.2312028735614442,-0.02173013985157013,-0.1217034227573843,-0.02156633697450161,0.07538147728829114,0.9834442792509928,0.12510149542732416,right,-0.0016525983810424805,-0.23914212222869446,-2.1832292977288366,-9.274052943339944,-0.11109977800298525,0.0628681480884552,0.0015163570642471313,2.3228942273981867,0.0019200444221496582
1746232836668478500,10.006478515625,-0.2323845510557387,-0.01665511727333069,-0.12221570143179701,-0.03300008922815323,0.07519057464821337,0.983522097109225,0.1248239596746553,right,-0.0017955303192138672,-0.23690889080968844,-2.1953759548574685,-9.276491568663715,-0.10997213323518919,0.041362959891557693,-0.0003012418746948242,2.3016112008728085,0.0008936077356338501
1746232836708478500,10.046478515625,-0.23366356304728478,-0.007738235406577587,-0.12280073821726746,-0.02869075909256935,0.07511907946494417,0.9835455705634265,0.12470881069796855,right,-0.00018346309661865234,-0.23533473496342908,-2.208074985171854,-9.277188903278113,-0.10915566935352339,0.03516750410199165,0.000056877732276916504,2.286602432311326,-0.0018277168273925781
1746232836748478500,10.086478515625,-0.2344879565681336,0.0014903182163834572,-0.12318889464734742,-0.02025032602250576,0.07521116934164992,0.9835633662441118,0.12494314827054777,right,-0.00011056661605834961,-0.2340810124387028,-2.2163865941822527,-9.278146350133419,-0.10849265254524021,0.02638735994696617,-0.0013447701930999756,2.274644721883535,-0.004283979535102844
1746232836788478500,10.126478515625,-0.23486426172634486,0.014129973948001862,-0.12338346220749903,-0.005003748461604118,0.07547241852249263,0.9835755865623107,0.12553703500359134,right,0.003207266330718994,-0.23314026615673078,-2.220374933166057,-9.279389043670893,-0.10797841689541238,0.026906196027994156,-0.0016723573207855225,2.2656696805283425,-0.011843845248222351
1746232836828478500,10.166478515625,-0.2344653238843285,0.03476510941982269,-0.12322580469777204,0.009380017407238483,0.07602518572078679,0.9836312452862482,0.12685084188045115,right,0.002312958240509033,-0.23181834750735067,-2.217366691260785,-9.28317908360362,-0.10726127355484566,0.049884192645549774,-0.0000931471586227417,2.2530548213660717,-0.019095972180366516
1746232836868478200,10.206478271484375,-0.23314017993888564,0.042980071157217026,-0.12265065356823508,0.029612097889184952,0.07692623488763548,0.9837237084780073,0.12899507940242894,right,0.0004277825355529785,-0.2302897419934789,-2.2058562862090767,-9.289449249914288,-0.10642699684296868,0.03615593537688255,0.0030183643102645874,2.2384626707814634,-0.007318168878555298
1746232836908478500,10.246478515625,-0.23138316927041547,0.00836256518959999,-0.12185272823632214,0.03426666185259819,0.07748714166405007,0.9837926173384695,0.13035018651401434,right,-0.007674515247344971,-0.23006279079529912,-2.1896477864690125,-9.293805107036233,-0.1063001579077049,-0.021564118564128876,-0.0006683170795440674,2.236295848136395,0.006289541721343994
1746232836948478500,10.286478515625,-0.23089522633679174,0.0036580776795744896,-0.1216349711760427,0.008906261995434761,0.07734999492202953,0.9837322459041071,0.12993468089857568,right,-0.0048673152923583984,-0.23180862473744038,-2.184215824548155,-9.291057269632816,-0.1072045868703137,-0.053828559815883636,-0.0064292848110198975,2.252962028516084,-0.000921294093132019
1746232836988478500,10.326478515625,-0.2313101073605082,0.03872152045369148,-0.12192925297513864,-0.024296047165989876,0.07768080340938617,0.9835173046714109,0.13024815804264228,right,-0.003629326820373535,-0.23469822990326286,-2.1865686712846157,-9.28377471140921,-0.10859309413930358,-0.07774421572685242,-0.00894235074520111,2.2805320263564584,0.002807021141052246
1746232837028478500,10.366478515625,-0.23211099207956828,0.0518435463309288,-0.12248051932637674,-0.021016420796513557,0.07845711788407202,0.9831839794161481,0.13131395816314714,right,0.0016354918479919434,-0.2385986324068356,-2.1919404274508354,-9.27329364940524,-0.11041791738265316,-0.09392272680997849,-0.008317887783050537,2.317715801846981,0.005680948495864868
1746232837068478500,10.406478515625,-0.23234701138889288,0.064780093729496,-0.12278745644410012,-0.006358726881444454,0.07941976965978914,0.9828415939094322,0.1327818814427641,right,0.0059198737144470215,-0.24286474344116354,-2.1918322909012438,-9.263069777032733,-0.11241932559851556,-0.09455934166908264,-0.010614931583404541,2.3583456261381506,0.004191860556602478
1746232837108478200,10.446478271484375,-0.23203135149815443,0.06812358647584915,-0.12284628723278808,0.004556087777018547,0.08056582987175177,0.9825239162938143,0.1347128717416762,right,0.006077945232391357,-0.2469017024310339,-2.1867010654926298,-9.25442060663104,-0.11430071457142091,-0.07409058511257172,-0.008855879306793213,2.396753536596149,0.0005288422107696533
1746232837148478500,10.486478515625,-0.2311799553082481,0.05709291994571686,-0.12261841434216315,0.009993720799684525,0.08163422737808247,0.9823031846627894,0.1366671414620334,right,0.003921926021575928,-0.2498701020679878,-2.1771813958667217,-9.249312469837069,-0.11567629117044559,-0.05210772901773453,-0.004569932818412781,2.424970307907462,-0.0014731884002685547
1746232837188478500,10.526478515625,-0.2304445035902367,0.05021301284432411,-0.12242114899722495,0.005131882149726152,0.08263733126438277,0.982139704934651,0.13858528445923032,right,0.0017105340957641602,-0.2518388512763981,-2.169283774484694,-9.246245483481884,-0.11655781279080077,-0.030193280428647995,0.0045573413372039795,2.4436728164203463,-0.006372496485710144
1746232837228478500,10.566478515625,-0.23048471622987107,0.032517142593860626,-0.12256266628341385,-0.022680087015032768,0.08342810892366673,0.9819873631012134,0.14004726328193287,right,-0.006906688213348389,-0.2531814733817673,-2.1689039813868702,-9.242955794286727,-0.11712723439698323,-0.025490574538707733,0.011902719736099243,2.456421969486773,-0.008371368050575256
1746232837268478500,10.606478515625,-0.2323053647868337,0.013209393247961998,-0.12353062711951598,-0.07283882051706314,0.0838705162142457,0.9817456151587636,0.1405561825102071,right,-0.013134658336639404,-0.25480607488278306,-2.1848069223091007,-9.235095728436113,-0.11781901093973496,-0.051602140069007874,0.010766640305519104,2.4718425337195393,-0.007879406213760376
1746232837308478500,10.646478515625,-0.23607899801566992,0.018480705097317696,-0.12544847767154407,-0.11184683442115784,0.0841844663922749,0.9813363655525806,0.14045216684217848,right,-0.00987321138381958,-0.25746084514983786,-2.218098512666672,-9.220372791078686,-0.1189726040337175,-0.07975074648857117,0.0034627318382263184,2.497027828380465,-0.008665144443511963
1746232837348478200,10.686478271484376,-0.24043822635180304,0.053762130439281464,-0.12771639541575144,-0.11291556060314178,0.08494295343201405,0.9808027498527997,0.1410921262397029,right,0.000750124454498291,-0.26084543428721085,-2.2562455802313983,-9.202354903829097,-0.12041170537127216,-0.07634073495864868,-0.0066160112619400024,2.529110773600638,-0.0052592456340789795
1746232837388478500,10.726478515625,-0.24327317239466606,0.09169188141822815,-0.12932610334719583,-0.05661100894212723,0.0864063064879325,0.9803168620162843,0.14339331782022954,right,0.012060046195983887,-0.26381808170837673,-2.2805036770448086,-9.188584152629971,-0.12160315322173461,-0.04103510081768036,-0.01714712381362915,2.557265147200227,0.000470966100692749
1746232837428478500,10.766478515625,-0.243275623174805,0.10604503750801086,-0.1296171037515486,0.005502786487340927,0.08842163038084667,0.9800155963401681,0.14729402685566345,right,0.01297062635421753,-0.2656923868309968,-2.2793675126217305,-9.183910900121926,-0.12227127418784213,-0.012793391942977905,-0.018848657608032227,2.5750053865522147,0.00839853286743164
1746232837468478500,10.806478515625,-0.2412526999600383,0.08073923736810684,-0.1288947219347673,0.046296048909425735,0.09027285465333802,0.9799005165376713,0.1512120179580685,right,0.008076608180999756,-0.266702039228144,-2.260162315283716,-9.185973677870631,-0.12260434617169388,-0.0008622203022241592,-0.010655239224433899,2.5845579355344173,0.014099687337875366
1746232837508478500,10.846478515625,-0.23795986371136657,0.044854290783405304,-0.12746288942069625,0.07965041697025299,0.0914486987992906,0.9799579367745417,0.1539804465773489,right,0.002386033535003662,-0.2670984109357263,-2.2296605017751454,-9.192370100909471,-0.122771198073874,0.0025924656074494123,-0.0040929317474365234,2.588307351195812,0.014000236988067627
1746232837548478500,10.886478515625,-0.2351183952627748,0.023690681904554367,-0.12614462955096062,0.052386507391929626,0.09187391443065926,0.9800849125025797,0.15520902406773746,right,0.0015027523040771484,-0.26705419010277803,-2.203558384530246,-9.198779383429885,-0.12280180663786955,0.017646795138716698,-0.000927850604057312,2.5878891257837413,0.009354054927825928
1746232837588478200,10.926478271484376,-0.23274678910474528,0.005379682406783104,-0.12498547385328497,0.04898464307188988,0.09190596932585332,0.9802692426631048,0.1556567110809529,right,0.001020669937133789,-0.26625601470951776,-2.182212083510309,-9.20598653832972,-0.12249053571895006,0.03070862405002117,-0.001745462417602539,2.58033827201277,0.00809207558631897
1746232837628478200,10.966478271484375,-0.23085933040873943,-0.006465752609074116,-0.12404984406474841,0.03704184293746948,0.09189697037350719,0.9804406994792972,0.15597780574858627,right,-0.0013301968574523926,-0.2652757906166163,-2.1654100017912685,-9.212546627497673,-0.12207561970805961,0.025067266076803207,-0.0048654526472091675,2.5710630786672235,0.009258627891540527
1746232837668478500,11.006478515625,-0.22990946982886162,-0.015126730315387249,-0.12353944001478118,0.011548234149813652,0.0917862278880515,0.9806059346343422,0.15603472497406018,right,-0.0013593435287475586,-0.2637117710115726,-2.157572001641989,-9.218503490075468,-0.12134708971226257,0.04392928630113602,-0.010007068514823914,2.5562586005061863,0.003233581781387329
1746232837708478500,11.046478515625,-0.22971001349995385,-0.011550715193152428,-0.12337690603278825,0.013883408159017563,0.0916610641963551,0.9807622892297136,0.15602184745051384,right,0.00464707612991333,-0.26164172975386085,-2.1569335576079784,-9.224066384899615,-0.12033957743513368,0.06093971058726311,-0.0073323845863342285,2.5366549053698777,-0.001087278127670288
1746232837748478500,11.086478515625,-0.2293697966553358,-0.012288475409150124,-0.12314961291445162,0.021115392446517944,0.09161430882328414,0.9809338216735963,0.15621173298748153,right,0.005410373210906982,-0.25932434718159236,-2.155126069794595,-9.230499632817507,-0.11920427792616169,0.05297261103987694,-0.005407348275184631,2.514695879279077,0.0030654072761535645
1746232837788478500,11.126478515625,-0.22862287177864216,-0.03096972592175007,-0.12269956038800788,0.025470156222581863,0.09116426190739764,0.9811059332472168,0.15553105484064897,right,0.002431929111480713,-0.25793043178538555,-2.14902322287485,-9.235511908021568,-0.11859492190483549,0.01768440008163452,-0.00351521372795105,2.501480716136098,0.009011536836624146
1746232837828478500,11.166478515625,-0.22750987623095315,-0.02783602476119995,-0.12204967993324636,0.04309071972966194,0.09039153523822978,0.9812869583278947,0.15416896801659705,right,0.003963887691497803,-0.25717920419571877,-2.1391661379881204,-9.23972572632432,-0.11835937799397082,0.014705279842019081,-0.0032749921083450317,2.494356563344598,-0.0003956258296966553
1746232837868478200,11.206478271484375,-0.22609878665327252,-0.01802966184914112,-0.12129186419278917,0.04793092608451843,0.08979279683631762,0.9814285607299205,0.1531329027675968,right,0.0034200549125671387,-0.2570453994690071,-2.1262007118225097,-9.243060423704982,-0.11842016599744587,-0.00896080955862999,-0.002947106957435608,2.493087566322088,0.001883774995803833
1746232837908478500,11.246478515625,-0.2242305651333638,0.016871536150574684,-0.12038686732353279,0.05060901492834091,0.08955904061238414,0.981483337719823,0.15276942867563276,right,0.003254532814025879,-0.2581413230219848,-2.108320187216997,-9.244346956384181,-0.1190649032922715,-0.03700992837548256,-0.005190491676330566,2.5034803655207156,0.0007292330265045166
1746232837948478500,11.286478515625,-0.222030078873162,0.049137696623802185,-0.11943004431730173,0.03972094878554344,0.09006436172611339,0.9814387225976497,0.1538773680783118,right,0.0007031559944152832,-0.25999957629973497,-2.086944952363521,-9.244410084748267,-0.12001124246668676,-0.03278333693742752,-0.010919168591499329,2.5210955171883103,-0.001345813274383545
1746232837988478500,11.326478515625,-0.21968690971170912,0.05917870253324509,-0.11845880823412487,0.06076314300298691,0.09105846951997908,0.9813722368904846,0.15603167533024268,right,0.007785618305206299,-0.2615768408069954,-2.064408857037127,-9.245382729172706,-0.12076494032521479,-0.024115510284900665,-0.0015558600425720215,2.5360402806028723,0.0055616796016693115
1746232838028478500,11.366478515625,-0.21604906418301412,0.050111185759305954,-0.11684454268817066,0.09261427819728851,0.09188709848361018,0.9813843961986587,0.1580096400994879,right,0.0033659934997558594,-0.2631912334351621,-2.02988173353523,-9.248820302405953,-0.1216089243623541,-0.028103027492761612,0.0032555311918258667,2.551330204193294,0.0035820305347442627
1746232838068478500,11.406478515625,-0.21185544327625305,0.04267850145697594,-0.11493469334226825,0.09190066903829575,0.09251835329819032,0.9814505382261588,0.1596777927759448,right,-0.0015106797218322754,-0.26463163696575015,-1.9903030257321892,-9.253649037736654,-0.12241401858659531,-0.017179228365421295,0.0023487359285354614,2.564966515357792,-0.0011854469776153564
1746232838108478200,11.446478271484375,-0.20792346268688872,0.04325798153877258,-0.11313000483245951,0.07575371861457825,0.09317032890832785,0.9815576094269755,0.1614499951619362,right,-0.0038260817527770996,-0.26513171675801783,-1.9536375750273465,-9.2601471675843,-0.12274147890003843,0.011607512831687927,0.0012480616569519043,2.569699681359529,-0.0029603242874145508
1746232838148478500,11.486478515625,-0.20500929756793382,0.033913061022758484,-0.11180305137883834,0.04686550050973892,0.09388100844423072,0.9816553800069704,0.16328869018378384,right,-0.005141139030456543,-0.26484675556397497,-1.926792676591128,-9.266517871659994,-0.12263417921464925,0.01824077032506466,0.001401856541633606,2.5670026973605156,0.001639038324356079
1746232838188478500,11.526478515625,-0.20316318526616317,0.025854753330349922,-0.11097222990625741,0.03186777979135513,0.09442551046238197,0.9817108371492385,0.16465070194203102,right,-0.0021781325340270996,-0.26460436491599576,-1.9098079317815602,-9.270667977076767,-0.12252600011800137,0.006617739796638489,0.0021690428256988525,2.5647084489434957,0.005048036575317383
1746232838228478500,11.566478515625,-0.20178437748611583,0.01571119949221611,-0.11035242718006874,0.02996574342250824,0.09472968296001026,0.9817302698317448,0.16541562475182142,right,0.00030308961868286133,-0.2649015986534602,-1.8968707087971268,-9.272545461386441,-0.12269510628416387,-0.003222319297492504,-0.0008362531661987305,2.567521752798557,0.007904917001724243
1746232838268478500,11.606478515625,-0.20073071758112798,0.030699387192726135,-0.10991286551703372,0.018971461802721024,0.09512155913450941,0.9816974588658921,0.16628161308359152,right,0.002835214138031006,-0.2656155689932787,-1.8867336379252373,-9.272740107175707,-0.12304866996113231,-0.022527825087308884,-0.013140261173248291,2.574278533582389,0.021112650632858276
1746232838308478500,11.646478515625,-0.1995492938892912,0.053301721811294556,-0.1094792976661043,0.03290826827287674,0.09587716592834039,0.9815862417615481,0.1678398849519843,right,0.012088000774383545,-0.26706826843039977,-1.875033993911743,-9.271287570279837,-0.12373423596353744,-0.015710968524217606,-0.023837357759475708,2.5880223967745897,0.018366336822509766
1746232838348478200,11.686478271484376,-0.1962438289190305,0.07786120474338531,-0.10803696096643593,0.0993056371808052,0.0970882238444107,0.9816234448457226,0.17071954763967204,right,0.022258460521697998,-0.2671200270311484,-1.8443517092697321,-9.27730346956849,-0.12376256303028645,0.05448322370648384,-0.018842563033103943,2.5885119338572022,0.008497178554534912
1746232838388478500,11.726478515625,-0.19018534389039735,0.07135087251663208,-0.1051848059959977,0.15865124762058258,0.09847976855073953,0.9819808527043736,0.1745872049827354,right,0.018660366535186768,-0.2639148924907625,-1.789671001663804,-9.296406229445338,-0.12227567048847,0.1455579698085785,-0.004852712154388428,2.558181677523255,0.002852916717529297
1746232838428478500,11.766478515625,-0.1825647855473605,0.04172229766845703,-0.10142091054334665,0.17999424040317535,0.09951471178335984,0.982630474354793,0.17814854345477607,right,0.008258819580078125,-0.2576081289316262,-1.72167093988806,-9.325455213797092,-0.11936460309407876,0.1959497183561325,0.006131038069725037,2.4984245434358714,0.0005234181880950928
1746232838468478500,11.806478515625,-0.17474409261827323,-0.00896470993757248,-0.09740134294173276,0.18447963893413544,0.09978187146871231,0.9834309112874007,0.18023178803746628,right,-0.0012497305870056152,-0.24988208851990662,-1.6519941770717501,-9.357364263755082,-0.11584542058697185,0.2035498470067978,0.01471419632434845,2.4250841435454786,0.0013069063425064087
1746232838508478500,11.846478515625,-0.16853526233594454,-0.06760667264461517,-0.09403134752333664,0.13557052612304688,0.09891735111234522,0.9842280136902134,0.179745776639706,right,-0.01169508695602417,-0.24253274004539774,-1.5968109267711639,-9.384757882115244,-0.11255488629712522,0.1605328917503357,0.01683679223060608,2.3551852624110876,-0.0026384443044662476
1746232838548478500,11.886478515625,-0.16456000405176716,-0.08742211014032364,-0.09171303069064311,0.08788463473320007,0.0973082217333038,0.9848971213265846,0.17735016814283058,right,-0.015647292137145996,-0.23670728197831595,-1.5617125792525708,-9.404406585437059,-0.10998820740962086,0.1040615513920784,0.015081807971000671,2.299689292899519,-0.005175173282623291
1746232838588478200,11.926478271484376,-0.16252029707438767,-0.08179384469985962,-0.09040572471225798,0.04772193357348442,0.09552442448654086,0.9853501322963627,0.17419626206445218,right,-0.013533174991607666,-0.23333772032957528,-1.5437721411533654,-9.41516587986052,-0.10856758277380113,0.03272473067045212,0.009354636073112488,2.2675535945788026,-0.0020191818475723267
1746232838628478200,11.966478271484375,-0.16187946346696078,-0.05501279979944229,-0.08990220900822299,0.018009189516305923,0.09400175546824577,0.9855627059729816,0.1712265263332261,right,-0.006242096424102783,-0.23263553294911954,-1.5379945806652306,-9.417722578606009,-0.10838525363801434,-0.015411462634801865,0.0032598674297332764,2.260853658548742,-0.004446044564247131
1746232838668478500,12.006478515625,-0.16150147991434305,-0.03695166856050491,-0.0896252363799827,0.02027946710586548,0.09298894395122989,0.9856416943290168,0.16917349509770493,right,0.001682579517364502,-0.23319035171892907,-1.5342327439136803,-9.417063822436333,-0.10876892960986062,-0.021492375060915947,0.001665756106376648,2.266147673303634,-0.0005336254835128784
1746232838708478500,12.046478515625,-0.15983428804987015,-0.06936106085777283,-0.08868359539390959,0.07115574181079865,0.09177094417113832,0.9858136031489234,0.1668765930516075,right,0.005981028079986572,-0.23332897615040402,-1.518480609638989,-9.419298449620603,-0.10901676101549655,-0.010308598168194294,-0.0060081928968429565,2.267470300209522,0.011780455708503723
1746232838748478500,12.086478515625,-0.15702154034114774,-0.09343905746936798,-0.08708973408309595,0.0972338318824768,0.08989031739980499,0.9861252012820283,0.16340770659053835,right,0.00254058837890625,-0.23282940392355472,-1.4921573969893156,-9.424649747520684,-0.10905027824087103,0.007952523417770863,-0.011706098914146423,2.2627035241991282,0.00907185673713684
1746232838788478500,12.126478515625,-0.15408817523380255,-0.08084142208099365,-0.08539800388998994,0.0859740749001503,0.08790894528964988,0.9864958595011178,0.1598088483238425,right,-0.0028764009475708008,-0.23144117007208231,-1.4649858969472347,-9.43208077430427,-0.1086502321315248,0.036621853709220886,-0.015002086758613586,2.249454751047492,0.001361846923828125
1746232838828478500,12.166478515625,-0.15206895204055454,-0.047634612768888474,-0.0841986681804708,0.04826624318957329,0.08650774936821318,0.9868083914376321,0.1573231908377611,right,-0.006165444850921631,-0.22947080692012553,-1.4466060445174573,-9.439382621750235,-0.10787026204779931,0.045388806611299515,-0.00987902283668518,2.230642936941236,-0.0022455453872680664
1746232838868478200,12.206478271484375,-0.15125304770226874,-0.01751021295785904,-0.08368061219023909,0.014640428125858307,0.08588360834717602,0.9869892961568963,0.15626055522123602,right,-0.007677853107452393,-0.22777898129145513,-1.4394704935491085,-9.44427740805447,-0.10711405215454615,0.0290206428617239,-0.0023390650749206543,2.214483537039906,-0.001994088292121887
1746232838908478500,12.246478515625,-0.15123626343846971,-0.00012047216296195984,-0.08362966488388902,-0.0038372743874788284,0.0857357579909365,0.9870517999084883,0.15602089060582325,right,-0.005325496196746826,-0.22691015118020313,-1.4396012803219258,-9.446199900549649,-0.1066954402458308,0.014645889401435852,-0.00015078485012054443,2.2061824494235216,-0.0026499927043914795
1746232838948478500,12.286478515625,-0.15180362776441492,0.0036305980756878853,-0.08390636186591609,-0.014742515049874783,0.08578302473790818,0.9870360839718809,0.1560665868929995,right,-0.0033260583877563477,-0.22674317022972915,-1.4450161449775099,-9.445745727041363,-0.10658666625979651,-0.0030375346541404724,0.0011343508958816528,2.20458685079515,0.00009877979755401611
1746232838988478500,12.326478515625,-0.1523398616064953,-0.020302582532167435,-0.08416232306593716,-0.003607548773288727,0.0856303072654158,0.9870092446113876,0.15567522597500016,right,0.0007030963897705078,-0.22709895281868067,-1.4499619308166205,-9.444193236902356,-0.10675595289058491,-0.01069419551640749,-0.001631513237953186,2.2079865762360393,0.003905251622200012
1746232839028478500,12.366478515625,-0.15301263860633038,-0.09467355906963348,-0.08440231129220194,0.0016694702208042145,0.08471526122172082,0.9870426470550777,0.1537238439179015,right,0.004319727420806885,-0.22745931976699285,-1.456194103204459,-9.442428565317392,-0.10698762022201641,-0.022676292806863785,-0.0005209445953369141,2.211429556296766,0.02456718683242798
1746232839068478500,12.406478515625,-0.15325211414392853,-0.24511519074440002,-0.08415081133486683,0.06589607894420624,0.08125660788692768,0.9873103357845747,0.14667375156840906,right,0.012359976768493652,-0.22770768425254048,-1.4583714472435414,-9.441536584913731,-0.10739751679674765,-0.03896969184279442,0.007168963551521301,2.2138024229079485,0.03292855620384216
1746232839108478200,12.446478271484375,-0.15177392071008222,-0.3863067030906677,-0.08270265727815815,0.14613814651966095,0.07456721133543699,0.9878874680411842,0.1332810511819648,right,0.009200632572174072,-0.22781306423271133,-1.4443781393349169,-9.443451478624343,-0.10806586177889371,-0.06232692673802376,0.005254611372947693,2.214809115732461,0.02568553388118744
1746232839148478500,12.486478515625,-0.1482633931400844,-0.4057314395904541,-0.08002623415754166,0.19008363783359528,0.06585844071213344,0.9886536348610819,0.11606383111762111,right,-0.0030719637870788574,-0.22749180504667585,-1.411322841951251,-9.449166933661699,-0.10873062631523457,-0.03410717844963074,-0.00971493124961853,2.211739937420189,-0.009840786457061768
1746232839188478500,12.526478515625,-0.14471391105866205,-0.30517837405204773,-0.07744405084983604,0.14728772640228271,0.05831847403489716,0.9893089407830797,0.10127148755218861,right,-0.00819474458694458,-0.22652620866668752,-1.3780816666066646,-9.456226204523444,-0.10894524162416677,-0.018307844176888466,-0.005859255790710449,2.2025136977829036,-0.020483925938606262
1746232839228478500,12.566478515625,-0.14185691339884013,-0.1887769103050232,-0.0754658917842499,0.1035110354423523,0.053225064642127166,0.9897704607403298,0.09137893191396503,right,-0.009285509586334229,-0.2252045875652925,-1.351469992404431,-9.462997890615462,-0.10874866588572377,0.007013840600848198,0.0036945343017578125,2.189882179746777,-0.016267985105514526
1746232839268478500,12.606478515625,-0.14058264817482785,-0.11962112784385681,-0.07447186809289573,0.031393252313137054,0.05007824699726735,0.9900801765752941,0.08528072952488376,right,-0.010372459888458252,-0.2233815494716708,-1.3399677706591784,-9.468649632766843,-0.10810719093155376,0.03655871003866196,0.010213002562522888,2.1724520292572675,-0.009532526135444641
1746232839308478500,12.646478515625,-0.14186124392558072,-0.12877345085144043,-0.07480885700104263,-0.04623132944107056,0.047710435811113665,0.9902845940712108,0.08051745087614746,right,-0.010414361953735352,-0.2209888217433897,-1.352804309748113,-9.472047458511591,-0.10706830126475178,0.03579774871468544,0.012749195098876953,2.149564197883755,0.0015072077512741089
1746232839348478200,12.686478271484376,-0.14584280620764628,-0.17535048723220825,-0.07643144512133597,-0.10030049085617065,0.04491545204076919,0.9903927887165526,0.07459131052263462,right,-0.014551341533660889,-0.21882155530950392,-1.3911808021545409,-9.47117301376462,-0.10612634059317336,0.01617632992565632,0.007800072431564331,2.128822438628226,0.004694908857345581
1746232839388478500,12.726478515625,-0.15209456324449272,-0.20057301223278046,-0.07910745778189203,-0.1516505926847458,0.04147227767861927,0.9904072091227829,0.06709237626166539,right,-0.01602935791015625,-0.21709969765390952,-1.450917916367203,-9.465899457275867,-0.10542975490589601,0.007852951996028423,0.001834377646446228,2.112336290990561,0.00357036292552948
1746232839428478500,12.766478515625,-0.16055197937480187,-0.21436133980751038,-0.0828454439522427,-0.18292208015918732,0.03778811504634461,0.990314335344163,0.05887270698618575,right,-0.00685882568359375,-0.2155241765925829,-1.5314523194149137,-9.456564058175683,-0.10481437730500075,-0.00032725557684898376,0.0013054311275482178,2.0972456893645224,0.005387991666793823
1746232839468478500,12.806478515625,-0.1695601155707718,-0.21049551665782928,-0.08685051171083892,-0.187534362077713,0.034025379528049196,0.9901752770829845,0.05045740586236563,right,-0.005556821823120117,-0.2138344374272867,-1.6171707009717822,-9.44586438498497,-0.10417262380072789,0.015875620767474174,-0.003985509276390076,2.081055455933511,-0.002872869372367859
1746232839508478500,12.846478515625,-0.17893686779309798,-0.2520582675933838,-0.09101305062569413,-0.18989047408103943,0.02999110860970051,0.9900457889890831,0.04155576837004301,right,-0.0023209452629089355,-0.21113940306528473,-1.7066618790656327,-9.435770276471972,-0.103083601490664,0.04382328689098358,-0.0022483766078948975,2.055220611322671,-0.0014626234769821167
1746232839548478500,12.886478515625,-0.18836314194104292,-0.2770291864871979,-0.09514686586885308,-0.1836642473936081,0.02529441327417531,0.9899944876672604,0.03152134481926921,right,-0.0013197064399719238,-0.2064208087983907,-1.7973248774178325,-9.42868470212519,-0.10108371643817456,0.08758231997489929,-0.0026674866676330566,2.009951875184476,-0.004512891173362732
1746232839588478200,12.926478271484376,-0.19743949450880172,-0.3227632939815521,-0.09906346504214252,-0.1464535892009735,0.01985281755582852,0.9899748071648632,0.020158033247292845,right,0.004527151584625244,-0.20070307673366544,-1.885051237796247,-9.423099010947347,-0.09870198940093322,0.0975237563252449,0.0034165531396865845,1.9550377972140907,-0.007851764559745789
1746232839628478200,12.966478271484375,-0.20490918645954867,-0.3472753167152405,-0.10215923470121842,-0.10500430315732956,0.01361756295498281,0.9900598613644608,0.007551092807568164,right,0.006907343864440918,-0.19349483938238315,-1.9582023987248538,-9.4223081528306,-0.09570500203534042,0.14294041693210602,0.009567603468894958,1.8857178850114344,-0.01630544662475586
1746232839668478500,13.006478515625,-0.2107118591637885,-0.3769541084766388,-0.10448999025895041,-0.07543903589248657,0.007147446237294925,0.9902950246864745,-0.005020289541663144,right,0.0023400187492370605,-0.18346565187971955,-2.0166979884438216,-9.428807451722026,-0.09135887463814724,0.22119927406311035,0.009802281856536865,1.7891073764316736,-0.017180651426315308
1746232839708478500,13.046478515625,-0.2166633264161906,-0.48176759481430054,-0.10690514163284605,-0.1332544982433319,-0.0004773383725502007,0.9906012680920052,-0.019469787194679945,right,-0.01754617691040039,-0.16975495885963263,-2.0778553447179493,-9.43970878496468,-0.0853233790792292,0.29632091522216797,0.0007018595933914185,1.6567440019473432,-0.006004795432090759
1746232839748478500,13.086478515625,-0.2275093184933309,-0.6388412117958069,-0.11173370481542493,-0.2743740677833557,-0.010429669937550573,0.9906983777524003,-0.03830775518040119,right,-0.01809769868850708,-0.1507344708412167,-2.1868270299598573,-9.445612456050515,-0.07696338783601217,0.4131595492362976,-0.0006395429372787476,1.4726090853020548,0.007438629865646362
1746232839788478500,13.126478515625,-0.24545128349485104,-0.8427316546440125,-0.12010926632990461,-0.43923014402389526,-0.023779272263053514,0.9902309434089295,-0.06367361668830368,right,-0.01019144058227539,-0.12675346036464888,-2.3638418854668735,-9.436406820809841,-0.06671501374674844,0.4656658172607422,0.007428422570228577,1.2397012237899006,0.021380871534347534
1746232839828478500,13.166478515625,-0.2685857489400013,-0.9643639326095581,-0.13126273590654772,-0.52915358543396,-0.04038467598950535,0.988993287647156,-0.0949360335654816,right,0.0050185322761535645,-0.09846025659985065,-2.589769532702863,-9.409259870687126,-0.05505763046675482,0.4961836040019989,0.014097213745117188,0.9640060676917434,0.028005525469779968
