time,seconds_elapsed,roll,rotationRateZ,quaternionY,rotationRateY,quaternionZ,quaternionW,yaw,devicelocation,accelerationZ,pitch,gravityX,gravityZ,quaternionX,rotationRateX,accelerationX,gravityY,accelerationY
2025-04-30 01:04:31.589750500,0.54875048828125,0.0834803689064077,0.0027957805432379,0.038660689774759,0.0076717003248631,-1.9537682778602145e-18,0.9749052496635512,0.0187524499551184,left,0.0009336471557617,-0.4416944309180735,0.7392351892754435,-8.834618739023805,-0.2192376603853804,-0.0197793561965227,0.0016599223017692,4.192066781930625,-0.0011477768421173
2025-04-30 01:04:31.629750500,0.58875048828125,0.0836505120049626,-0.0146976895630359,0.0387565500685352,0.0060635092668235,-0.0001377413086693,0.9747931024241144,0.01855186351056,left,-0.0001894235610961,-0.4426898359145459,0.7403893277466297,-8.830330686441064,-0.2197188700588762,-0.0366913229227066,0.0046218410134315,4.20088926307261,0.0004633367061614
2025-04-30 01:04:31.669750800,0.628750732421875,0.0847257469669426,-0.032228022813797,0.0393619636714401,0.003199296304956,-0.0005432441521259,0.9749025677813328,0.0179092140340897,left,0.0070753693580627,-0.4414957462283453,0.7503074951708316,-8.834521123868226,-0.2191242052221288,-0.0351281017065048,0.0056369677186012,4.19030503295511,0.0050313472747802
2025-04-30 01:04:31.709750500,0.66875048828125,0.0866876580439926,-0.0204677917063236,0.0402960957337009,-0.0090770293027162,-0.0007285307046329,0.9747433578745948,0.0180199726625205,left,0.0083434581756591,-0.442595159514008,0.7672392676841467,-8.828437420040368,-0.2196615579129267,-0.0122574158012866,0.0013823434710502,4.20005047416091,0.0072874724864959
2025-04-30 01:04:31.749750500,0.70875048828125,0.0879830887594008,0.0008484181016683,0.0408646160744607,-0.0138891153037548,-0.0006738284512153,0.9745768446556258,0.0184831750970559,left,0.0049785375595092,-0.4438755812128768,0.7782020487904548,-8.822071976661682,-0.2202943907810783,0.0022778827697038,-0.0027261599898338,4.211393705952167,0.0098953247070312
2025-04-30 01:04:31.789750500,0.74875048828125,0.0879947007004984,0.007389894220978,0.0407569433943347,-0.0022762883454561,-0.000301753631002,0.97435957690898,0.0193406081675484,left,0.0006632804870605,-0.4458504364840283,0.7775720803238451,-8.813760659912228,-0.2212739273539391,0.00363410403952,-0.0030112788081169,4.228875294367969,0.0038393139839172
2025-04-30 01:04:31.829750500,0.78875048828125,0.0880081155749034,0.0139313703402876,0.040649188443941,0.0093365386128425,7.0282771614e-05,0.9741412486274048,0.0201987806318068,left,-0.0036556124687194,-0.4478253834556124,0.7769547521430998,-8.805413687327503,-0.2222532381764625,0.0049903253093361,-0.0032977163791656,4.246341392953694,-0.0022150874137878
2025-04-30 01:04:31.869750500,0.82875048828125,0.087748142323267,-0.0074354736134409,0.0405465890588405,0.0210412517189979,-6.34874749837e-05,0.9740489297998371,0.0199054960419893,left,-0.0012107491493225,-0.4487063793881272,0.7743374092515558,-8.801885513201356,-0.2226762803616122,0.0046142721548676,0.0004898384213447,4.254127516785264,-0.0044676959514617
2025-04-30 01:04:31.909750500,0.86875048828125,0.0876134702774251,-0.0182180348783731,0.0406199128308748,0.0076690260320901,-0.0005998970324071,0.9741493790707194,0.0187326679086584,left,0.004777193069458,-0.4478221742486459,0.7734808654874563,-8.805732836279272,-0.2222219512949814,0.0098320171236991,-0.001444362103939,4.246313043642044,-0.0044938027858734
2025-04-30 01:04:31.949750800,0.908750732421875,0.0876908985121283,-0.0058594634756445,0.040722103157509,0.0164984986186027,-0.0008311886362322,0.9742526944678652,0.018231839172546,left,-0.0043425559997558,-0.446872565482574,0.7745154692322015,-8.809685957819223,-0.2217492592751821,0.0106762247160077,0.0021962821483612,4.237916971218586,0.0039391219615936
2025-04-30 01:04:31.989750500,0.94875048828125,0.0883358449748138,0.0035839423071593,0.0410257640728146,-3.03382112178e-05,-0.0008207586820756,0.9743015672656554,0.0183740534651884,left,0.0087040066719055,-0.4463108514101808,0.7804069384235889,-8.81155467430055,-0.2214783228246936,-0.0048711588606238,-0.0011189952492713,4.232948827417195,0.0011449754238128
2025-04-30 01:04:32.029750500,0.98875048828125,0.0880139004500888,0.0068627279251813,0.0408477059143118,-0.0040663047693669,-0.0007234449561449,0.9742534344791428,0.0185235539542105,left,0.0042847990989685,-0.446807866643815,0.7773851063843816,-8.80970875417292,-0.2217235568553705,-0.0089888852089643,-0.0004742369055747,4.237344724288582,0.0024801790714263
2025-04-30 01:04:32.069750500,1.02875048828125,0.0876894764740805,0.0056739915162324,0.0406609503733937,-0.0103501472622156,-0.0005876062940774,0.974214478505106,0.0187475553623023,left,0.0026190280914306,-0.4472204327883581,0.7743737957391887,-8.80821822335422,-0.2219291686292218,-0.011717053130269,-0.0008124634623527,4.240993017663062,0.0012412369251251
2025-04-30 01:04:32.109750500,1.06875048828125,0.0873650581229905,0.0044852551072835,0.0404741930807659,-0.0166339892894029,-0.0004518446271562,0.9741754315222658,0.0189712872501053,left,0.0009529590606689,-0.4476330742840167,0.7713634349420666,-8.80672476992607,-0.2221347594025773,-0.0144452210515737,-0.0011507794260978,4.24464131103754,2.2649765014e-06
2025-04-30 01:04:32.149750500,1.10875048828125,0.0870149575845852,-0.0019852379336953,0.0402697164315811,-0.0003366917371749,-0.0003034248489408,0.9741144328737988,0.0192242749989627,left,-0.0011112689971923,-0.4482479435838374,0.7680531413502991,-8.804392527586222,-0.2224393669255543,-0.0061183022335171,0.0001849755644798,4.250076487828791,-0.0028548538684844
2025-04-30 01:04:32.189750800,1.148750732421875,0.0870149575845852,-0.0143726337701082,0.0402697164315811,-0.0045759459026157,-0.0003034248489408,0.9741144328737988,0.0192242749989627,left,0.0017158985137939,-0.4482479435838374,0.7680531413502991,-8.804392527586222,-0.2224393669255543,-0.000832418911159,-0.0024466142058372,4.250076487828791,-0.0062109231948852
2025-04-30 01:04:32.229750500,1.18875048828125,0.0864273743951966,-0.0086134215816855,0.0400785021060753,0.0040669809095561,-0.0006647226425726,0.9741071766886672,0.0183560500122819,left,-0.0027177929878234,-0.4484186950095595,0.7628170673277228,-8.804119555863737,-0.2225052014732568,-0.0077139749191701,-0.000623270869255,4.251585431087017,0.0018925368785858
2025-04-30 01:04:32.269750500,1.22875048828125,0.0864273743951966,-0.0013915672898292,0.0400785021060753,-0.0078209210187196,-0.0006647226425726,0.9741071766886672,0.0183560500122819,left,0.0016334056854248,-0.4484186950095595,0.7628170673277228,-8.804119555863737,-0.2225052014732568,-0.0107563585042953,-0.0038507506251335,4.251585431087017,-0.0005820095539093
2025-04-30 01:04:32.309750500,1.26875048828125,0.0858752211076168,0.0026229433715343,0.0398090656085284,-0.0094619672745466,-0.0006136587048091,0.9740958298692194,0.0183438565820215,left,0.0008564591407775,-0.448620380710088,0.7578821682088077,-8.80368467157781,-0.2226033490291589,-0.0100947115570306,-0.0041239336133003,4.253367638328672,0.0006752908229827
2025-04-30 01:04:32.349750500,1.30875048828125,0.0858752211076168,0.0066374535672366,0.0398090656085284,-0.0111030135303735,-0.0006136587048091,0.9740958298692194,0.0183438565820215,left,0.0001238584518432,-0.448620380710088,0.7578821682088077,-8.80368467157781,-0.2226033490291589,-0.009433064609766,-0.0049003064632415,4.253367638328672,0.0021143555641174
2025-04-30 01:04:32.389750500,1.34875048828125,0.084973372715809,0.0159075669944286,0.039295657632136,-0.0028635270427912,-0.0002238344787269,0.974051626247814,0.0189631463919417,left,-0.0035183429718017,-0.4491802710717319,0.7497400705464183,-8.801990142619609,-0.2228884293040693,-0.0121444575488567,-0.0014748126268386,4.258314154820144,-0.0031912922859191
2025-04-30 01:04:32.429750800,1.388750732421875,0.0850926521127057,0.0043952027335762,0.0393208423471976,0.0045219054445624,-0.0001050635968413,0.974028671412312,0.0192426498145936,left,-0.0024889707565307,-0.4493666019258463,0.7507225057125091,-8.80111043717563,-0.2229846285880725,-0.010549820959568,-0.0012929290533065,4.259960168461501,-0.0042410790920257
2025-04-30 01:04:32.469750500,1.42875048828125,0.0850926521127057,-0.0148925734683871,0.0393208423471976,0.007978587411344,-0.0001050635968413,0.974028671412312,0.0192426498145936,left,0.0004289150238037,-0.4493666019258463,0.7507225057125091,-8.80111043717563,-0.2229846285880725,-0.0273220520466566,0.0023193731904029,4.259960168461501,-0.000668466091156
2025-04-30 01:04:32.509750500,1.46875048828125,0.0848695498361841,-0.030629713088274,0.0393717479652145,0.004290503449738,-0.0008718778996946,0.973860287411314,0.0176859227644263,left,0.0029543042182922,-0.4509147671554077,0.7481989785842597,-8.794695309436321,-0.2237078574616694,-0.0119934407994151,0.0024799332022666,4.273630089634657,-0.0023647248744964
2025-04-30 01:04:32.549750500,1.50875048828125,0.0844280893264969,-0.0214972086250782,0.0392434031469616,-0.0080933729186654,-0.0012160169916459,0.973837968123242,0.016889879462714,left,0.0062500834465026,-0.4511889445552877,0.7442175807978958,-8.79385710504651,-0.2238259243770737,-0.0161649733781814,0.0001056864857673,4.27605001025796,0.0058336853981018
2025-04-30 01:04:32.589750500,1.54875048828125,0.0836945026420841,0.0070476923137903,0.0389019540548665,-0.0211031846702098,-0.0012478448281121,0.9737667559650722,0.016689391487409,left,0.0023769736289978,-0.4519536197165474,0.7374927295222878,-8.791139662781358,-0.2241947284989432,-0.0210540369153022,-0.0021723136305809,4.282797146430611,0.0065484642982482
2025-04-30 01:04:32.629750500,1.58875048828125,0.0832677875645705,0.0057409359142184,0.0386381182612763,-0.0128236515447497,-0.0010049730175959,0.97368432661121,0.0171254630794566,left,-0.0017571449279785,-0.4527672463211259,0.7334512721117585,-8.787977983880042,-0.2245994682104629,-0.0141640491783618,-0.0010248720645904,4.289973613931238,0.0029875338077545
2025-04-30 01:04:32.669750800,1.628750732421875,0.0832453199092306,-0.0036766054108738,0.0386043072436088,0.0084328092634677,-0.0009438237293802,0.9736088586499948,0.0172754871525806,left,-0.0027258992195129,-0.4534457412492569,0.733011638585478,-8.78509219931066,-0.2249326196458495,0.0045135854743421,-0.0003339052200317,4.295955903211236,-0.0020687282085418
2025-04-30 01:04:32.709750500,1.66875048828125,0.0832453199092306,-0.0103400284424424,0.0386043072436088,0.0133459400385618,-0.0009438237293802,0.9736088586499948,0.0172754871525806,left,0.0019337534904479,-0.4534457412492569,0.733011638585478,-8.78509219931066,-0.2249326196458495,0.0147304348647594,-0.0015243217349052,4.295955903211236,-0.0018373131752014
2025-04-30 01:04:32.749000200,1.708000244140625,0.083715196641953,-0.0042966147884726,0.0389691445907065,0.0170473773032426,-0.0015127340685267,0.973738443739954,0.0161608896855968,left,-0.0043979375623166,-0.452200226606012,0.7375863260898738,-8.7900717412889,-0.2243044681324063,0.0231078751385211,-0.0003268502186983,4.284972736904025,0.0030268032569438
2025-04-30 01:04:32.789000000,1.748,0.0838515049407053,-0.0044084480032324,0.0390416571588769,0.0030975546687841,-0.0015414367185273,0.9737610871623276,0.0161234301364299,left,-0.0014392137527465,-0.4519741445628072,0.7388656253106892,-8.790936249163746,-0.2241935642081632,0.0135606061667203,-0.0010599419474601,4.282978348216414,0.0008683800697326
2025-04-30 01:04:32.829000000,1.788,0.0838515049407053,-0.0045202816836535,0.0390416571588769,-0.0108522679656744,-0.0015414367185273,0.9737610871623276,0.0161234301364299,left,0.0014312863349914,-0.4519741445628072,0.7388656253106892,-8.790936249163746,-0.2241935642081632,0.0040133381262421,-0.0016625747084617,4.282978348216414,-0.0014934241771697
2025-04-30 01:04:32.869000000,1.828,0.0835812869271798,0.004999644588679,0.0389134225015382,-0.0028934571892023,-0.0015062149799966,0.9738032732113854,0.0161191180631506,left,-0.0009530186653137,-0.4516434134404796,0.736608347903192,-8.792546606969832,-0.2240326875970839,0.0042889630421996,-0.001111701130867,4.280060414943099,-0.0004705190658569
2025-04-30 01:04:32.909000000,1.868,0.0835812869271798,0.0047732382081449,0.0389134225015382,-0.0024493592791259,-0.0015062149799966,0.9738032732113854,0.0161191180631506,left,-0.0021027326583862,-0.4516434134404796,0.736608347903192,-8.792546606969832,-0.2240326875970839,0.0029586185701191,-0.0019468739628791,4.280060414943099,-0.0013393461704254
2025-04-30 01:04:32.949000000,1.908,0.0835812869271798,0.007525322958827,0.0389134225015382,0.0050337072461843,-0.0015062149799966,0.9738032732113854,0.0161191180631506,left,-0.0023514628410339,-0.4516434134404796,0.736608347903192,-8.792546606969832,-0.2240326875970839,-0.0112151037901639,-0.0015690997242927,4.280060414943099,-0.0002549886703491
2025-04-30 01:04:32.989000200,1.948000244140625,0.0840090038385882,0.0065021193586289,0.0390433590988668,0.0118999471887946,-0.0012304875937511,0.9737640167498643,0.0167961771795654,left,-0.0017907619476318,-0.4519247355745317,0.7402678933240473,-8.791030357187985,-0.2241825317407762,-0.0107726519927382,-0.0018722265958786,4.282542294886708,-0.0025857388973236
2025-04-30 01:04:33.029000000,1.988,0.0840090038385882,-0.0121559556573629,0.0390433590988668,0.0144192865118384,-0.0012304875937511,0.9737640167498643,0.0167961771795654,left,5.07235527038e-05,-0.4519247355745317,0.7402678933240473,-8.791030357187985,-0.2241825317407762,0.0012354254722595,0.0009091198444366,4.282542294886708,-0.0030549764633178
2025-04-30 01:04:33.069000000,2.028,0.0850882959182244,-0.0137365581467747,0.0396497537549634,0.0129300653934478,-0.001717813838864,0.9737141053470658,0.0160548840487929,left,0.002681016921997,-0.4521759441089429,0.7496640827007591,-8.789154041922092,-0.2242894506819257,-0.0026528339367359,-0.0003969296813011,4.284758509631454,0.0001777112483978
2025-04-30 01:04:33.109000000,2.068,0.0848844004229098,-0.0129316262900829,0.0396128989785043,-0.0011491505429148,-0.0019612436516631,0.9737266620469192,0.0155043773213972,left,0.0021860003471374,-0.4520960255060062,0.7479010916162282,-8.789647962918878,-0.2242398063434141,0.0046426262706518,-0.0001619756221771,4.284053576232493,0.000629186630249
2025-04-30 01:04:33.149000000,2.108,0.0848844004229098,0.003256781026721,0.0396128989785043,-0.0046350685879588,-0.0019612436516631,0.9737266620469192,0.0155043773213972,left,0.0027996897697448,-0.4520960255060062,0.7479010916162282,-8.789647962918878,-0.2242398063434141,0.001959222368896,-0.0021116435527801,4.284053576232493,0.0038997828960418
2025-04-30 01:04:33.189000000,2.148,0.0848844004229098,0.0028927193488925,0.0396128989785043,-0.0031673954799771,-0.0019612436516631,0.9737266620469192,0.0155043773213972,left,-0.000562310218811,-0.4520960255060062,0.7479010916162282,-8.789647962918878,-0.2242398063434141,-0.0002598438877612,-0.0011303573846817,4.284053576232493,-0.0002436339855194
2025-04-30 01:04:33.229000200,2.188000244140625,0.0848844004229098,-0.0047455755993723,0.0396128989785043,0.0028823339380323,-0.0019612436516631,0.9737266620469192,0.0155043773213972,left,0.0004382729530334,-0.4520960255060062,0.7479010916162282,-8.789647962918878,-0.2242398063434141,-0.0031545339152216,-0.000689186155796,4.284053576232493,-0.0005626678466796
2025-04-30 01:04:33.269000000,2.228,0.0841897614110152,-0.0105298236012458,0.0393579757187219,-0.0077715581282973,-0.0022596193808371,0.973710909062812,0.0147427573147082,left,0.0023502111434936,-0.4523513625324904,0.7417032598894089,-8.789075131466983,-0.2243498224894347,-0.0022883501369506,-0.002244584262371,4.286305739073455,0.0007223486900329
2025-04-30 01:04:33.309000000,2.268,0.0838852332396872,0.0009553637355566,0.0392107531380466,-0.0074058827012777,-0.0022098969508175,0.9737562078483324,0.0147594022050623,left,0.0012770891189575,-0.4520005792838713,0.7391526255585252,-8.79079830199778,-0.224179713221605,0.0057252794504165,-0.0021945238113403,4.283211572450399,0.0003251731395721
2025-04-30 01:04:33.349000000,2.308,0.0836770248457545,0.0042021125555038,0.0390919763040372,-0.008767120540142,-0.0020897384253606,0.9738017991922144,0.014942141688626,left,0.0013140439987182,-0.4516306629055433,0.737454662534222,-8.792530240356921,-0.2240034354016738,0.0093536796048283,-0.0016999766230583,4.279947894479334,-0.0009559392929077
2025-04-30 01:04:33.389000000,2.348,0.0836770248457545,0.007448861375451,0.0390919763040372,-0.0101283593103289,-0.0020897384253606,0.9738017991922144,0.014942141688626,left,0.0011743903160095,-0.4516306629055433,0.737454662534222,-8.792530240356921,-0.2240034354016738,0.0129820797592401,-0.0013785436749458,4.279947894479334,-0.0025697946548461
2025-04-30 01:04:33.429000000,2.388,0.0831559891262058,0.0009408574551343,0.0388028858465555,-0.0014500925317406,-0.0018370273383364,0.97389092829448,0.0153107854123773,left,-0.0037677884101867,-0.4509268762372341,0.7331233553316444,-8.795913453054428,-0.2236684692264149,0.0028127459809184,-0.0003827884793281,4.273737057140469,-0.0001343488693237
2025-04-30 01:04:33.469000200,2.428000244140625,0.0831233370159785,-0.0138500435277819,0.0388088127755234,0.0037550253327935,-0.0019372970296196,0.9738741058864044,0.0151040797731472,left,-0.0039677619934082,-0.4510817836093613,0.7327811908304691,-8.795277493238448,-0.2237399050337976,-0.0034545022062957,0.0004863068461418,4.275104253840446,-0.0049000680446624
2025-04-30 01:04:33.509000000,2.468,0.0831233370159785,-0.0186981577426195,0.0388088127755234,0.0129306241869926,-0.0019372970296196,0.9738741058864044,0.0151040797731472,left,0.0010019540786743,-0.4510817836093613,0.7327811908304691,-8.795277493238448,-0.2237399050337976,-0.0056174099445343,0.0033327117562294,4.275104253840446,-0.0030690133571624
2025-04-30 01:04:33.549000000,2.508,0.0826225007558963,-0.0099114449694752,0.0387683466726314,-0.0073325829580426,-0.0027674244809692,0.973880144664779,0.0132847931112879,left,0.0011104345321655,-0.451094626524442,0.7283715576946735,-8.795588458883762,-0.223711486495978,0.0094286361709237,-0.0006771385669708,4.275217651087045,0.0017108619213104
2025-04-30 01:04:33.589000000,2.548,0.0826225007558963,0.0152526637539267,0.0387683466726314,0.0008296640589833,-0.0027674244809692,0.973880144664779,0.0132847931112879,left,-0.0019751787185668,-0.451094626524442,0.7283715576946735,-8.795588458883762,-0.223711486495978,0.0004291478544473,-0.0003770366311073,4.275217651087045,0.0025674402713775
2025-04-30 01:04:33.629000000,2.588,0.0831637753189991,0.0174657516181468,0.0388803412266182,-0.0082358745858073,-0.0021741515108702,0.973859551285587,0.0146320671768604,left,0.001347541809082,-0.4511998444704832,0.7330948598895222,-8.794744409275054,-0.2237882008520171,-0.0125160748139023,-0.0016736239194869,4.2761461641088125,-0.0009819269180297
2025-04-30 01:04:33.669000000,2.628,0.0833347977517537,0.0129282446578145,0.0388314527964024,-0.0045846276916563,-0.0016675876191788,0.973762491265576,0.0157486376778552,left,-0.00119549036026,-0.4520493218601017,0.7342963446337729,-8.790995870396495,-0.2242232677891064,-0.0192663446068763,-0.0002790912985801,4.283641488300264,-0.0011652708053588
2025-04-30 01:04:33.709000000,2.668,0.0833347977517537,0.0028732838109135,0.0388314527964024,0.0019580968655645,-0.0016675876191788,0.973762491265576,0.0157486376778552,left,0.000464916229248,-0.4520493218601017,0.7342963446337729,-8.790995870396495,-0.2242232677891064,-0.022959591820836,-0.0005925148725509,4.283641488300264,0.0011245906352996
2025-04-30 01:04:33.749000200,2.708000244140625,0.0836688638344173,-0.0091824699193239,0.0389416027166179,0.0018143932102248,-0.0015858257910424,0.9735484137424996,0.0160745492414385,left,0.0027278661727905,-0.4539039376745206,0.7365678697623312,-8.782818409159779,-0.2251320964491117,-0.0228582490235567,0.0004542171955108,4.29999494946897,0.0027543306350708
2025-04-30 01:04:33.789000000,2.748,0.0835554816155936,-0.0093559315428137,0.0389186868770465,0.0019713323563337,-0.0017455832372921,0.9734867467932706,0.0157448478987809,left,0.00175541639328,-0.4544705897589102,0.7353685769751668,-8.780472138294577,-0.2254015442357731,-0.010870617814362,0.000292532145977,4.304988519972563,0.0017721056938171
2025-04-30 01:04:33.829000000,2.788,0.0832159316272435,-0.0061014271341264,0.0388139196183024,-0.004477709531784,-0.0019745631886494,0.9734812230856152,0.0152002783797346,left,0.002014935016632,-0.4545738142808335,0.7323501790020615,-8.78027866154909,-0.2254415166937782,0.0128871379420161,0.0003360658884048,4.305898036032914,0.0020339787006378
2025-04-30 01:04:33.869000000,2.828,0.0829863735480984,-0.0002520157140679,0.03874094632575,-0.0001342728501185,-0.0020744699952787,0.973567541820885,0.0149102371253453,left,0.0002180337905883,-0.4538424425443061,0.7305954442892223,-8.7835823792696,-0.2250801706988865,0.0178607478737831,-0.0016846507787704,4.299452805416286,0.0010966658592224
2025-04-30 01:04:33.909000000,2.868,0.0829863735480984,-0.0035890862345695,0.03874094632575,0.0024277265183627,-0.0020744699952787,0.973567541820885,0.0149102371253453,left,-0.0013153553009033,-0.4538424425443061,0.7305954442892223,-8.7835823792696,-0.2250801706988865,0.0101942978799343,-0.0013801604509353,4.299452805416286,-0.0009326040744781
2025-04-30 01:04:33.948919800,2.907919921875,0.0831485562303221,-0.0084667494520545,0.0388887137501464,0.0185440052300691,-0.0023517855960064,0.973640542676287,0.0143484171692454,left,-0.0012095710262656,-0.4531574801218577,0.7322644004147499,-8.78639626764655,-0.2247357058206189,0.0055455863475799,0.0006867832271382,4.293414694295823,-0.0016833412228152
2025-04-30 01:04:33.988920000,2.947920166015625,0.0833881362417284,-0.0011327266693115,0.0390313030979789,0.0083996159955859,-0.0024934866217227,0.9736311337277856,0.0141144105737628,left,0.0008357167243957,-0.4531984387359038,0.7343547968227416,-8.78604555451274,-0.2247507634147185,-4.39854338765e-05,0.0002142339944839,4.293775636562705,0.0008046030998229
2025-04-30 01:04:34.028919800,2.987919921875,0.0833881362417284,0.0062012965790927,0.0390313030979789,-0.0017447723075747,-0.0024934866217227,0.9736311337277856,0.0141144105737628,left,0.0029168128967285,-0.4531984387359038,0.7343547968227416,-8.78604555451274,-0.2247507634147185,-0.0056335572153329,-4.51654195785e-05,4.293775636562705,0.0033293366432189
2025-04-30 01:04:34.068919800,3.027919921875,0.0835531828551122,0.0148269962519407,0.0390656427684001,-0.016370665282011,-0.00233408827494,0.9735860649254262,0.0144963076429591,left,0.0019780993461608,-0.4535748420871601,0.7356698980093002,-8.784313031631708,-0.2249412530636269,-0.0078315641731023,-0.0009252578020095,4.297093967330455,-0.0018413662910461
2025-04-30 01:04:34.108919800,3.067919921875,0.0830409219189492,0.0106705790385603,0.0387765812836822,-0.0188295934349298,-0.0021154568332444,0.9735752038229896,0.0148352706591387,left,0.0001634955406188,-0.4537643777409769,0.7311024439632893,-8.783876978302002,-0.2250406569527878,-0.0035258107818663,0.000325009226799,4.2987648231521245,-0.0012277960777282
2025-04-30 01:04:34.148919800,3.107919921875,0.0823617177050232,0.0023163324221968,0.0384258380480514,-0.0184574890881776,-0.0019588690953703,0.9735749851536748,0.0150051244600298,left,-0.0009546279907226,-0.4538850175865668,0.7250935589373111,-8.783854766470194,-0.2251033355973295,-0.0022753002122044,-0.0003981217741966,4.2998280684694645,-0.0022947490215301
2025-04-30 01:04:34.188919800,3.147919921875,0.0823617177050232,-0.0080595510080456,0.0384258380480514,-0.0111912973225116,-0.0019588690953703,0.9735749851536748,0.0150051244600298,left,-0.0008061528205871,-0.4538850175865668,0.7250935589373111,-8.783854766470194,-0.2251033355973295,0.0018265107646584,-0.0012556090950965,4.2998280684694645,-0.0020797252655029
2025-04-30 01:04:34.228920000,3.187920166015625,0.0812385788220075,-0.0054532662034034,0.0379320089491696,0.0026669884100556,-0.0020518245310467,0.9736149805378398,0.0145473053638596,left,-0.0038749575614929,-0.4537151366187426,0.7152868159983307,-8.78539147451818,-0.2250130481651586,0.0041330233216285,-0.0011708885431289,4.298330815649033,-0.0024711489677429
2025-04-30 01:04:34.268920000,3.227920166015625,0.081196276345018,-0.0055805877782404,0.0379592695444904,0.0035627733450382,-0.0022411998344461,0.9736416889238996,0.0141386113135805,left,0.0004709362983703,-0.4534808002566576,0.7149968931410461,-8.786425493741035,-0.2248912642297272,0.0012558966409415,-0.0005687326192855,4.29626511529088,-0.0014636516571044
2025-04-30 01:04:34.308919800,3.267919921875,0.081196276345018,-0.0047449907287955,0.0379592695444904,0.0036541607696563,-0.0022411998344461,0.9736416889238996,0.0141386113135805,left,-0.0043700337409973,-0.4534808002566576,0.7149968931410461,-8.786425493741035,-0.2248912642297272,0.0016375971026718,0.0007593184709548,4.29626511529088,0.0006000101566314
2025-04-30 01:04:34.348919800,3.307919921875,0.081196276345018,0.0013226713053882,0.0379592695444904,0.006360974162817,-0.0022411998344461,0.9736416889238996,0.0141386113135805,left,0.0004507899284362,-0.4534808002566576,0.7149968931410461,-8.786425493741035,-0.2248912642297272,-0.0110844504088163,0.0004064440727233,4.29626511529088,0.0012767612934112
2025-04-30 01:04:34.388919800,3.347919921875,0.0812963275647152,-0.0035150311887264,0.0380347635338533,-0.0055316276848316,-0.0024057301023116,0.9735632140910424,0.0138524461519691,left,0.0033266544342041,-0.4541596772805163,0.7156389904368669,-8.783445016625523,-0.2252161546805788,-0.0139697659760713,-0.0005091056227684,4.302248573614657,-0.0016477406024932
2025-04-30 01:04:34.428919800,3.387919921875,0.0809777746537362,-0.0015584994107484,0.0379051199010178,-0.005369181279093,-0.0025080130375866,0.9735106974464842,0.0135904511765513,left,0.0007996559143066,-0.4546781680758461,0.7126604130174964,-8.781447705328464,-0.2254639163486186,-0.0071531226858496,0.0008891746401786,4.306817196704447,0.0005244016647338
2025-04-30 01:04:34.468919800,3.427919921875,0.0809777746537362,-0.0025057846214622,0.0379051199010178,-0.0113267404958605,-0.0025080130375866,0.9735106974464842,0.0135904511765513,left,0.0030266642570495,-0.4546781680758461,0.7126604130174964,-8.781447705328464,-0.2254639163486186,-0.0128206796944141,-0.0007208436727523,4.306817196704447,0.0029536187648773
2025-04-30 01:04:34.508920000,3.467920166015625,0.0802765620950293,-0.0014664551708847,0.037568324482672,-0.0116349151358008,-0.0024936422113116,0.9734296781321798,0.013492438362507,left,0.0008746981620788,-0.4555137700059818,0.7062137210961431,-8.778355000010132,-0.2258696243387149,-0.010150508955121,-0.0006486177444458,4.314177788600325,0.0018239319324493
2025-04-30 01:04:34.548919800,3.507919921875,0.0797139051958095,-0.0006518167792819,0.0373055896064898,-0.0066148657351732,-0.0025070856074679,0.9733789045398136,0.0133567333924685,left,0.0006812214851379,-0.4560562503783101,0.7010879755802453,-8.776416725423932,-0.2261317758003615,-0.0049847182817757,-0.000733271241188,4.318954501482844,0.0013618171215057
2025-04-30 01:04:34.588919800,3.547919921875,0.0792591576798771,-0.0026334538124501,0.0371046751402302,-0.0059021050110459,-0.002554003408775,0.9733648829199008,0.0131628153435134,left,-0.0010079145431518,-0.4562536834811547,0.6970292747739703,-8.775884810504317,-0.2262248104290837,0.0018410966731607,-0.0008034631609916,4.320692869582772,0.0019806027412414
2025-04-30 01:04:34.628919800,3.587919921875,0.0792591576798771,-0.0014733467251062,0.0371046751402302,-0.0050719319842755,-0.002554003408775,0.9733648829199008,0.0131628153435134,left,0.0011124610900878,-0.4562536834811547,0.6970292747739703,-8.775884810504317,-0.2262248104290837,0.0081717334687709,-0.002879150211811,4.320692869582772,-0.0004742443561553
2025-04-30 01:04:34.668919800,3.627919921875,0.0788983571295045,0.0014225472696125,0.0369457525808969,-0.0063254656270146,-0.0025558043764442,0.973433628354062,0.0130526495226607,left,0.000320017337799,-0.4557019562870586,0.6940506973545998,-8.77851048283279,-0.2259547443264609,0.0158309116959571,-0.00253826379776,4.315834908157587,-0.000599592924118
2025-04-30 01:04:34.708919800,3.667919921875,0.0787373706747899,0.003014157526195,0.0368606744392243,-0.0029752280097454,-0.0024755807606921,0.9735072278973342,0.0131545015039741,left,-0.0002045631408691,-0.4550760926796742,0.6928497971322387,-8.781313265293836,-0.2256522334293349,0.0123684797435998,-0.0034033581614494,4.310322866737843,-0.0003159344196319
2025-04-30 01:04:34.748920000,3.707920166015625,0.0787373706747899,0.0012359106913208,0.0368606744392243,0.0025934039149433,-0.0024755807606921,0.9735072278973342,0.0131545015039741,left,-0.001143991947174,-0.4550760926796742,0.6928497971322387,-8.781313265293836,-0.2256522334293349,0.0010317908599972,-0.0026676952838897,4.310322866737843,-0.0008133649826049
2025-04-30 01:04:34.788919800,3.747919921875,0.0787373706747899,-0.010658573359251,0.0368606744392243,0.0128288147971034,-0.0024755807606921,0.9735072278973342,0.0131545015039741,left,-0.0014615058898925,-0.4550760926796742,0.6928497971322387,-8.781313265293836,-0.2256522334293349,-0.0029985806904733,-0.0006008073687553,4.310322866737843,-0.0033150613307952
2025-04-30 01:04:34.828919800,3.787919921875,0.079003959184798,-0.0222464669495821,0.037073792425026,0.0094825690612196,-0.0028704787951864,0.9734900637657448,0.0124090843929082,left,0.0013273358345031,-0.4551757686374137,0.6951568319655954,-8.780700101831554,-0.2256866147989806,-0.0028834389522671,7.07358121871e-05,4.311200818616151,-0.0011873841285705
2025-04-30 01:04:34.868919800,3.827919921875,0.0788564983243017,-0.0206068307161331,0.0371180206289311,0.0017945948056876,-0.0033655563074888,0.9734661505375052,0.0113668345528407,left,0.0034468173980712,-0.4553978533949326,0.6937865665256977,-8.779847284394503,-0.225775600618345,-0.0060581127181649,-0.0004777312278747,4.313156921119988,0.0028662681579589
2025-04-30 01:04:34.908919800,3.867919921875,0.078652460118801,-0.004371341317892,0.0370789133416681,-0.0003158813342452,-0.0036057681213585,0.9734609164536924,0.0108289350220473,left,0.001656949520111,-0.4554703612291315,0.6919706031449139,-8.779677188524603,-0.2258012463471236,0.0030436748638749,-0.0014281719923019,4.313795511284471,0.0028931200504302
2025-04-30 01:04:34.948919800,3.907919921875,0.078652460118801,0.0026895212940871,0.0370789133416681,-0.0009179405751638,-0.0036057681213585,0.9734609164536924,0.0108289350220473,left,-0.0002986788749694,-0.4554703612291315,0.6919706031449139,-8.779677188524603,-0.2258012463471236,0.0060855951160192,-0.0012855157256126,4.313795511284471,0.0020894408226013
2025-04-30 01:04:34.988920000,3.947920166015625,0.078652460118801,-0.00187564548105,0.0370789133416681,0.0045780683867633,-0.0036057681213585,0.9734609164536924,0.0108289350220473,left,-0.0025128126144409,-0.4554703612291315,0.6919706031449139,-8.779677188524603,-0.2258012463471236,0.0095239263027906,-0.000153511762619,4.313795511284471,-0.0012136995792388
2025-04-30 01:04:35.028919800,3.987919921875,0.07895586890808,-0.0011857061181217,0.0372586910728256,0.013439742848277,-0.0037332424761634,0.9735562702897536,0.0106007224483205,left,-0.00150066614151,-0.4545694399244454,0.6949406319316476,-8.783337464597821,-0.2253579683486663,0.0208128131926059,-0.0003733411431312,4.305859457588196,-0.0016484558582305
2025-04-30 01:04:35.068919800,4.027919921875,0.0793930845700598,0.0114613380283117,0.0374858788394933,0.012310498394072,-0.003776221131785,0.9737003732552372,0.0105580628889435,left,-0.002981960773468,-0.4532117823706215,0.6992437359530478,-8.788851844105125,-0.2246955161463156,0.0289760623127222,-0.0015602335333824,4.293893417723477,0.0025492012500762
2025-04-30 01:04:35.108919800,4.067919921875,0.0801844142712799,0.02691500633955,0.0377819744534574,0.0037590991705656,-0.0034250706955176,0.9738034230335187,0.0114189200304525,left,0.0017148256301879,-0.4521730283767338,0.7065553010754286,-8.79273716110587,-0.2242045881727108,0.0132790729403495,-0.003119982779026,4.284732790668309,0.0023457705974578
2025-04-30 01:04:35.148919800,4.107919921875,0.080665671447842,0.0197865907102823,0.0378913050168033,-0.00428584869951,-0.0029040042626232,0.973863592404256,0.0125746721413833,left,0.0022661685943603,-0.4515694375753489,0.7109950370885432,-8.794972372812031,-0.2239318338514047,0.0141561729833483,-0.0035594478249549,4.279407796253263,-0.0046659708023071
2025-04-30 01:04:35.188919800,4.147919921875,0.0809425253438287,0.0042452355846762,0.0379627443326743,0.006089923903346,-0.0026378209220356,0.9739037700895982,0.0131682123077425,left,-0.0008679032325744,-0.4511700150782508,0.7135681024469435,-8.796478101199865,-0.2237482328235406,0.0040391879156231,-0.0014256611466407,4.275882836997509,-0.0025450587272644
2025-04-30 01:04:35.228920000,4.187920166015625,0.0811396790968002,-0.0156150879338383,0.038079406237729,0.0074798129498958,-0.0027537924587593,0.973891643586195,0.0129784478068436,left,0.0014898777008056,-0.4512437935339278,0.7152768060609698,-8.796023343169688,-0.223780255720672,-0.0051344260573387,-0.0015307143330574,4.27653399438262,-0.0028542876243591
2025-04-30 01:04:35.268920000,4.227920166015625,0.0810639268148062,-0.0182156004011631,0.0381317354074553,0.0056213000789284,-0.0031473420340359,0.9738628767105242,0.012163718346086,left,0.0013362765312194,-0.4515030086253851,0.7145206539314239,-8.794971788290143,-0.2238910658078223,-0.0042388467118144,-0.0008241608738899,4.278821520797908,0.0003714561462402
2025-04-30 01:04:35.308919800,4.267919921875,0.0810866761006971,-0.0050314487889409,0.0382038365397179,0.0052258125506341,-0.0034234463782298,0.973844286895448,0.011608397644643,left,0.0008934140205383,-0.451657694611593,0.7146671497300267,-8.794296080985665,-0.2239557341986081,-0.0004032780416309,-0.0003308430314064,4.280186379410326,0.0021539032459259
2025-04-30 01:04:35.348919800,4.307919921875,0.0810866761006971,0.0001976494677364,0.0382038365397179,0.0040763961151242,-0.0034234463782298,0.973844286895448,0.011608397644643,left,-0.000637948513031,-0.451657694611593,0.7146671497300267,-8.794296080985665,-0.2239557341986081,0.0114295706152915,0.0006067305803298,4.280186379410326,-0.001425951719284
2025-04-30 01:04:35.388919800,4.347919921875,0.0815170077723887,-0.0025529961567372,0.0384359862594957,0.0082106906920671,-0.0035380690158268,0.9739037061589652,0.0114463523757127,left,-0.001785397529602,-0.4510494325715564,0.7186633797593415,-8.79658097705245,-0.2236557227584089,0.010022135451436,0.0002636834979057,4.274818714897334,-0.0014370381832122
2025-04-30 01:04:35.428919800,4.387919921875,0.0819173002141186,-0.0082147251814603,0.0386678542710455,0.0119463540613651,-0.0037241897480922,0.973937030001259,0.0111402949619909,left,-0.000551700592041,-0.4506763204166379,0.7223149610694497,-8.797881538257002,-0.2234674312014367,0.0061883185990154,0.0011445954442024,4.27152551857084,-0.002588540315628
2025-04-30 01:04:35.468919800,4.427919921875,0.0823506374642686,-0.0077848834916949,0.0389254184178592,0.0094712655991315,-0.0039659044150582,0.973948291797175,0.0107355706730725,left,0.001244843006134,-0.4504928813309228,0.726191802502796,-8.798348571246862,-0.2233694280861561,0.0025621352251619,4.79966402053e-05,4.269906100675463,-0.0018130540847778
2025-04-30 01:04:35.508920000,4.467920166015625,0.0825837749430241,-0.0070850788615643,0.0390739680663227,0.0030435780063271,-0.0041416867989066,0.9739494469825524,0.0104256557303186,left,0.0002740621566772,-0.4504361062249586,0.7282629827536642,-8.798420467439293,-0.2233352667302067,0.0024944683536887,0.0004603788256645,4.269404873155057,-0.0013644993305206
2025-04-30 01:04:35.548919800,4.507919921875,0.0825837749430241,-0.0069354060105979,0.0390739680663227,0.0033429837785661,-0.0041416867989066,0.9739494469825524,0.0104256557303186,left,0.0003274679183959,-0.4504361062249586,0.7282629827536642,-8.798420467439293,-0.2233352667302067,0.0024196475278586,0.0018404871225357,4.269404873155057,-0.0012486577033996
2025-04-30 01:04:35.588919800,4.547919921875,0.0825837749430241,-0.009283035993576,0.0390739680663227,-0.0013172389008104,-0.0041416867989066,0.9739494469825524,0.0104256557303186,left,0.0012281537055969,-0.4504361062249586,0.7282629827536642,-8.798420467439293,-0.2233352667302067,5.46951778233e-05,0.0005481019616127,4.269404873155057,-0.0009489059448242
2025-04-30 01:04:35.628919800,4.587919921875,0.0822126030202041,-0.0115019949153065,0.0389897734918245,-0.0084667317569255,-0.0045201573124354,0.9739574219045848,0.0095623783770908,left,0.0007287263870239,-0.4504128455162222,0.7250053691972047,-8.798789300751686,-0.2233078946671325,-0.0002201802562922,0.0017265155911445,4.269199413710832,0.000668853521347
2025-04-30 01:04:35.668919800,4.627919921875,0.0813769511280568,-0.0109845176339149,0.0386632032443065,-0.0142812244594097,-0.004766301824558,0.973996946705125,0.0088559741851623,left,0.0007122159004211,-0.4501883083938274,0.7177303366929292,-8.8003470515877,-0.2231868018807762,0.009309641085565,0.0010025277733802,4.26721700772196,0.0002128183841705
2025-04-30 01:04:35.708919800,4.667919921875,0.0805415764787126,-0.0104670412838459,0.0383366329967873,-0.0200957171618938,-0.0050124848342537,0.9740364260012632,0.0081497760506508,left,0.0006952285766601,-0.4499633980305197,0.7104556695148349,-8.801900126248597,-0.2230657090944189,0.0188394635915756,0.000278502702713,4.26523109460175,-0.0002428591251373
2025-04-30 01:04:35.748920000,4.707920166015625,0.0796837208220061,-0.0050163916312158,0.0379790802381412,-0.0174677968025207,-0.0051444710375862,0.9741346600691212,0.0076518754666119,left,0.0004329085350036,-0.4492161704133872,0.7031581329178065,-8.80568081383109,-0.2226944880993662,0.0240316800773143,-0.0015472918748855,4.258631257945299,5.03659248352e-05
2025-04-30 01:04:35.788919800,4.747919921875,0.0788784733053044,-0.0048805363476276,0.0376274524767822,-0.0161131862550973,-0.0051942333209982,0.9742399218274652,0.0073326836992463,left,-0.0018342733383178,-0.4483987359425228,0.6963412194445728,-8.809711676782369,-0.2222923852081367,0.0211519580334424,-0.0020114779472351,4.251408905476332,-0.0015234947204589
2025-04-30 01:04:35.828919800,4.787919921875,0.0784715831566303,0.0003192564472556,0.0374539853927997,-0.0081682074815034,-0.0052322182791241,0.9743074253734036,0.0071400341360003,left,-0.0040514469146728,-0.4478537803913123,0.6929381330028176,-8.81230227779746,-0.2220243993141734,0.0145914042368531,-0.002263143658638,4.246592445105314,-0.0009185969829559
2025-04-30 01:04:35.868919800,4.827919921875,0.0780649093768193,0.0055190497078001,0.0372805069327166,-0.0002232296392321,-0.0052702032372498,0.9743749289193424,0.0069476761330545,left,-0.0062689781188964,-0.4473088370496947,0.6895346812348813,-8.814889371681213,-0.2217564037958169,0.0080308504402637,-0.0025147721171379,4.241774815690517,-0.0003135800361633
2025-04-30 01:04:35.908919800,4.867919921875,0.0780649093768193,0.004197078756988,0.0372805069327166,0.0076383491978049,-0.0052702032372498,0.9743749289193424,0.0069476761330545,left,-0.0028576254844665,-0.4473088370496947,0.6895346812348813,-8.814889371681213,-0.2217564037958169,-0.0076703075319528,-0.0013881921768188,4.241774815690517,-0.0016067624092102
2025-04-30 01:04:35.948919800,4.907919921875,0.078378068544312,-0.0095959305763244,0.0374199689718449,0.0045172753743827,-0.0052676613848594,0.9743206249795592,0.0070417741110391,left,-0.0005964636802673,-0.4477490551955142,0.6921488823212683,-8.812810811841487,-0.2219717691612572,-0.0136758107692003,0.0004681050777435,4.245666854692995,-0.0038733780384063
2025-04-30 01:04:35.988920000,4.947920166015625,0.0782846692741498,-0.0127515364438295,0.0374167912730729,-0.00136299431324,-0.0054733708155252,0.9742475545654647,0.0066247514635598,left,0.0016674399375915,-0.4484134206383233,0.6911049992915242,-8.810061220872402,-0.2222878376704062,-0.0172986909747123,0.0007825940847396,4.251538669335842,-0.0007724165916442
2025-04-30 01:04:36.028919800,4.987919921875,0.0778290667207712,-0.0024746479466557,0.0372275109095389,-0.0133003424853086,-0.0055961632048921,0.974180300859938,0.0062954291090711,left,0.0021606683731079,-0.4490868706186492,0.6868682385046034,-8.807518550652265,-0.2226109814298912,-0.0149672627449035,0.0001077950000762,4.257489102172851,0.0013107359409332
2025-04-30 01:04:36.068919800,5.027919921875,0.0772058461667204,0.0083051566034555,0.0368982982862619,-0.0202065985649824,-0.0054410168184913,0.9741268839704552,0.0064947137325203,left,-8.89301300048e-05,-0.4496758668117901,0.6811855897583067,-8.805443497943878,-0.2229032609098329,-0.014294340275228,-0.0013487488031387,4.262691639252007,0.0026480257511138
2025-04-30 01:04:36.108919800,5.067919921875,0.0767432390611906,0.0124985743314027,0.0366030869450111,-0.0155761837959289,-0.0051084818652857,0.9740768866602728,0.0070927291387296,left,-0.0012363195419311,-0.4502152189871442,0.6769356772288679,-8.803463722303508,-0.2231781448117576,-0.0112643856555223,-0.0012982562184333,4.267454615870118,0.0002546906471252
2025-04-30 01:04:36.148919800,5.107919921875,0.076365185192279,0.0048547238111495,0.0363694151979425,-0.0077561531215906,-0.004855045899971,0.9740726505000512,0.0075307430042793,left,-0.0027889609336853,-0.4503246196184126,0.6735718268189579,-8.803253294423222,-0.2232403627180381,0.0038326010107994,-0.0014386624097824,4.268420538292825,-0.003546804189682
2025-04-30 01:04:36.188919800,5.147919921875,0.076365185192279,-0.0001576361246407,0.0363694151979425,0.000218934379518,-0.004855045899971,0.9740726505000512,0.0075307430042793,left,-0.0008659958839416,-0.4503246196184126,0.6735718268189579,-8.803253294423222,-0.2232403627180381,0.0022886963561177,-0.0024801269173622,4.268420538292825,-0.0019557476043701
2025-04-30 01:04:36.228920000,5.187920166015625,0.076365185192279,-0.0037621413357555,0.0363694151979425,0.0020452523604035,-0.004855045899971,0.9740726505000512,0.0075307430042793,left,0.0002766251564025,-0.4503246196184126,0.6735718268189579,-8.803253294423222,-0.2232403627180381,0.0023261394817382,-0.0023333132266998,4.268420538292825,-0.0045478343963623
2025-04-30 01:04:36.268920000,5.227920166015625,0.076365185192279,-0.0046108746901154,0.0363694151979425,0.0042774030007421,-0.004855045899971,0.9740726505000512,0.0075307430042793,left,-0.0003966093063354,-0.4503246196184126,0.6735718268189579,-8.803253294423222,-0.2232403627180381,-0.0018438028637319,-0.0014535337686538,4.268420538292825,-0.0024648606777191
2025-04-30 01:04:36.308919800,5.267919921875,0.076365185192279,-0.0084002874791622,0.0363694151979425,0.0011233461555093,-0.004855045899971,0.9740726505000512,0.0075307430042793,left,0.000622808933258,-0.4503246196184126,0.6735718268189579,-8.803253294423222,-0.2232403627180381,-0.0124698150902986,-0.0008668154478073,4.268420538292825,-0.0016864240169525
2025-04-30 01:04:36.348919800,5.307919921875,0.0762597793041627,-0.0078275669366121,0.0363736079436901,-0.0047231661155819,-0.0051126799017231,0.974006033689878,0.0070010672919223,left,0.0009377002716064,-0.4509270495151843,0.6724478642903268,-8.80075913951993,-0.2235243714322883,-0.0135690923780202,-0.0012415274977684,4.273738518445193,-0.0012819766998291
2025-04-30 01:04:36.388919800,5.347919921875,0.075912860226974,-0.0001099212095141,0.0362274149563729,-0.0108484774827957,-0.0051960623121415,0.9739540785514224,0.0067702351500327,left,0.0003805756568908,-0.4514430680486578,0.6692273678738624,-8.798791638839244,-0.2237723610360073,-0.0108660664409399,-0.0029765218496322,4.278292528487742,0.0006040632724761
2025-04-30 01:04:36.428919800,5.387919921875,0.0755929117075524,0.0097235208377242,0.0360388694203637,-0.010562396608293,-0.005039554820769,0.9739061464348264,0.0070369202706737,left,-0.0003590583801269,-0.4519302439713712,0.666254708738625,-8.796925844967365,-0.2240152026957181,-0.01190185546875,-0.0021837949752807,4.2825911024644965,0.0009421706199645
2025-04-30 01:04:36.468919800,5.427919921875,0.0754608103215107,0.0101287318393588,0.0359177952881851,-0.0063096228986978,-0.0047964901825556,0.973863996312465,0.0075214563142562,left,-0.0012694001197814,-0.4523386358104035,0.6649606503400951,-8.795269309931992,-0.2242230966127393,-0.0035615116357803,-0.0014269426465034,4.286193510870636,-0.0013841092586517
2025-04-30 01:04:36.508920000,5.467920166015625,0.0754608103215107,0.0046795005910098,0.0359177952881851,-0.0015037124976515,-0.0047964901825556,0.973863996312465,0.0075214563142562,left,-0.0013842582702636,-0.4523386358104035,0.6649606503400951,-8.795269309931992,-0.2242230966127393,-0.0011743395589292,0.0006381943821907,4.286193510870636,-0.0021370649337768
2025-04-30 01:04:36.548919800,5.507919921875,0.0754608103215107,-0.0032431748695671,0.0359177952881851,-0.0003533597337082,-0.0047964901825556,0.973863996312465,0.0075214563142562,left,-0.0005859732627868,-0.4523386358104035,0.6649606503400951,-8.795269309931992,-0.2242230966127393,-0.0062391636893153,0.0019160881638526,4.286193510870636,-0.0025332868099212
2025-04-30 01:04:36.588919800,5.547919921875,0.0754608103215107,-0.0116372853517532,0.0359177952881851,-0.0022013934794813,-0.0047964901825556,0.973863996312465,0.0075214563142562,left,-0.0007420182228088,-0.4523386358104035,0.6649606503400951,-8.795269309931992,-0.2242230966127393,-0.0108087668195366,0.0009534060955047,4.286193510870636,-0.001662790775299
2025-04-30 01:04:36.628919800,5.587919921875,0.0748351678434457,-0.0128296632319688,0.0356686460810809,-0.0116696199402213,-0.0050040678707264,0.973780873447806,0.0069828240112325,left,0.001767098903656,-0.453167807255013,0.659191930745542,-8.792136272603273,-0.2246187130196856,-0.0128933982923626,-0.0010913535952568,4.29350558744967,-0.002607375383377
2025-04-30 01:04:36.668919800,5.627919921875,0.0742755299394667,-0.002267493866384,0.0354246018946674,-0.0050736293196678,-0.0050994323738323,0.9737001744973748,0.0066882357747868,left,-0.004015564918518,-0.453968439616931,0.6540160624776035,-8.789072793379425,-0.2250046731084283,-0.0210404265671968,0.0010238885879516,4.30056339700669,0.0025856494903564
2025-04-30 01:04:36.708919800,5.667919921875,0.0742500686704006,0.0033509875647723,0.0353749144069102,-0.0040912725962698,-0.0049808326846114,0.9735844563470448,0.0069653936907536,left,0.0006945133209228,-0.4550078344743584,0.6534604013562202,-8.784627504408359,-0.2255155961420999,-0.0256278291344642,-0.0007385089993476,4.309721685974299,-0.0011330842971801
2025-04-30 01:04:36.748920000,5.707920166015625,0.074027623879554,-0.00135497469455,0.0352495742063354,-0.0054047368466854,-0.0049273352441516,0.9734724431794316,0.0070627627141584,left,0.0002392530441284,-0.4560382668793351,0.651177478050813,-8.780338867303728,-0.2260194120478703,-0.0270998515188694,-0.0008327662944793,4.318796388311684,-0.0003623664379119
2025-04-30 01:04:36.788919800,5.747919921875,0.0740264390604466,0.0023785554803907,0.035228177208508,0.0033402917906641,-0.0048885542692768,0.97334165078522,0.0071860779931515,left,-0.0011489987373352,-0.4571981231291949,0.6507961505830288,-8.77533828253746,-0.2265860650293408,-0.0301350578665733,-0.0008470192551612,4.329005355376005,0.0011563301086425
2025-04-30 01:04:36.828919800,5.787919921875,0.0741575818230425,-1.6647391021251678e-07,0.0352693176295467,0.0030798383522778,-0.0048564094521051,0.973210304851448,0.0073259735607928,left,0.0004763603210449,-0.4583396032740036,0.6515804328285157,-8.77031957759261,-0.2271436740615081,-0.0255877301096916,-0.0014020428061485,4.339046856918931,-0.0002966523170471
2025-04-30 01:04:36.868919800,5.827919921875,0.0741656231044061,-0.0034202551469206,0.0352690008488589,-0.0005360397044569,-0.0048754741643579,0.9731168960286598,0.0073198460020141,left,0.0008668303489685,-0.4591610601245054,0.6513865907568485,-8.766756332153081,-0.2275432233555988,-0.015323806554079,-0.0014870092272758,4.346269501648843,-0.0006392300128936
2025-04-30 01:04:36.908919800,5.867919921875,0.0741656231044061,-0.0050722993910312,0.0352690008488589,-0.0028581880033016,-0.0048754741643579,0.9731168960286598,0.0073198460020141,left,0.0025254487991333,-0.4591610601245054,0.6513865907568485,-8.766756332153081,-0.2275432233555988,-0.0062972642481327,-0.0013696625828742,4.346269501648843,-0.0023665726184844
2025-04-30 01:04:36.948919800,5.907919921875,0.0741656231044061,-0.0025916076265275,0.0352690008488589,-0.0016464442014694,-0.0048754741643579,0.9731168960286598,0.0073198460020141,left,-0.0005933046340942,-0.4591610601245054,0.6513865907568485,-8.766756332153081,-0.2275432233555988,0.0003420920111238,-0.0006715580821037,4.346269501648843,0.0003123581409454
2025-04-30 01:04:36.988920000,5.947920166015625,0.0741656231044061,-0.0021031454671174,0.0352690008488589,-0.0011773179285228,-0.0048754741643579,0.9731168960286598,0.0073198460020141,left,0.0006870031356811,-0.4591610601245054,0.6513865907568485,-8.766756332153081,-0.2275432233555988,-0.0009382424177601,-0.0023775696754455,4.346269501648843,-0.0001002848148345
2025-04-30 01:04:37.028919800,5.987919921875,0.0741656231044061,-0.0056164814159274,0.0352690008488589,-0.0008730685804039,-0.0048754741643579,0.9731168960286598,0.0073198460020141,left,0.0004838109016418,-0.4591610601245054,0.6513865907568485,-8.766756332153081,-0.2275432233555988,-0.0064320163801312,-0.0010752826929092,4.346269501648843,0.0010088384151458
2025-04-30 01:04:37.068919800,6.027919921875,0.0737450479756996,-0.0170823633670806,0.0351378915610578,-0.0038347805384546,-0.0051818270683385,0.9730177943993172,0.0066265530820998,left,0.0020784735679626,-0.4600818093654709,0.6474043892528861,-8.763035265803337,-0.227980031076782,-0.0205864328891038,-0.0018550753593444,4.3543619149506085,0.0040236413478851
2025-04-30 01:04:37.108919800,6.067919921875,0.0733786087275521,-0.0251797772943973,0.035123728935494,0.0054076574742794,-0.0058488930164796,0.9729972137213474,0.0051771127856662,left,0.0018293857574462,-0.4602838507593441,0.6441286555178463,-8.76239404529035,-0.2280538721668631,0.005359947681427,-0.0014354139566421,4.356137107929587,0.0021939873695373
2025-04-30 01:04:37.148919800,6.107919921875,0.0730118013708941,-0.033277191221714,0.0351095593030977,0.0146500943228602,-0.0065160079324503,0.9729762060266736,0.0037273386761458,left,0.0015803575515747,-0.4604854672084557,0.6408504375647753,-8.761753993821143,-0.2281276292549582,0.0313063263893127,-0.0010155290365219,4.357908501516282,0.0003647804260253
2025-04-30 01:04:37.188919800,6.147919921875,0.0728367194953528,-0.0260883029550313,0.0352021566566764,0.0122773144394159,-0.0072117022888924,0.97310210951662,0.002214979395928,left,0.0019433498382568,-0.4593605469166882,0.6396727720875293,-8.766749317890405,-0.2275543817182224,0.0448788665235042,-0.0019242167472839,4.348023359578848,0.0014267265796661
2025-04-30 01:04:37.228920000,6.187920166015625,0.072748622681859,-0.0061705093830823,0.0352643770829274,0.0053005665540695,-0.0075915515375308,0.9732837945757395,0.001354670404926,left,0.0005805492401123,-0.4577461117641884,0.6394098103024065,-8.773795144748687,-0.2267539841154299,0.0409081131219863,-0.0028452910482883,4.33382649192214,0.0013169348239898
2025-04-30 01:04:37.268920000,6.227920166015625,0.0728675681620386,0.0094145908951759,0.0353226870910805,-0.0003808108158409,-0.0075663429088194,0.9734059677512108,0.0013940597488449,left,-0.0008978247642517,-0.4566503459035207,0.6407987804427743,-8.778450277078152,-0.2262209414863864,0.0161267016083002,-0.0020011067390441,4.324184511090815,-0.0003187358379364
2025-04-30 01:04:37.308919800,6.267919921875,0.0728675681620386,0.0020380993373692,0.0353226870910805,0.0009398983092978,-0.0075663429088194,0.9734059677512108,0.0013940597488449,left,-0.0012670755386352,-0.4566503459035207,0.6407987804427743,-8.778450277078152,-0.2262209414863864,-0.0027275010943412,-0.0002054944634437,4.324184511090815,-0.0055635869503021
2025-04-30 01:04:37.348919800,6.307919921875,0.072680786397387,-0.0170053876936435,0.0352502208030659,-0.0026618121191859,-0.0076313559323785,0.9733878145808514,0.0012238050046709,left,-0.0017159581184387,-0.4568348809427203,0.639101182744652,-8.777773985251784,-0.226308442828404,-0.0081109367311,0.0009068474173545,4.325808605161309,-0.0068070590496063
2025-04-30 01:04:37.388919800,6.347919921875,0.0722458539270029,-0.0143374418839812,0.0351185242116685,-0.0067597059532999,-0.0079344283686772,0.9733665100593174,0.0005083389904548,left,0.0019989609718322,-0.4570659907250278,0.6352111895687877,-8.77705385428369,-0.2264100306369102,-0.0034652035683393,-0.0011973902583122,4.327842449076473,-0.0049764811992645
2025-04-30 01:04:37.428919800,6.387919921875,0.0722458539270029,0.0018266094848513,0.0351185242116685,-0.007544984575361,-0.0079344283686772,0.9733665100593174,0.0005083389904548,left,-0.0024085640907287,-0.4570659907250278,0.6352111895687877,-8.77705385428369,-0.2264100306369102,-0.0001378436572849,-0.0020988434553146,4.327842449076473,0.0010388493537902
2025-04-30 01:04:37.468919800,6.427919921875,0.0719981925364452,0.01921296864748,0.0349487569452835,-0.005926489830017,-0.0077065375558897,0.973335401574912,0.0009308075470946,left,-0.0013003945350646,-0.4573933109869505,0.6329354997217654,-8.775797132220864,-0.2265777051806276,-0.0161004457622766,-0.0019561797380447,4.330722680687904,0.0008125305175781
2025-04-30 01:04:37.508920000,6.467920166015625,0.0719038801139164,0.00918700825423,0.0348263973618652,-0.00568045116961,-0.0073922573833248,0.9732629041470092,0.001579068899539,left,0.0004292130470275,-0.4580693915063158,0.631897315780446,-8.77293472852707,-0.2269183695675531,-0.017391849309206,-0.0004869401454925,4.3366701909154655,-0.0043752491474151
2025-04-30 01:04:37.548919800,6.507919921875,0.0719118371390866,0.0021460400894284,0.0348054271108821,0.0022527249529957,-0.007311419982527,0.973187175229154,0.0017713330874046,left,0.0005640387535095,-0.458740781241397,0.6317577611792832,-8.77002322499454,-0.2272484092725175,-0.0160984098911285,6.06030225753e-05,4.342574738784134,-0.0010125041007995
2025-04-30 01:04:37.588919800,6.547919921875,0.0720174284524521,-0.0007527822162955,0.0348462595166855,0.0002559688873589,-0.0072978277244328,0.9731256304415185,0.0018430494023938,left,0.0013453364372253,-0.4592686032382005,0.6325188086796552,-8.767669355344772,-0.2275060899317327,-0.0097803585231304,-2.171844244e-05,4.347214965805411,-7.97808170318e-05
2025-04-30 01:04:37.628919800,6.587919921875,0.0720174284524521,0.0041783545166254,0.0348462595166855,0.0006465124897658,-0.0072978277244328,0.9731256304415185,0.0018430494023938,left,-0.0007932782173156,-0.4592686032382005,0.6325188086796552,-8.767669355344772,-0.2275060899317327,-0.0085208155214786,-0.0002744048833847,4.347214965805411,0.0019294917583465
2025-04-30 01:04:37.668919800,6.627919921875,0.0720174284524521,0.0062830881215631,0.0348462595166855,-0.0008583031594753,-0.0072978277244328,0.9731256304415185,0.0018430494023938,left,0.0005369782447814,-0.4592686032382005,0.6325188086796552,-8.767669355344772,-0.2275060899317327,-0.0051569379866123,-0.0004000961780548,4.347214965805411,0.0006446838378906
2025-04-30 01:04:37.708919800,6.667919921875,0.0720174284524521,0.0010939412750303,0.0348462595166855,-0.0010985031258314,-0.0072978277244328,0.9731256304415185,0.0018430494023938,left,-0.0007792711257934,-0.4592686032382005,0.6325188086796552,-8.767669355344772,-0.2275060899317327,0.0042276959866285,-0.0011691823601722,4.347214965805411,-0.0010431408882141
2025-04-30 01:04:37.748920000,6.707920166015625,0.0720174284524521,-0.0018491467926651,0.0348462595166855,0.0038818966131657,-0.0072978277244328,0.9731256304415185,0.0018430494023938,left,-0.0008899569511413,-0.4592686032382005,0.6325188086796552,-8.767669355344772,-0.2275060899317327,0.0071672433987259,-0.0015781447291374,4.347214965805411,-0.0005315840244293
2025-04-30 01:04:37.788919800,6.747919921875,0.0720174284524521,-0.0058970162644982,0.0348462595166855,-0.0032232322264462,-0.0072978277244328,0.9731256304415185,0.0018430494023938,left,9.59634780883e-05,-0.4592686032382005,0.6325188086796552,-8.767669355344772,-0.2275060899317327,0.0025659119710326,-0.0019347444176673,4.347214965805411,5.20050525665e-05
2025-04-30 01:04:37.828919800,6.787919921875,0.0720174284524521,0.0016581742092967,0.0348462595166855,0.0011122205760329,-0.0072978277244328,0.9731256304415185,0.0018430494023938,left,-0.0007752180099487,-0.4592686032382005,0.6325188086796552,-8.767669355344772,-0.2275060899317327,0.0024373910855501,-0.0016281753778457,4.347214965805411,-0.0005680620670318
2025-04-30 01:04:37.868919800,6.827919921875,0.0720174284524521,-0.0014147500041872,0.0348462595166855,0.0018537956057116,-0.0072978277244328,0.9731256304415185,0.0018430494023938,left,-0.0008350610733032,-0.4592686032382005,0.6325188086796552,-8.767669355344772,-0.2275060899317327,0.0063516264781355,-0.0017719566822052,4.347214965805411,-0.003587782382965
2025-04-30 01:04:37.908919800,6.867919921875,0.0719659789304301,-0.0089543350040912,0.0348612905248654,0.006884966045618,-0.0074535602764391,0.9731556525783456,0.0015012945692794,left,-0.0013880133628845,-0.4590016093146964,0.6321511444110423,-8.768859441912173,-0.2273704071665974,-0.0012147347442805,-0.0003140941262245,4.344867818157375,-0.0022644102573394
2025-04-30 01:04:37.948919800,6.907919921875,0.0719473125704827,-0.0161164924502372,0.034923550629562,0.0042976927943527,-0.0077611167932619,0.9731399373721876,0.0008691845269227,left,0.0004083514213562,-0.4591216777579358,0.6319499227505176,-8.768350907868147,-0.2274178689402541,-0.0058672013692557,-0.0006573349237442,4.345923464690149,-0.002054363489151
2025-04-30 01:04:37.988920000,6.947920166015625,0.0716676524103074,-0.0131114795804023,0.0348679131325989,-0.0014123800210654,-0.008084121463661,0.9731076234477584,0.0001508301939615,left,0.0011857151985168,-0.4594239120949422,0.6294036723338067,-8.767216935402155,-0.2275534919050443,-0.010668447241187,-0.0003845989704132,4.348580116678774,0.0009473264217376
2025-04-30 01:04:38.028919800,6.987919921875,0.0716676524103074,-0.0021469136700034,0.0348679131325989,-0.0042514484375715,-0.008084121463661,0.9731076234477584,0.0001508301939615,left,0.0006400942802429,-0.4594239120949422,0.6294036723338067,-8.767216935402155,-0.2275534919050443,-0.0080743692815303,-0.0008826479315757,4.348580116678774,0.0009571015834808
2025-04-30 01:04:38.068919800,7.027919921875,0.0716676524103074,-0.0006019355496391,0.0348679131325989,-0.0063521596603095,-0.008084121463661,0.9731076234477584,0.0001508301939615,left,-0.0006604790687561,-0.4594239120949422,0.6294036723338067,-8.767216935402155,-0.2275534919050443,0.0022579189389944,-0.0011657029390335,4.348580116678774,-0.0010478794574737
2025-04-30 01:04:38.108919800,7.067919921875,0.0711997139932582,-0.0024259686470031,0.0346639576638982,-0.0051941759884357,-0.0081388164944434,0.9730935452134956,-6.43275015489e-05,left,-0.0007532238960266,-0.4596114586064893,0.6252430455230176,-8.766696710920334,-0.2276428997892761,0.0007224382134154,-0.0010940134525299,4.35022846840769,-0.0007012486457824
2025-04-30 01:04:38.148919800,7.107919921875,0.0711997139932582,-0.0074006700888276,0.0346639576638982,-0.003805499523878,-0.0081388164944434,0.9730935452134956,-6.43275015489e-05,left,-0.0017661452293395,-0.4596114586064893,0.6252430455230176,-8.766696710920334,-0.2276428997892761,0.0020546694286167,-0.0017886795103549,4.35022846840769,-0.0037316381931304
2025-04-30 01:04:38.188919800,7.147919921875,0.0711997139932582,-0.0081354770809412,0.0346639576638982,-0.0041295797564089,-0.0081388164944434,0.9730935452134956,-6.43275015489e-05,left,0.0021862983703613,-0.4596114586064893,0.6252430455230176,-8.766696710920334,-0.2276428997892761,-0.0011799701023846,-0.0031954422593116,4.35022846840769,-0.0029738843441009
2025-04-30 01:04:38.228920000,7.187920166015625,0.0705985086572174,-0.0007745330221951,0.0344397849560384,-0.0022693607024848,-0.008369489695905,0.9730778990670697,-0.0006717864411927,left,-0.0021142363548278,-0.459818180759044,0.6199089179534465,-8.766173563829064,-0.2277354637371145,-0.0087997550144791,-0.0020894855260849,4.352045454701781,0.0017995536327362
2025-04-30 01:04:38.268920000,7.227920166015625,0.0707016898617386,0.0132984966039657,0.0344619292434868,0.0035043200477957,-0.0082812502121425,0.9730102734770856,-0.0004455761138187,left,-0.0008202195167541,-0.4604044019137219,0.620633067509532,-8.763563089069724,-0.2280241393007927,-0.0180412996560335,-0.0018945708870887,4.357196261593699,0.0015391707420349
2025-04-30 01:04:38.308919800,7.267919921875,0.0709398773741389,0.0062759281136095,0.0345282413101258,-0.0001026450190693,-0.0081200361370732,0.9729312677929096,-3.45829936397e-05,left,0.0013774037361145,-0.4610751735378576,0.6225131821677088,-8.760497856280207,-0.2283565837008392,-0.0146590787917375,-0.0017495565116405,4.363088534502685,-0.0008768737316131
2025-04-30 01:04:38.348919800,7.307919921875,0.0708964771088212,0.0025209505110979,0.034485695716036,-0.0045450339093804,-0.0080424795560797,0.9728710405847266,0.0001338118455382,left,0.0005815625190734,-0.4616150596884713,0.621965996613726,-8.758173797246814,-0.2286222870453779,-0.0117087597027421,-0.0010883137583732,4.367829299288988,0.0004184544086456
2025-04-30 01:04:38.388919800,7.347919921875,0.0708964771088212,0.0022421281319111,0.034485695716036,-0.0034636904019862,-0.0080424795560797,0.9728710405847266,0.0001338118455382,left,0.000335693359375,-0.4616150596884713,0.621965996613726,-8.758173797246814,-0.2286222870453779,-0.0040627596899867,-0.0011140666902065,4.367829299288988,0.0006507635116577
2025-04-30 01:04:38.428919800,7.387919921875,0.0708964771088212,0.0045533953234553,0.034485695716036,-0.0041523273102939,-0.0080424795560797,0.9728710405847266,0.0001338118455382,left,0.0004341602325439,-0.4616150596884713,0.621965996613726,-8.758173797246814,-0.2286222870453779,0.0009548044763505,-0.0017749592661857,4.367829299288988,0.0004870593547821
2025-04-30 01:04:38.468919800,7.427919921875,0.0708964771088212,0.0043104011565446,0.034485695716036,-0.0039313938468694,-0.0080424795560797,0.9728710405847266,0.0001338118455382,left,3.48091125488e-05,-0.4616150596884713,0.621965996613726,-8.758173797246814,-0.2286222870453779,-0.0005461550317704,-0.0024290531873703,4.367829299288988,0.0008672773838043
2025-04-30 01:04:38.508920000,7.467920166015625,0.0708964771088212,0.0042377817444503,0.034485695716036,-0.0026708431541919,-0.0080424795560797,0.9728710405847266,0.0001338118455382,left,-0.0020809769630432,-0.4616150596884713,0.621965996613726,-8.758173797246814,-0.2286222870453779,0.008829116821289,-0.0019535608589649,4.367829299288988,-0.0023244023323059
2025-04-30 01:04:38.548919800,7.507919921875,0.0708964771088212,0.0062227114103734,0.034485695716036,0.0023675723932683,-0.0080424795560797,0.9728710405847266,0.0001338118455382,left,-0.0016489624977111,-0.4616150596884713,0.621965996613726,-8.758173797246814,-0.2286222870453779,0.0090873669832944,-0.0019649229943752,4.367829299288988,-0.0014216899871826
2025-04-30 01:04:38.588919800,7.547919921875,0.0709995075463549,0.0053387698717415,0.034453165100268,-0.0004778320435434,-0.0076905401062697,0.9729108855163054,0.0008694604948678,left,-0.0011512041091918,-0.4612761732795077,0.6229733470253646,-8.759586002132297,-0.2284697103921594,0.0002169739454984,-0.0014600083231925,4.364853790609538,-0.0023975074291229
2025-04-30 01:04:38.628919800,7.587919921875,0.0709995075463549,0.0015562146436423,0.034453165100268,0.0010413191048428,-0.0076905401062697,0.9729108855163054,0.0008694604948678,left,-0.0006964206695556,-0.4612761732795077,0.6229733470253646,-8.759586002132297,-0.2284697103921594,-0.0014506591251119,-0.0001299008727073,4.364853790609538,-0.0047618746757507
2025-04-30 01:04:38.668919800,7.627919921875,0.0709995075463549,-0.0102290119975805,0.034453165100268,-0.0018385854782536,-0.0076905401062697,0.9729108855163054,0.0008694604948678,left,0.0010052323341369,-0.4612761732795077,0.6229733470253646,-8.759586002132297,-0.2284697103921594,-0.0071505364030599,0.000855453312397,4.364853790609538,-0.003644436597824
2025-04-30 01:04:38.708919800,7.667919921875,0.070664550063954,-0.0183003321290016,0.0343279495608882,-0.004114510025829,-0.007832296723244,0.9728519465679998,0.0005190101646586,left,0.0008388757705688,-0.4618300783397425,0.6198683667473495,-8.757381185564398,-0.2287344323466272,-0.0162516459822654,0.0004728734493255,4.369717304992675,-0.0014096200466156
2025-04-30 01:04:38.748920000,7.707920166015625,0.0701378106232346,-0.0152998026460409,0.0341398148305217,-0.0061023579910397,-0.0080858174466413,0.9727770873334284,-0.0001010974730472,left,0.0013017654418945,-0.4625406579877036,0.6150376586552709,-8.754606460154056,-0.229071564187122,-0.0135278664529323,-0.0005374923348426,4.375954445816577,0.0006965398788452
2025-04-30 01:04:38.788919800,7.747919921875,0.0696855896935158,-0.0084484294056892,0.0339734657693765,-0.0057393196038901,-0.0082799847682159,0.9727197823052206,-0.0005876506390084,left,0.0007436275482177,-0.4630907997174242,0.6109108975814656,-8.752480554041266,-0.2293326965247056,-0.0094627775251865,-0.0013898275792598,4.380782012103498,0.001838743686676
2025-04-30 01:04:38.828919800,7.787919921875,0.0693529345169012,-0.002481635659933,0.0338344947529033,-0.0051092919893562,-0.0083536337399656,0.9726723185694802,-0.0008017389228645,left,0.0012546181678771,-0.4635467310014572,0.6078608258284628,-8.750690163493156,-0.2295521702015159,-0.0088644828647375,-0.0014400407671928,4.384781895394623,0.0022702515125274
2025-04-30 01:04:38.868919800,7.827919921875,0.0693529345169012,0.0022948030382394,0.0338344947529033,-0.0056755361147224,-0.0083536337399656,0.9726723185694802,-0.0008017389228645,left,0.0009426474571228,-0.4635467310014572,0.6078608258284628,-8.750690163493156,-0.2295521702015159,-0.0059684249572455,-0.0018738731741905,4.384781895394623,0.0020950436592102
2025-04-30 01:04:38.908919800,7.867919921875,0.0693529345169012,0.0010559075744822,0.0338344947529033,-0.0033761688973754,-0.0083536337399656,0.9726723185694802,-0.0008017389228645,left,0.0009143352508544,-0.4635467310014572,0.6078608258284628,-8.750690163493156,-0.2295521702015159,0.0011886898428201,-0.0020381100475788,4.384781895394623,-0.0010626912117004
2025-04-30 01:04:38.948919800,7.907919921875,0.0693529345169012,-0.0078799575567245,0.0338344947529033,0.0019737042021006,-0.0083536337399656,0.9726723185694802,-0.0008017389228645,left,-0.0004916191101074,-0.4635467310014572,0.6078608258284628,-8.750690163493156,-0.2295521702015159,0.0032142715062946,-0.0011017769575119,4.384781895394623,-0.0016099214553833
2025-04-30 01:04:38.988920000,7.947920166015625,0.0686897234628179,-0.0165448281913995,0.0335950931146751,0.0004464557860046,-0.0086256182521301,0.9726956043439212,-0.0015220241001134,left,-0.0012916326522827,-0.4634144483649722,0.6020969285394996,-8.75166982218027,-0.2294785127242152,0.0121157271787524,-0.0011601708829402,4.3836213271826505,-0.0031887888908386
2025-04-30 01:04:39.028919800,7.987919921875,0.0685346854172967,-0.0054190512746572,0.0335867965256052,0.0073853284120559,-0.0088811221860858,0.9727368014575068,-0.0020961638544535,left,-0.0023427009582519,-0.4630555469388066,0.6008478052612394,-8.753332202434539,-0.2292950072338981,0.006778806913644,-0.0013297013938426,4.3804728000238535,0.0016880631446838
2025-04-30 01:04:39.068919800,8.027919921875,0.0685346854172967,-0.0015113619156181,0.0335867965256052,0.0008861194364726,-0.0088811221860858,0.9727368014575068,-0.0020961638544535,left,0.0012259483337402,-0.4630555469388066,0.6008478052612394,-8.753332202434539,-0.2292950072338981,-0.0042026448063552,-0.0021229907870292,4.3804728000238535,-0.0012530982494354
2025-04-30 01:04:39.108919800,8.067919921875,0.0685346854172967,0.0007156089413911,0.0335867965256052,-0.0002246547956019,-0.0088811221860858,0.9727368014575068,-0.0020961638544535,left,0.000284194946289,-0.4630555469388066,0.6008478052612394,-8.753332202434539,-0.2292950072338981,-0.0067884307354688,-0.0017195455729961,4.3804728000238535,-0.0012570321559906
2025-04-30 01:04:39.148919800,8.107919921875,0.0686172248467008,0.00233915890567,0.0336187671273784,-0.0010895179584622,-0.0088699212005974,0.9726841502500853,-0.0020383660732021,left,0.0004870295524597,-0.4635048659157878,0.6014352862929925,-8.751317940002679,-0.2295141366816481,-0.0093157701194286,-0.001005433499813,4.384414523386955,-0.0009318590164184
2025-04-30 01:04:39.188919800,8.147919921875,0.0686369025590848,0.0005057097878307,0.0336162105540811,-0.0006237175548449,-0.0088359063111166,0.972628749757124,-0.0019473063235642,left,-0.0004593729972839,-0.4639880564439707,0.6014621377673,-8.749192033889889,-0.2297505681201299,-0.0087403999641537,-0.0006079599261283,4.388652599348128,-0.0011599659919738
2025-04-30 01:04:39.228920000,8.187920166015624,0.0686369025590848,-0.002849799580872,0.0336162105540811,0.0041933883912861,-0.0088359063111166,0.972628749757124,-0.0019473063235642,left,-0.0007920265197753,-0.4639880564439707,0.6014621377673,-8.749192033889889,-0.2297505681201299,-0.0043784696608781,-0.0003781244158744,4.388652599348128,-0.001017540693283
2025-04-30 01:04:39.268920000,8.227920166015625,0.0686369025590848,-0.0047125434502959,0.0336162105540811,0.0035741874016821,-0.0088359063111166,0.972628749757124,-0.0019473063235642,left,-0.0010323524475097,-0.4639880564439707,0.6014621377673,-8.749192033889889,-0.2297505681201299,-8.069910109e-06,-0.0007579363882541,4.388652599348128,-0.000785082578659
2025-04-30 01:04:39.308919800,8.267919921875,0.0686369025590848,-0.0022988594137132,0.0336162105540811,0.0097674736753106,-0.0088359063111166,0.972628749757124,-0.0019473063235642,left,-0.0025131106376647,-0.4639880564439707,0.6014621377673,-8.749192033889889,-0.2297505681201299,0.0026699777226895,9.90554690361e-05,4.388652599348128,-0.0003533065319061
2025-04-30 01:04:39.348919800,8.307919921875,0.0688986016136075,-0.0064703100360929,0.0337923809439891,0.0021446584723889,-0.0090781465918776,0.9726032149004944,-0.0023779083801589,left,0.0007691979408264,-0.4641546688334932,0.6037014045940712,-8.748304729661346,-0.2298231770500647,-0.0018524073529988,-0.0014052875339984,4.390113611811399,-0.001916229724884
2025-04-30 01:04:39.388919800,8.347919921875,0.0688986016136075,-0.0031767194159328,0.0337923809439891,0.0010529600549489,-0.0090781465918776,0.9726032149004944,-0.0023779083801589,left,-0.0003252029418945,-0.4641546688334932,0.6037014045940712,-8.748304729661346,-0.2298231770500647,-0.0009094739216379,-0.0012282654643058,4.390113611811399,-0.001350849866867
2025-04-30 01:04:39.428919800,8.387919921875,0.0690087319492648,0.0003603368531912,0.0338722719052572,0.0002652849652804,-0.0092075996847182,0.9725803210098722,-0.0026121371712879,left,0.000722587108612,-0.4643285812159345,0.6046121992960571,-8.74747646214366,-0.2299032776656363,-0.0019188933074474,-0.0015823803842067,4.391638629421592,3.17692756652e-05
2025-04-30 01:04:39.468919800,8.427919921875,0.0690087319492648,0.0005546653992496,0.0338722719052572,0.0014514978975057,-0.0092075996847182,0.9725803210098722,-0.0026121371712879,left,0.0001158714294433,-0.4643285812159345,0.6046121992960571,-8.74747646214366,-0.2299032776656363,-0.0026870328001677,-0.0009808801114559,4.391638629421592,-0.0007953643798828
2025-04-30 01:04:39.508920000,8.467920166015626,0.0690087319492648,-0.0061198002658784,0.0338722719052572,-0.0012823862489312,-0.0092075996847182,0.9725803210098722,-0.0026121371712879,left,0.0016037821769714,-0.4643285812159345,0.6046121992960571,-8.74747646214366,-0.2299032776656363,-0.0019602314569056,-0.0011058896780014,4.391638629421592,-0.0013319551944732
2025-04-30 01:04:39.548919800,8.507919921875,0.0688700746765481,-0.0037131246645003,0.0338325487156182,-0.0039874506182968,-0.0093225916445704,0.9725295779177612,-0.0028659835460906,left,0.000633955001831,-0.4647800414670406,0.6032627939810976,-8.745581442177295,-0.2301191567898452,-0.0019681372214108,-0.0012509524822235,4.395596719397604,0.0003168284893035
2025-04-30 01:04:39.588919800,8.547919921875,0.0688700746765481,0.0055414177477359,0.0338325487156182,-0.006532771512866,-0.0093225916445704,0.9725295779177612,-0.0028659835460906,left,0.000963807106018,-0.4647800414670406,0.6032627939810976,-8.745581442177295,-0.2301191567898452,-0.0005805679829791,-0.0020053051412105,4.395596719397604,9.12547111511e-05
2025-04-30 01:04:39.628919800,8.587919921875,0.0688700746765481,0.0080371210351586,0.0338325487156182,-0.0059017790481448,-0.0093225916445704,0.9725295779177612,-0.0028659835460906,left,-0.0002201199531555,-0.4647800414670406,0.6032627939810976,-8.745581442177295,-0.2301191567898452,0.0010850692633539,-0.0017259716987609,4.395596719397604,-0.0003299117088317
2025-04-30 01:04:39.668919800,8.627919921875,0.0686388391018806,0.004437543451786,0.0336587464474654,-0.0091437958180904,-0.009040825434728,0.9725203458386946,-0.0023366568113215,left,-0.0005344748497009,-0.4649148756259527,0.6011998335693031,-8.745129022234678,-0.2301947255055521,0.0015430068597197,-0.0018151476979255,4.396778622658551,-0.0016822218894958
2025-04-30 01:04:39.708919800,8.667919921875,0.0684485332951854,0.0054283030331134,0.0335263329221314,-0.0013391803950071,-0.0088484746016292,0.9725324993605728,-0.0019883069845517,left,-0.0012992024421691,-0.4648509636732463,0.5995548063086346,-8.745523574510216,-0.2301703393288817,0.0044378661550581,-0.0010705478489398,4.396218358427286,-0.0018767416477203
2025-04-30 01:04:39.748920000,8.707920166015626,0.0684485332951854,0.0091395815834403,0.0335263329221314,-0.0009150850819423,-0.0088484746016292,0.9725324993605728,-0.0019883069845517,left,-0.0034329295158386,-0.4648509636732463,0.5995548063086346,-8.745523574510216,-0.2301703393288817,0.0073336781933903,-0.0019222348928451,4.396218358427286,-0.0018578469753265
2025-04-30 01:04:39.788919800,8.747919921875,0.0688988555510984,0.0157271698117256,0.0336515858727491,0.0138092953711748,-0.0084960789920207,0.972557748887184,-0.0011657702769899,left,-0.003577172756195,-0.4645961379537713,0.6035701428972184,-8.746369962206483,-0.2300583033385731,-0.0061387261375784,-0.001500941812992,4.393984608025849,-0.0003678798675537
2025-04-30 01:04:39.828919800,8.787919921875,0.0694988529564776,0.0030077258124947,0.0338734314412692,0.0093909911811351,-0.0082812597270657,0.972509436353164,-0.0005698097097167,left,-0.0010132789611816,-0.4649496558939917,0.6087099169384688,-8.744456237539648,-0.2302377520066983,-0.0150487478822469,-0.0017107054591178,4.397083743084967,-0.0042648911476135
2025-04-30 01:04:39.868919800,8.827919921875,0.0699822797714462,-0.0081884870305657,0.0341094378436709,0.0164532251656055,-0.0083650835216195,0.9724176464770298,-0.0006024396731559,left,-0.0005016326904296,-0.4656742049251104,0.6127142206763848,-8.740980670383571,-0.23058747618254,-0.020795539021492,-0.0006289184093475,4.403433696633577,-0.0014567673206329
2025-04-30 01:04:39.908919800,8.867919921875,0.0702849736011875,-0.012554770335555,0.0343037950271632,0.0102987624704837,-0.0086236079795831,0.9723246913015842,-0.0010362898677217,left,0.0025734901428222,-0.4664189693885722,0.6151295747224241,-8.737520885318517,-0.2309408647508739,-0.0144729390740394,-0.0004937686026096,4.409958422227204,-0.0013998746871948
2025-04-30 01:04:39.948919800,8.907919921875,0.0701721764953652,-0.0077775306999683,0.0343092168423322,-0.0012309662997722,-0.0088805706055869,0.9722662507915606,-0.0015741118727303,left,0.0023421049118041,-0.4669207878971229,0.6139887341242283,-8.735381535202265,-0.2311761020260835,-0.010101300664246,-0.0011968240141868,4.414353150054812,0.0032810270786285
2025-04-30 01:04:39.988920000,8.947920166015624,0.0699561182101065,0.0029752934351563,0.0342107977732349,-0.0055376575328409,-0.0088962897062463,0.9722234922620516,-0.0016439320078803,left,0.0005102753639221,-0.4673199011681062,0.611978161486797,-8.733755395305156,-0.231369883484719,-0.0078340899199247,-0.0022711940109729,4.417848006433248,0.0025578141212463
2025-04-30 01:04:40.028919800,8.987919921875,0.0699561182101065,0.0058466517366468,0.0342107977732349,-0.0011365632526576,-0.0088962897062463,0.9722234922620516,-0.0016439320078803,left,-0.0020791292190551,-0.4673199011681062,0.611978161486797,-8.733755395305156,-0.231369883484719,0.0021816240623593,-0.0016796924173831,4.417848006433248,-0.000997245311737
2025-04-30 01:04:40.068919800,9.027919921875,0.0699561182101065,0.0006597284227609,0.0342107977732349,0.008895419538021,-0.0088962897062463,0.9722234922620516,-0.0016439320078803,left,-0.0034281015396118,-0.4673199011681062,0.611978161486797,-8.733755395305156,-0.231369883484719,0.0077685243450105,-0.0006683692336082,4.417848006433248,-0.0032294392585754
2025-04-30 01:04:40.108919800,9.067919921875,0.0699561182101065,-0.0082849953323602,0.0342107977732349,0.0042331046424806,-0.0088962897062463,0.9722234922620516,-0.0016439320078803,left,-0.001080572605133,-0.4673199011681062,0.611978161486797,-8.733755395305156,-0.231369883484719,-0.0020475280471146,-0.000307235866785,4.417848006433248,-0.0017026364803314
2025-04-30 01:04:40.148919800,9.107919921875,0.0699561182101065,-0.000816308427602,0.0342107977732349,0.0038461061194539,-0.0088962897062463,0.9722234922620516,-0.0016439320078803,left,-0.0002057552337646,-0.4673199011681062,0.611978161486797,-8.733755395305156,-0.231369883484719,-0.0062320618890225,-0.0006363727152347,4.417848006433248,-0.0008878111839294
2025-04-30 01:04:40.188919800,9.147919921875,0.0699561182101065,0.0036817155778408,0.0342107977732349,-0.0018095644190907,-0.0088962897062463,0.9722234922620516,-0.0016439320078803,left,0.0002585649490356,-0.4673199011681062,0.611978161486797,-8.733755395305156,-0.231369883484719,-0.0050538573414087,-0.0009738989174365,4.417848006433248,-0.0010863542556762
2025-04-30 01:04:40.228920000,9.187920166015624,0.0699561182101065,0.000320753082633,0.0342107977732349,-0.0006671273149549,-0.0088962897062463,0.9722234922620516,-0.0016439320078803,left,-0.0014627575874328,-0.4673199011681062,0.611978161486797,-8.733755395305156,-0.231369883484719,-0.0032314858399331,-0.0005931705236434,4.417848006433248,-0.0020636022090911
2025-04-30 01:04:40.268920000,9.227920166015624,0.0701882973651817,-0.0052270554006099,0.0343420044943832,0.0039227046072483,-0.0090108097894614,0.972180781949564,-0.0018127985180474,left,-0.0007334947586059,-0.4676485682452485,0.6139041245806962,-8.73216432672143,-0.2315257013347804,-0.0034482516348361,-0.0007336214184761,4.420725315435231,-0.0023418366909027
2025-04-30 01:04:40.308919800,9.267919921875,0.0701882973651817,-0.0107748638838529,0.0343420044943832,0.0085125360637903,-0.0090108097894614,0.972180781949564,-0.0018127985180474,left,0.0001580715179443,-0.4676485682452485,0.6139041245806962,-8.73216432672143,-0.2315257013347804,-0.0036650171969085,-0.0006776861846446,4.420725315435231,-0.0023266971111297
2025-04-30 01:04:40.348919800,9.307919921875,0.0701882973651817,-0.0027505978941917,0.0343420044943832,-0.0027278531342744,-0.0090108097894614,0.972180781949564,-0.0018127985180474,left,0.0005186200141906,-0.4676485682452485,0.6139041245806962,-8.73216432672143,-0.2315257013347804,-0.0004634382203221,-0.0022149831056594,4.420725315435231,0.0002883672714233
2025-04-30 01:04:40.388919800,9.347919921875,0.0701882973651817,0.0122044133022427,0.0343420044943832,-0.0033161011524498,-0.0090108097894614,0.972180781949564,-0.0018127985180474,left,-0.0015174746513366,-0.4676485682452485,0.6139041245806962,-8.73216432672143,-0.2315257013347804,-0.0031840987503528,-0.0012986920773983,4.420725315435231,0.0021511018276214
2025-04-30 01:04:40.428919800,9.387919921875,0.0701882973651817,0.0020455038174986,0.0343420044943832,0.000137343769893,-0.0090108097894614,0.972180781949564,-0.0018127985180474,left,-0.0012646317481994,-0.4676485682452485,0.6139041245806962,-8.73216432672143,-0.2315257013347804,0.0038456059992313,0.0023701936006546,4.420725315435231,-0.005530446767807
2025-04-30 01:04:40.468919800,9.427919921875,0.0701882973651817,-0.0173941887915134,0.0343420044943832,-0.0065759066492319,-0.0090108097894614,0.972180781949564,-0.0018127985180474,left,-0.0011265277862548,-0.4676485682452485,0.6139041245806962,-8.73216432672143,-0.2315257013347804,0.011148546822369,-6.78077340126e-05,4.420725315435231,-0.0059942305088043
2025-04-30 01:04:40.508920000,9.467920166015626,0.0692474872304337,-0.0013231951743364,0.0339961009788356,-0.0110100619494915,-0.0093589973604084,0.9722328570895844,-0.0027651493185683,left,0.0042548179626464,-0.467298414207525,0.6057955638617277,-8.734281465005875,-0.231343574361082,0.0069780605845153,-0.0040960907936096,4.417659790384769,-0.0008567869663238
2025-04-30 01:04:40.548919800,9.507919921875,0.0692337878754123,0.0415955856442451,0.033903364880696,0.00607998855412,-0.008979076540865,0.9722977474819384,-0.0020050248842727,left,-0.0105344057083129,-0.4667707204011196,0.6058371014485135,-8.736614876389503,-0.2310999717131133,0.011572116985917,-0.0001221038401126,4.413039144846797,0.0036345422267913
2025-04-30 01:04:40.588919800,9.547919921875,0.0709103373187322,0.0431158728897571,0.0344658735086163,0.0123814437538385,-0.0081063703320204,0.9722918345610588,0.0001845294379002,left,0.0042787790298461,-0.4666544299139007,0.6205199625238775,-8.73609815903902,-0.231073711599813,-0.015374056994915,-0.0036124624311923,4.412020615454018,-0.0023550987243652
2025-04-30 01:04:40.628919800,9.587919921875,0.0714533416385164,0.0043371468782424,0.0345997747318007,0.0012456597760319,-0.0076588231197214,0.9721681130861634,0.0012709732473916,left,-0.0015078783035278,-0.4676791581779171,0.6249404823798685,-8.731245458310841,-0.2315884904081556,-0.0292950496077537,0.0010279715061187,4.420993026460707,-0.0068523585796356
2025-04-30 01:04:40.668919800,9.627919921875,0.071575888063192,-0.0123722627758979,0.0346865815066616,0.0042677642777562,-0.0078219994697103,0.9720531252577684,0.0009991287066572,left,0.0009483098983764,-0.4686440702570428,0.6257051100768148,-8.726910059455037,-0.2320523008965073,-0.0174636580049991,0.001068040728569,4.429437321940064,-0.0026142597198486
2025-04-30 01:04:40.708919800,9.667919921875,0.0712330907107396,-0.010615543462336,0.0345796391474053,-0.0149249834939837,-0.0080655598979714,0.9719465733510274,0.0004500750290908,left,0.0050705075263977,-0.4695942342486175,0.6224136673159897,-8.722921866601705,-0.2325059238440701,-0.0281301699578762,-0.0013106055557727,4.437748638689517,0.004675954580307
2025-04-30 01:04:40.748920000,9.707920166015626,0.0705333324600661,-0.0011415043845772,0.0342523351474986,-0.0087746912613511,-0.0080688356137176,0.971853001267799,0.0003078276169109,left,-0.0005674362182617,-0.4704971305732378,0.6160269619535654,-8.719355114030838,-0.2329450553417434,-0.0093662086874246,-0.0001377612352371,4.445642606809735,-0.0005817115306854
2025-04-30 01:04:40.788919800,9.747919921875,0.0702152634474508,-0.0054851761087775,0.0341143214682767,-0.0093204844743013,-0.0081046830330365,0.9718446821924016,0.0001617841175581,left,0.0033183693885803,-0.4706099452668514,0.6132184073388576,-8.719049993604422,-0.2329986703286834,0.0058419685810804,-0.0015840418636798,4.446628987498581,-0.0030508637428283
2025-04-30 01:04:40.828919800,9.787919921875,0.0697216971563488,-0.0124193597584962,0.0339299169287103,-0.0014968588948249,-0.0082728965999402,0.9718701952098308,-0.0003084196637146,left,-0.0048859119415283,-0.4704462660499395,0.6089655721999705,-8.720077583086491,-0.2329131615362645,-0.000237722415477,-0.0004672035574913,4.445198077912629,0.0022129416465759
2025-04-30 01:04:40.868919800,9.827919921875,0.0697752659520844,-0.0190954133868217,0.0340250791540175,0.0135777508839964,-0.0085732597985569,0.9718468328395312,-0.0009077325002825,left,-0.0016074776649475,-0.4706177614116287,0.609379559828341,-8.719284386882185,-0.2329860778582573,-0.0024342914111912,-0.0019779801368713,4.446697084298729,-0.0035470426082611
2025-04-30 01:04:40.908919800,9.867919921875,0.0698573721569682,-0.0271015986800193,0.0342088662003994,0.0223750285804271,-0.0091902732284928,0.9718133407153278,-0.0021499192257768,left,-0.0013715624809265,-0.4708458148173697,0.6100246527988463,-8.718222895130515,-0.2330753388156266,-0.0064650108106434,-0.0002737455070018,4.448690303942561,-0.0014351308345794
2025-04-30 01:04:40.948919800,9.907919921875,0.0704731387271439,-0.020493583753705,0.034627414197396,0.0224498677998781,-0.0097639240083443,0.9717817315642614,-0.0031780077719788,left,0.0011342167854309,-0.470984051315984,0.6153496472138911,-8.717232130527496,-0.233121904491861,0.002354905474931,-0.0015249773859977,4.449898510688543,-0.0009506940841674
2025-04-30 01:04:40.988920000,9.947920166015624,0.0708707565976244,-0.0124720642343163,0.0348861891381505,0.0152236800640821,-0.0100696861744039,0.9718256302994565,-0.0037279632136104,left,0.000758945941925,-0.4705255792525907,0.6189600927960127,-8.719020767509937,-0.2328875739305634,0.0069291167892515,-0.0016184225678443,4.4458913208737965,0.0001567900180816
2025-04-30 01:04:41.028919800,9.987919921875,0.0708707565976244,-0.0044505428522825,0.0348861891381505,0.0079974932596087,-0.0100696861744039,0.9718256302994565,-0.0037279632136104,left,0.0002013444900512,-0.4705255792525907,0.6189600927960127,-8.719020767509937,-0.2328875739305634,0.0115033276379108,-0.0013436898589134,4.4458913208737965,0.0008556544780731
2025-04-30 01:04:41.068919800,10.027919921875,0.0712220933878244,-0.0053489455021917,0.0351629829198907,-0.0054508354514837,-0.0105246343617495,0.9719270380172462,-0.0046138710592523,left,0.0024890303611755,-0.4695612315032566,0.6223281809896231,-8.723075011336803,-0.2324016500069393,0.01751459389925,-0.0026019811630249,4.437459884876013,-0.0033478140830993
2025-04-30 01:04:41.108919800,10.067919921875,0.0709014624301876,-0.0041650845669209,0.0350550473566931,-0.0006533991545438,-0.0106612170763017,0.9720362655545104,-0.005003273252038,left,-0.0018933415412902,-0.4686529397208243,0.619816563494876,-8.727291167727111,-0.2319550389520052,0.0273094307631254,-0.0004184767603874,4.429515063351393,-0.0021108090877532
2025-04-30 01:04:41.148919800,10.107919921875,0.0709441520794833,0.0080145820975303,0.035077024921777,0.0033012554049491,-0.0106350161164154,0.9721800064591208,-0.0049826675486403,left,-0.0007256269454956,-0.4674064981142354,0.6205800221480429,-8.732765215224028,-0.2313493326248087,0.0288535673171281,-0.0001246929168701,4.418606131324172,-0.0007396638393402
2025-04-30 01:04:41.188919800,10.147919921875,0.0708670403195328,0.0081372885033488,0.0350191677442345,-0.0035392446443438,-0.0105050963989741,0.9723220369838682,-0.0047758712378417,left,-0.0021485090255737,-0.4661987659015102,0.6202840348761528,-8.73812937260568,-0.2307662406425351,0.0246224403381347,-0.0012140609323978,4.408029499991238,-0.0017238855361938
2025-04-30 01:04:41.228920000,10.187920166015624,0.0711935359316747,0.0117799416184425,0.0351094497859407,0.0007687453180551,-0.0102258559113107,0.972428773707354,-0.0041572634208888,left,0.0027354955673217,-0.465251735065207,0.6234335849482566,-8.742086585798859,-0.2303149378272561,0.0233640987426042,-0.0054982714354991,4.399731334984303,-0.0059498846530914
2025-04-30 01:04:41.268920000,10.227920166015624,0.0713714059888836,0.0103585524484515,0.0351510021088493,0.0117848189547657,-0.0100387035113087,0.9724951364564106,-0.0037508560831076,left,-0.010152518749237,-0.4646664296403937,0.6251720991786569,-8.744542746779322,-0.2300365659287504,-0.0008245110511779,-0.0011372789740562,4.394600694097578,0.0007795095443725
2025-04-30 01:04:41.308919800,10.267919921875,0.0721876943361311,0.0120190978050231,0.035485893226415,-0.0094735631719231,-0.0098983543275396,0.9723813170769922,-0.0032375170430063,left,0.0092907547950744,-0.4655511667454646,0.6320292715970427,-8.740147726690768,-0.2304717636337339,-0.0413112305104732,-0.0043588951230049,4.40235554600805,0.0070383250713348
2025-04-30 01:04:41.348919800,10.307919921875,0.0710544210919308,0.1361193656921386,0.0346052064851094,-0.1043286398053169,-0.0084293067228071,0.972236899458871,-0.0004301744203915,left,0.0196787118911743,-0.4670865786444875,0.6216432674653828,-8.734106108438969,-0.231272572230316,-0.041590716689825,-0.0025637671351432,4.415805102428793,0.0358956158161163
2025-04-30 01:04:41.388919800,10.347919921875,0.0709499430035233,0.31745046377182,0.0331999830118567,-0.1645986884832382,-0.0027626141791847,0.9721796816972194,0.0112308938307084,left,0.0108468532562255,-0.4678780833956164,0.6204827723186462,-8.730681979209184,-0.2318552859501992,-0.0365091077983379,-0.0052999481558799,4.422734317170083,0.0269644856452941
2025-04-30 01:04:41.428919800,10.387919921875,0.0717356204584144,0.2346804738044738,0.0320186848731825,-0.1072224229574203,0.0037109384302828,0.9721884975043756,0.024727672296163,left,-0.0083016157150268,-0.4676628474050163,0.627410306559503,-8.731140828892588,-0.2319709393477134,0.0171366743743419,0.0030268281698226,4.420850110858678,-0.0262171626091003
2025-04-30 01:04:41.468919800,10.427919921875,0.0719881303638492,0.0235803425312042,0.031482522490917,-0.021678403019905,0.0065667222412733,0.9723804373043208,0.0305903912153124,left,-0.0140063166618347,-0.4658326519396774,0.6301958456248045,-8.739037719622253,-0.2311751372640667,0.0587265789508819,0.0064500570297241,4.404821936121583,-0.042848914861679
2025-04-30 01:04:41.508920000,10.467920166015626,0.0715546070693706,-0.1089952588081359,0.0315889950936469,0.0405073016881942,0.0054442253171027,0.9726805144250908,0.0280812131897102,left,-0.0055970549583435,-0.4633431656804033,0.6271892842199653,-8.750220792415737,-0.2299240197451419,0.0612951070070266,-0.0017182268202304,4.382996181021631,-0.0166492760181427
2025-04-30 01:04:41.548919800,10.507919921875,0.0715380197439981,-0.0832665637135505,0.032146859786396,0.0745211094617843,0.0031511505461304,0.9728805397962942,0.0232984795982228,left,-0.0084321498870849,-0.4616850752994714,0.6275627206422388,-8.757467694804072,-0.2290414767541573,0.0306292865425348,-0.0040334723889827,4.368444216316938,0.0039387047290802
2025-04-30 01:04:41.588919800,10.547919921875,0.0730204767195865,-0.0527462922036647,0.0331318184544792,0.0513586550951004,0.0018667246123128,0.9728711843149174,0.021002903350513,left,-0.0023392438888549,-0.461580608806274,0.640577904233709,-8.756983126157522,-0.2289550576815836,0.0126691032201051,-0.0017401874065399,4.367526809211075,0.0040352344512939
2025-04-30 01:04:41.628919800,10.587919921875,0.0745031574851702,-0.0222260244190692,0.0341166956981531,0.0281961988657712,0.0005823478862484,0.972859210758662,0.0187073948908117,left,0.0037504434585571,-0.4614791660487992,0.6535939646080136,-8.756465239763259,-0.2288680427224289,-0.0052910782396793,0.0005530044436454,4.366636290112138,0.0041289627552032
2025-04-30 01:04:41.668919800,10.627919921875,0.0750513836046649,0.0012513156980276,0.034460421362763,0.0079760905355215,0.0002067954501542,0.9728798632929344,0.0180539059042266,left,0.002786636352539,-0.4612170781343728,0.6584802022796123,-8.75724674552977,-0.228729472723939,0.0093136550858616,0.0004607588052749,4.3643347351714965,0.0028319060802459
2025-04-30 01:04:41.708919800,10.667919921875,0.0750513836046649,0.0021221509668976,0.034460421362763,-0.0060391882434487,0.0002067954501542,0.9728798632929344,0.0180539059042266,left,-0.0012249946594238,-0.4612170781343728,0.6584802022796123,-8.75724674552977,-0.228729472723939,0.011778250336647,-0.0001342967152595,4.3643347351714965,-0.0043811500072479
2025-04-30 01:04:41.748920000,10.707920166015626,0.0750513836046649,-0.0068942466750741,0.034460421362763,-0.0130881126970052,0.0002067954501542,0.9728798632929344,0.0180539059042266,left,-0.003599464893341,-0.4612170781343728,0.6584802022796123,-8.75724674552977,-0.228729472723939,-0.0062865335494279,-0.0003801882266998,4.3643347351714965,-0.014379858970642
2025-04-30 01:04:41.788919800,10.747919921875,0.0740713935666167,-0.0125094531103968,0.0340311044044888,-0.0073407622985541,0.0001053175320147,0.9728719485589956,0.0176233707797859,left,-0.0036336183547973,-0.4614336195432761,0.649827890072763,-8.756945132234693,-0.2288273484941445,-0.0299025569111108,0.0002703368663787,4.366236184878647,-0.0105376839637756
2025-04-30 01:04:41.828919800,10.787919921875,0.073975344774256,0.0323734730482101,0.0339025156796898,-0.0073697147890925,0.0003418812893712,0.9726227806735026,0.0181729293008588,left,-0.0017858743667602,-0.4636268108117559,0.6482775188256055,-8.74743671465516,-0.2299031973625433,-0.0958894193172454,0.0009572878479957,4.385484198445082,0.0072296559810638
2025-04-30 01:04:41.868919800,10.827919921875,0.0740530856350895,0.0012505054473876,0.0337371834065457,-0.0139149874448776,0.0009520227900104,0.9721388341324688,0.0196107573497176,left,-0.0044571757316589,-0.4678146913158154,0.6475930436927825,-8.72899387999177,-0.23196331373231,-0.0924789607524871,-0.0035127773880958,4.422179313635826,-0.015387624502182
2025-04-30 01:04:41.908919800,10.867919921875,0.0737034204941069,-0.0089113097637891,0.0335645656786039,0.0051423087716102,0.0009066590498225,0.9719469722651992,0.0195009140707804,left,-0.0014235973358154,-0.4695222604811219,0.6439837671544403,-8.721676834976673,-0.2327910742330809,-0.0200071409344673,-0.0004031062126159,4.437119108614326,-0.0050229430198669
2025-04-30 01:04:41.948919800,10.907919921875,0.0736204902796134,-0.011438931338489,0.0335622816938183,-0.0035542258992791,0.0007107376490719,0.9718518799575964,0.0191104471877257,left,0.0018173456192016,-0.4703545038021174,0.6429886186372489,-8.718044031432271,-0.2331888421293363,-0.0222025234252214,0.0002921074628829,4.444396113879979,0.0015963613986968
2025-04-30 01:04:41.988920000,10.947920166015624,0.0726399988602467,-0.0291483215987682,0.0331963117274781,-0.0119543354958295,0.0003575034096822,0.9718534166736305,0.0181532598057654,left,-0.0065214037895202,-0.4704840187107244,0.634398558011651,-8.718096053880453,-0.2332355352449892,0.0052447710186243,-0.0007093474268913,4.445528040519356,0.0003604888916015
2025-04-30 01:04:42.028919800,10.987919921875,0.0721511350035087,-0.0259110778570175,0.0330862891251384,0.0014223223552107,-0.0001270675647456,0.9718394305729542,0.0170460014176216,left,-0.0020056962966918,-0.4706745552432007,0.6300755071807652,-8.7175606318295,-0.233309727772608,-0.0103483563289046,-0.0003362968564033,4.447193635644019,0.0041877031326293
2025-04-30 01:04:42.068919800,11.027919921875,0.0718022547128934,-0.0320992246270179,0.0330447413225386,0.0011777692707255,-0.0006668983543165,0.971738532494162,0.0158858551138871,left,0.0050687193870544,-0.4715880698308404,0.6267423441700637,-8.713723830145597,-0.2337344338243228,-0.0281701907515525,-0.0003582760691642,4.455176158830524,-0.0009520649909973
2025-04-30 01:04:42.108919800,11.067919921875,0.0713653371094223,-0.022416990250349,0.0329560252470752,0.0016650164034217,-0.0011941114729514,0.9715958861490313,0.0147435985004889,left,0.0032421946525573,-0.4728670952010093,0.6225283066716045,-8.708305896750092,-0.2343371003205966,-0.0309831872582435,-0.0016001239418983,4.466346372142434,0.0024784207344055
2025-04-30 01:04:42.148919800,11.107919921875,0.0711826382528939,-0.0098460000008344,0.0329378636888896,0.0051381662487983,-0.00154201487422,0.9714174023492887,0.0140410354783551,left,0.0019065141677856,-0.4744128178578099,0.6204455090481787,-8.701523104742169,-0.2350763992421925,-0.045583464205265,-0.0039690360426902,4.479835968312621,0.0068595111370086
2025-04-30 01:04:42.188919800,11.147919921875,0.07155616293109,0.0003656987100839,0.0330731867217661,0.0055438820272684,-0.0014466480630257,0.9712912030524988,0.0143662062251843,left,0.0022244453430175,-0.4754369195578738,0.6233673878442496,-8.6967095669806,-0.2355788155681128,-0.0176652390509843,-0.0031231082975864,4.488767462787032,0.0025198757648468
2025-04-30 01:04:42.228920000,11.187920166015624,0.0719303329201062,0.0105773983523249,0.0332085158756218,0.0059495978057384,-0.0013512217337712,0.9711647972541866,0.0146921179265546,left,0.0025413632392883,-0.4764609871630705,0.6262907279450446,-8.691886676868796,-0.2360811785169393,0.0102529898285865,-0.0022773519158363,4.497693988825381,-0.0018192827701568
2025-04-30 01:04:42.268920000,11.227920166015624,0.0719191421261249,0.0043507586233317,0.033192700472501,-0.0018193218857049,-0.001258085955866,0.9712793140498396,0.014844534960539,left,-0.0012038946151733,-0.4754904187046621,0.62650678184852,-8.69624370303452,-0.2356124509126725,0.0398212969303131,-0.0012307092547416,4.489233911255002,-0.0011310279369354
2025-04-30 01:04:42.308919800,11.267919921875,0.0722334827649422,0.0062067089602351,0.0333382223044699,0.0066037951037287,-0.0011834502300218,0.9714635094916592,0.0150132239901784,left,-0.0017820596694946,-0.4738763377656502,0.629762495708838,-8.703262057363986,-0.2348312526973499,0.0351392179727554,-0.0028329193592071,4.475155409280956,-0.0005154013633728
2025-04-30 01:04:42.348919800,11.307919921875,0.0727958644440735,0.0138728925958275,0.0335672575639822,0.0076466258615255,-0.000986393921289,0.9716362622332388,0.0154953404347536,left,-0.0020278692245483,-0.4723215817588787,0.6351622358605266,-8.709835006013511,-0.2340838379177584,0.0336134359240531,-0.0009447336196899,4.4615831032633775,-0.0031458437442779
2025-04-30 01:04:42.388919800,11.347919921875,0.0732016781863519,0.0062377024441957,0.0337367913361396,0.0125433858484029,-0.000854058853073,0.971774687839192,0.0158175827933455,left,-0.0042678117752075,-0.4710774040407027,0.6391022056579589,-8.715106224414706,-0.2334846651608305,0.0231026224792003,0.0004683136940002,4.450714210985601,-0.0064479112625122
2025-04-30 01:04:42.428919800,11.387919921875,0.0736744361192839,-0.0179069694131612,0.0340135835295032,0.0175625998526811,-0.0010621365289961,0.9718623455917084,0.0154710472477256,left,-0.0029190182685852,-0.4702538542774091,0.643491891984269,-8.71845553484261,-0.233078453509187,0.0124939689412713,0.0016679763793945,4.443516116175055,-0.0084166824817657
2025-04-30 01:04:42.468919800,11.427919921875,0.0737250218062051,-0.0327747166156768,0.0341820670910114,0.00629039760679,-0.0016654605162707,0.9718665366834128,0.0142396196705056,left,0.0030114650726318,-0.4702026111493985,0.6439496456891298,-8.718650180631876,-0.2330325424812067,-0.0091908564791083,0.0002999007701873,4.4430680801466105,-0.0014396011829376
2025-04-30 01:04:42.508920000,11.467920166015626,0.0728952629137335,-0.0190130397677421,0.0339296701660864,-0.0119737228378653,-0.0022440273210703,0.9717701471890662,0.0128857276115428,left,0.0034331679344177,-0.4711414516649173,0.6364109938126057,-8.715017377087474,-0.2334664196715718,-0.0269890911877155,-0.0026914402842521,4.451273890694976,0.0047670900821685
2025-04-30 01:04:42.548919800,11.507919921875,0.0724174164439195,0.0151465646922588,0.0336763567003625,-0.0157996658235788,-0.0021523434527911,0.9716546369251078,0.0129996830278584,left,-0.0008883476257324,-0.4722017972133563,0.631904622304067,-8.710607743951678,-0.2339839975739221,-0.0139631573110818,-0.0036767311394214,4.460536809080839,0.0009045004844665
2025-04-30 01:04:42.588919800,11.547919921875,0.0723414856430163,0.0217727255076169,0.0335235536870138,-0.0110775604844093,-0.0016709970208059,0.9716362957957476,0.0139788689060864,left,-0.0018895268440246,-0.4723787413326566,0.6311861718364059,-8.709868908283115,-0.2340864471927634,-0.0041506746783852,-0.0038669779896736,4.46208228495717,-6.22272491455e-05
2025-04-30 01:04:42.628919800,11.587919921875,0.0723414856430163,0.0095068654045462,0.0335235536870138,-0.0090729007497429,-0.0016709970208059,0.9716362957957476,0.0139788689060864,left,-0.0009241104125976,-0.4723787413326566,0.6311861718364059,-8.709868908283115,-0.2340864471927634,-0.0119374170899391,-0.0029144696891307,4.46208228495717,-0.0021581947803497
2025-04-30 01:04:42.668919800,11.627919921875,0.0723414856430163,-0.00519575830549,0.0335235536870138,0.0082705626264214,-0.0016709970208059,0.9716362957957476,0.0139788689060864,left,-0.0004486441612243,-0.4723787413326566,0.6311861718364059,-8.709868908283115,-0.2340864471927634,-0.0046008378267288,-0.0012526288628578,4.46208228495717,-0.0026848316192626
2025-04-30 01:04:42.708919800,11.667919921875,0.0723414856430163,-0.0110366875305771,0.0335235536870138,0.0050498759374022,-0.0016709970208059,0.9716362957957476,0.0139788689060864,left,-0.0008695721626281,-0.4723787413326566,0.6311861718364059,-8.709868908283115,-0.2340864471927634,0.0065742377191782,-0.0029268339276313,4.46208228495717,0.0004035234451293
2025-04-30 01:04:42.748920000,11.707920166015626,0.0723414856430163,0.0077138217166066,0.0335235536870138,0.0150393471121788,-0.0016709970208059,0.9716362957957476,0.0139788689060864,left,-0.0038136839866638,-0.4723787413326566,0.6311861718364059,-8.709868908283115,-0.2340864471927634,-0.0035576885566115,-0.0032224655151367,4.46208228495717,0.0060464143753051
2025-04-30 01:04:42.788919800,11.747919921875,0.0728587063565676,0.0084943594411015,0.0337196758355391,0.0133425993844866,-0.0015412089582923,0.9715390625854364,0.014399658283494,left,-0.0032718181610107,-0.473138995251177,0.6354439023461192,-8.706155440717936,-0.2344623894237268,-0.0057552438229322,-0.0035904310643672,4.468720115536451,0.0027815103530883
2025-04-30 01:04:42.828919800,11.787919921875,0.0733764765985858,0.0092748971655964,0.0339157927289408,0.0116458507254719,-0.0014114453796936,0.971441615866774,0.014820998896762,left,-0.0027305483818054,-0.4738990179999863,0.6397024365734308,-8.70243554341197,-0.2348382686532033,-0.0079527990892529,-0.0039585009217262,4.475353269940614,-0.0004829168319702
2025-04-30 01:04:42.868919800,11.827919921875,0.0733764765985858,0.0058481553569436,0.0339157927289408,0.0061351843178272,-0.0014114453796936,0.971441615866774,0.014820998896762,left,0.0020146965980529,-0.4738990179999863,0.6397024365734308,-8.70243554341197,-0.2348382686532033,1.06086954474e-05,-0.0031473822891712,4.475353269940614,-0.0027283132076263
2025-04-30 01:04:42.908919800,11.867919921875,0.0733764765985858,0.0008816490881145,0.0339157927289408,8.43731686472e-05,-0.0014114453796936,0.971441615866774,0.014820998896762,left,0.0001769661903381,-0.4738990179999863,0.6397024365734308,-8.70243554341197,-0.2348382686532033,0.0016416304279118,-0.0011027753353118,4.475353269940614,-0.0010295212268829
2025-04-30 01:04:42.948919800,11.907919921875,0.0733764765985858,0.0043270094320178,0.0339157927289408,0.00965719204396,-0.0014114453796936,0.971441615866774,0.014820998896762,left,-0.0020810961723327,-0.4738990179999863,0.6397024365734308,-8.70243554341197,-0.2348382686532033,0.0064073372632265,-0.0021266788244247,4.475353269940614,-0.003829687833786
2025-04-30 01:04:42.988920000,11.947920166015624,0.0745329187964754,-0.0056860037147998,0.0344424937456775,0.0186382606625556,-0.001394686719556,0.9714394611216454,0.0151292608502773,left,-0.0055692195892333,-0.4737505234010743,0.6498153228521346,-8.702352541303634,-0.2347706086195318,-0.009179051965475,0.0008485615253448,4.47405738491118,-0.0027090609073638
2025-04-30 01:04:43.028919800,11.987919921875,0.0754374819278192,-0.0116731859743595,0.0349201367413089,0.0290495790541172,-0.0016986976546253,0.9713350990177584,0.0147517386218571,left,-0.0024792551994323,-0.474503944236295,0.6574326659880578,-8.698397081676125,-0.2351292644016843,-0.0235866531729698,0.0029498487710952,4.4806309180825945,-0.0038411021232604
2025-04-30 01:04:43.068919800,12.027919921875,0.0759006742551968,-0.0132226273417472,0.0352054653012381,-0.0023128353059291,-0.0020487937783099,0.9712219445176212,0.0141783282544167,left,0.0064080357551574,-0.47539426284829,0.6611588469043373,-8.694110782659052,-0.2355510868614563,-0.0172289796173572,-0.0020686164498329,4.488395414604247,-0.0041711926460266
2025-04-30 01:04:43.108919800,12.067919921875,0.0755823503546866,0.015442494302988,0.0350333850837631,-0.0083865709602832,-0.0019825994646947,0.9711290919295243,0.0142705649414882,left,-0.0015251636505126,-0.4762322586129212,0.6581070581182837,-8.690566826441884,-0.23595988821647,-0.024192227050662,-0.0014174208045005,4.495700769181549,0.0031788945198059
2025-04-30 01:04:43.148919800,12.107919921875,0.0758157834544585,0.0298754218965768,0.0349931802626829,-0.0091513507068157,-0.0014404150561277,0.9709883113965588,0.0154904183810134,left,-0.0022659301757812,-0.4774011562613319,0.6597372166033834,-8.68516759774685,-0.2365484953377484,-0.0324689522385597,-0.0020863339304924,4.505884894065559,-0.0009392797946929
2025-04-30 01:04:43.188919800,12.147919921875,0.0761113689304236,0.0062747914344072,0.0350013408488626,-0.0016504167579114,-0.0009664189685822,0.9708826560517396,0.0165730548100839,left,-0.0018026828765869,-0.4782568214723822,0.662010933689028,-8.681124459835887,-0.2369826206266461,-0.0173185523599386,-0.0004670172929763,4.513336379115283,-0.0071293115615844
2025-04-30 01:04:43.228920000,12.187920166015624,0.0760299729830041,-0.0110397674143314,0.034968743255265,0.0070379977114498,-0.001024724032667,0.9707977738951828,0.0164623034134328,left,-0.0005351305007934,-0.4789868324911974,0.6610539252251386,-8.67789088474214,-0.2373350094205408,-0.0197329353541135,0.0014653429388999,4.519691008839011,-0.0019668042659759
2025-04-30 01:04:43.268920000,12.227920166015624,0.0759061798519466,-0.0152663998305797,0.0349830159071168,-0.0006403746083378,-0.0013560403407911,0.9707069095479636,0.0157806866384406,left,0.0011419057846069,-0.4797692299799279,0.6597112784445286,-8.674443959158658,-0.2377028483625723,-0.0133001171052455,-0.0004018098115921,4.526498643027246,-0.0013261437416076
2025-04-30 01:04:43.308919800,12.267919921875,0.0759061798519466,-0.0072660995647311,0.0349830159071168,-0.0072354632429778,-0.0013560403407911,0.9707069095479636,0.0157806866384406,left,0.0014026761054992,-0.4797692299799279,0.6597112784445286,-8.674443959158658,-0.2377028483625723,0.0006646215915679,-0.0010081455111503,4.526498643027246,-0.0010673105716705
2025-04-30 01:04:43.348919800,12.307919921875,0.0759061798519466,-0.0020873118191957,0.0349830159071168,-0.0182383228093385,-0.0013560403407911,0.9707069095479636,0.0157806866384406,left,-8.02278518676e-05,-0.4797692299799279,0.6597112784445286,-8.674443959158658,-0.2377028483625723,-0.0055144224315881,-0.0026043653488159,4.526498643027246,0.0005907416343688
2025-04-30 01:04:43.388919800,12.347919921875,0.0743783606403514,0.0039880615659058,0.0343148016377373,-0.0100982170552015,-0.0014994230881625,0.9706745642751172,0.0151303296784876,left,-0.0012108087539672,-0.4802599860161983,0.6462924094229936,-8.673225231018662,-0.2379308567449949,-0.0076941819861531,-0.0005130022764205,4.530767406387627,-0.0011418163776397
2025-04-30 01:04:43.428919800,12.387919921875,0.0735979887852504,-2.7981586754e-06,0.0339568586415313,-0.009704602882266,-0.0014888857741333,0.9706937561851025,0.0149588201454815,left,-0.0025503039360046,-0.4802098673002135,0.6395405240099876,-8.67395354529321,-0.2379041782694295,0.0091429008170962,-0.0016140788793563,4.530331645318865,-0.0060123205184936
2025-04-30 01:04:43.468920000,12.427920166015625,0.0735979887852504,0.0077697499655187,0.0339568586415313,0.0132767222821712,-0.0014888857741333,0.9706937561851025,0.0149588201454815,left,-0.0048737525939941,-0.4802098673002135,0.6395405240099876,-8.67395354529321,-0.2379041782694295,-0.0154900504276156,-0.0005172789096832,4.530331645318865,0.0039178133010864
2025-04-30 01:04:43.508920000,12.467920166015626,0.0740808622326311,-0.0056277890689671,0.0341353878680594,-0.0029715839773416,-0.0013670027672321,0.9705751822078404,0.0153645361400105,left,0.0040254592895507,-0.4811406046250691,0.6434165617257356,-8.669434606564044,-0.2383623997365728,-0.0224372185766696,-0.0035118162631988,4.5384246431425215,-0.0047434568405151
2025-04-30 01:04:43.548919800,12.507919921875,0.0738237710071065,-0.0092202723026275,0.0340444537239924,0.0019388291984796,-0.0015117746095646,0.9704925613071226,0.0150313742557141,left,-0.0002267956733703,-0.4818705879055711,0.6409431573495269,-8.666293970450758,-0.2387110690152432,-0.0097175408154726,-0.0013405382633209,4.544769628255069,-0.0009318888187408
2025-04-30 01:04:43.588919800,12.547919921875,0.0738237710071065,-0.000968269072473,0.0340444537239924,0.0023414816241711,-0.0015117746095646,0.9704925613071226,0.0150313742557141,left,0.0005435943603515,-0.4818705879055711,0.6409431573495269,-8.666293970450758,-0.2387110690152432,-0.0151355192065238,-0.0016221329569816,4.544769628255069,0.001482754945755
2025-04-30 01:04:43.628919800,12.587919921875,0.0737957921095282,-0.0021374025382101,0.0340298577111053,-0.0061548361554741,-0.0015590020673346,0.970366140769306,0.0149683637117074,left,0.0009853243827819,-0.4829336271962868,0.6403440954778343,-8.661488615995646,-0.2392257790235493,-0.009210024960339,-0.0023657232522964,4.554004781851172,-0.0003599524497985
2025-04-30 01:04:43.668919800,12.627919921875,0.0736379290342612,0.001452203374356,0.0339513456697673,-0.0006624148227274,-0.0015472182084373,0.9703343887391422,0.014964927397634,left,0.0001247525215148,-0.4832232169670349,0.638879722013697,-8.660273979508876,-0.2393662916861769,0.0021855169907212,-0.0010677352547645,4.556519687281549,-0.0023268163204193
2025-04-30 01:04:43.708919800,12.667919921875,0.0736379290342612,-1.5196041204e-05,0.0339513456697673,-0.0044486718252301,-0.0015472182084373,0.9703343887391422,0.014964927397634,left,-0.0030102729797363,-0.4832232169670349,0.638879722013697,-8.660273979508876,-0.2393662916861769,0.0133628034964203,-0.0032087303698062,4.556519687281549,-0.002336710691452
2025-04-30 01:04:43.748920000,12.707920166015626,0.0736379290342612,0.0061893328092992,0.0339513456697673,0.0048579247668385,-0.0015472182084373,0.9703343887391422,0.014964927397634,left,-0.0048426389694213,-0.4832232169670349,0.638879722013697,-8.660273979508876,-0.2393662916861769,0.0043451394885778,-0.004396703094244,4.556519687281549,-0.0034754872322082
2025-04-30 01:04:43.788919800,12.747919921875,0.0736379290342612,0.0079982867464423,0.0339513456697673,0.004263206385076,-0.0015472182084373,0.9703343887391422,0.014964927397634,left,-0.0026691555976867,-0.4832232169670349,0.638879722013697,-8.660273979508876,-0.2393662916861769,-0.0046833781525492,-0.0046052262187004,4.556519687281549,-0.0029867589473724
2025-04-30 01:04:43.828919800,12.787919921875,0.0736379290342612,0.0098072402179241,0.0339513456697673,0.0036684880033135,-0.0015472182084373,0.9703343887391422,0.014964927397634,left,-0.0004956126213073,-0.4832232169670349,0.638879722013697,-8.660273979508876,-0.2393662916861769,-0.0137118967249989,-0.0048137530684471,4.556519687281549,-0.0024980306625366
2025-04-30 01:04:43.868919800,12.827919921875,0.0736379290342612,0.0024643032811582,0.0339513456697673,0.0088098458945751,-0.0015472182084373,0.9703343887391422,0.014964927397634,left,-0.0030544996261596,-0.4832232169670349,0.638879722013697,-8.660273979508876,-0.2393662916861769,-0.0154935596510767,-0.0019829720258712,4.556519687281549,-0.0040515959262847
2025-04-30 01:04:43.908919800,12.867919921875,0.0744482083146897,-0.0185602847486734,0.0342500314201582,0.0190104804933071,-0.0013104332363701,0.9702093276188892,0.0156894668175609,left,-0.0013315677642822,-0.484157431649571,0.6455798772394656,-8.655504865410924,-0.2398312492633836,-0.0253274589776992,0.0011036992073059,4.564630220761895,-0.0022750794887542
2025-04-30 01:04:43.948919800,12.907919921875,0.0744764295607459,-0.0398083925247192,0.0344097064342897,0.0083957957103848,-0.0019585726282395,0.9700809976786582,0.014401695527529,left,0.0024226307868957,-0.4852165454694662,0.6454640688400716,-8.6506603479892,-0.2403227844716342,-0.0168254505842924,0.0006156340241432,4.573820366172492,-0.0029799342155456
2025-04-30 01:04:43.988920000,12.947920166015624,0.0737988030639738,-0.0256397537887096,0.034271649546664,-0.0064571173861622,-0.0026588791113518,0.9700609008963365,0.0127996179899633,left,0.0041760802268981,-0.4854655526412012,0.6395180199172348,-8.649960090765356,-0.2404168248060297,0.0056328400969505,-0.0011739954352378,4.575980174554884,0.0031181275844573
2025-04-30 01:04:44.028919800,12.987919921875,0.0731256302456079,0.004836443811655,0.0340034510811347,-0.013724623247981,-0.0027959264796264,0.970114854727851,0.0123365516154852,left,0.0012363791465759,-0.4851065856072433,0.633814912904799,-8.652026375645399,-0.2402357338653405,0.0129617117345333,-0.0023586228489875,4.572866426448524,0.0049189925193786
2025-04-30 01:04:44.068919800,13.027919921875,0.0730492365507807,0.0188965778797864,0.0338885360383903,-0.0048227095976471,-0.0024515273048336,0.9701680274678096,0.0130114224506379,left,-0.0017072558403015,-0.4846812262826497,0.6332958574667572,-8.654013750070334,-0.2400409795593979,0.0103175491094589,-0.0014150515198707,4.569175755237042,-0.0007981657981872
2025-04-30 01:04:44.108919800,13.067919921875,0.0731942397713828,0.0087496889755129,0.0338837683049923,0.0036380654200911,-0.0021429971363587,0.9702202383525956,0.0136660881961352,left,-0.0079588890075683,-0.4842309105755608,0.6347011211548,-8.655973067444563,-0.2398334849419647,0.0108404662460088,-0.0011317059397697,4.565267934143543,-0.0041507184505462
2025-04-30 01:04:44.148919800,13.107919921875,0.0731942397713828,0.0026735672727227,0.0338837683049923,0.021638985723257,-0.0021429971363587,0.9702202383525956,0.0136660881961352,left,-0.0024982690811157,-0.4842309105755608,0.6347011211548,-8.655973067444563,-0.2398334849419647,-0.0058322045952081,-4.98741865158e-05,4.565267934143543,-0.00057053565979
2025-04-30 01:04:44.188919800,13.147919921875,0.0744796648288268,-0.0107464268803596,0.0344982279273399,0.0086170518770813,-0.0022747051865901,0.9701640407783318,0.0137234719268715,left,0.0036887526512145,-0.4845167018286325,0.645730026299879,-8.653848330375551,-0.2399716836870247,-0.0095982272177934,-0.0019342899322509,4.567748060521483,-0.0037874281406402
2025-04-30 01:04:44.228920000,13.187920166015624,0.0744796648288268,-0.0013340059667825,0.0344982279273399,0.0074545484967529,-0.0022747051865901,0.9701640407783318,0.0137234719268715,left,-0.0006378889083862,-0.4845167018286325,0.645730026299879,-8.653848330375551,-0.2399716836870247,0.0023491708561778,-0.0003371015191078,4.567748060521483,0.0009139776229858
2025-04-30 01:04:44.268920000,13.227920166015624,0.074917555223541,0.0074352584779262,0.0347259936226518,-0.003327362705022,-0.0023801399816145,0.9701782113989628,0.0136072993458712,left,0.0027970075607299,-0.4843347142793591,0.6495816602267325,-8.65439368929863,-0.239880871260308,0.0099650453776121,-0.0006807595491409,4.566168974636494,-0.0002740025520324
2025-04-30 01:04:44.308919800,13.267919921875,0.074917555223541,0.0098989428952336,0.0347259936226518,-0.0148900058120489,-0.0023801399816145,0.9701782113989628,0.0136072993458712,left,0.0002561807632446,-0.4843347142793591,0.6495816602267325,-8.65439368929863,-0.239880871260308,0.0076008858159184,-0.0003108158707618,4.566168974636494,-0.0003341436386108
2025-04-30 01:04:44.348919800,13.307919921875,0.074348395626601,0.0091270459815859,0.0343655283279913,-0.0111610135063529,-0.0019389163900889,0.9702631447266726,0.0143519022928136,left,-0.0011190772056579,-0.4837125958263474,0.6448666874688118,-8.657593362122773,-0.239592618738066,0.0092682130634784,-0.0009803473949432,4.5607688691586254,-0.0034354329109191
2025-04-30 01:04:44.388919800,13.347919921875,0.0737860547957681,-0.0035656103864312,0.0340912903032523,-0.0090998047962784,-0.001843032487789,0.9703264621930758,0.0143933499097637,left,-0.0033206939697265,-0.4832646055562601,0.6401486459709703,-8.659991655436158,-0.2393765158439695,0.0051105129532516,-0.0021785646677017,4.5568791682437055,-0.0029277801513671
2025-04-30 01:04:44.428919800,13.387919921875,0.0737860547957681,-0.007349002175033,0.0340912903032523,0.008089723996818,-0.001843032487789,0.9703264621930758,0.0143933499097637,left,-0.0022542476654052,-0.4832646055562601,0.6401486459709703,-8.659991655436158,-0.2393765158439695,-0.0019097891636192,-0.0009192675352096,4.5568791682437055,-0.0033294260501861
2025-04-30 01:04:44.468920000,13.427920166015625,0.0737860547957681,-0.0138951353728771,0.0340912903032523,-0.0036772033199667,-0.001843032487789,0.9703264621930758,0.0143933499097637,left,0.0018782019615173,-0.4832646055562601,0.6401486459709703,-8.659991655436158,-0.2393765158439695,0.0072420905344188,-0.0016731098294258,4.5568791682437055,-0.0038237869739532
2025-04-30 01:04:44.508920000,13.467920166015626,0.0737860547957681,0.0008716406300663,0.0340912903032523,-0.002010469790548,-0.001843032487789,0.9703264621930758,0.0143933499097637,left,-0.0007537603378295,-0.4832646055562601,0.6401486459709703,-8.659991655436158,-0.2393765158439695,0.0054135168902575,-0.0017833337187767,4.5568791682437055,4.97996807098e-05
2025-04-30 01:04:44.548919800,13.507919921875,0.0737860547957681,-0.0007605134742334,0.0340912903032523,-0.0129946246743202,-0.001843032487789,0.9703264621930758,0.0143933499097637,left,-0.0011915564537048,-0.4832646055562601,0.6401486459709703,-8.659991655436158,-0.2393765158439695,-0.0014584437012672,-0.0031186155974864,4.5568791682437055,-0.0026364028453826
2025-04-30 01:04:44.588919800,13.547919921875,0.0737860547957681,-0.0089040780439972,0.0340912903032523,0.0023341178894042,-0.001843032487789,0.9703264621930758,0.0143933499097637,left,-0.0026444792747497,-0.4832646055562601,0.6401486459709703,-8.659991655436158,-0.2393765158439695,-0.0025081834755837,-0.001545675098896,4.5568791682437055,-0.0029535591602325
2025-04-30 01:04:44.628919800,13.587919921875,0.0728608969262653,-0.0255822725594043,0.033841003426957,0.0017975161317735,-0.0025371709659711,0.9703404184249445,0.0127343499088029,left,0.0011493563652038,-0.483262884841742,0.6321370428204536,-8.660587283241748,-0.2393485548508922,-0.004559151828289,-0.0018289759755134,4.556863970674574,-0.0017852187156677
2025-04-30 01:04:44.668919800,13.627919921875,0.072202182918094,-0.0293596591800451,0.0336943568685896,0.0046125594526529,-0.0031617860222427,0.9703438063152678,0.0112862792124941,left,-0.0010827183723449,-0.4833112706998064,0.6264161809556186,-8.660782513552904,-0.2393484902809251,0.011949848383665,-0.0012548714876174,4.557284241913258,-0.0011897981166839
2025-04-30 01:04:44.708919800,13.667919921875,0.0720272013883665,-0.0185184441506862,0.0337549307482119,0.0140630351379513,-0.0036857891306698,0.970462334608748,0.0101263566832589,left,-0.0018866658210754,-0.4823259485261436,0.6252235371049493,-8.665366334211825,-0.238851208051889,0.0313726291060447,-0.0001276656985282,4.548725964665413,-0.0008286833763122
2025-04-30 01:04:44.748920000,13.707920166015626,0.0722245501907395,-0.0176781006157398,0.0339627965435945,0.0121077112853527,-0.004114887648047,0.9705905131708203,0.0092489370231086,left,0.0002501010894775,-0.4812077893619513,0.6273002703137696,-8.670310220354795,-0.2382934043968627,0.0196615345776081,-0.0010189488530158,4.539008872771263,-0.0028393268585205
2025-04-30 01:04:44.788919800,13.747919921875,0.0720018004632836,-0.0110170375555753,0.0339521800226901,-0.0069925673305988,-0.004461732316088,0.9706569108484304,0.0084595062917247,left,0.0051420331001281,-0.4806670535964299,0.625545389470458,-8.672896729716658,-0.2380180729525819,0.0086002359166741,-0.0022277198731899,4.534307563212514,-0.0040377378463745
2025-04-30 01:04:44.828919800,13.787919921875,0.0720018004632836,0.0043067252263426,0.0339521800226901,-0.0095342928543686,-0.004461732316088,0.9706569108484304,0.0084595062917247,left,-0.0053802132606506,-0.4806670535964299,0.625545389470458,-8.672896729716658,-0.2380180729525819,0.0010827309451997,-0.0024334862828254,4.534307563212514,-0.0004956722259521
2025-04-30 01:04:44.868919800,13.827919921875,0.0714676413674603,0.0193670690059661,0.0336463043298476,-0.0069371368736028,-0.0042166538654898,0.9706433497484496,0.0088407473654735,left,-0.0014349222183227,-0.4808639933674669,0.6208488291520625,-8.672338511312008,-0.2381212477797708,-0.0237924605607986,-0.0038117617368698,4.536019920088351,-0.0001583695411682
2025-04-30 01:04:44.908919800,13.867919921875,0.0712088854179861,0.0079420516267418,0.0334333257817177,-0.0108173862099647,-0.0038675003208324,0.970547750871342,0.0095279899679195,left,-0.000258445739746,-0.4817147180863426,0.6183300512641668,-8.668646671056747,-0.2385461379647908,-0.0150073794648051,-0.0031893476843833,4.54341499877572,-0.007611721754074
