time,seconds_elapsed,roll,rotationRateZ,quaternionY,rotationRateY,quaternionZ,quaternionW,yaw,devicelocation,accelerationZ,pitch,gravityX,gravityZ,quaternionX,rotationRateX,accelerationX,gravityY,accelerationY
1745972957997968400,0.579968505859375,-0.022038878388410756,0.007887421175837517,-0.01052624198899447,-0.021924078464508057,3.345782512971458e-17,0.9851044600072904,-0.003839521158719647,right,-0.005276597570627928,-0.3449560612533479,-0.20337909428682177,-9.226701994100212,-0.17163424843439745,-0.03513932228088379,-0.0069962539710104465,3.316170959368348,0.015143953263759613
1745972958037968400,0.619968505859375,-0.03260510709681723,0.08531492948532104,-0.015838004612880336,-0.057087596505880356,0.0017513727130435918,0.984019616323956,-0.002316561507976257,right,-0.0013946890830993652,-0.3565877720316739,-0.2995795972935855,-9.184863086280226,-0.17734566112888797,-0.07456554472446442,0.0026662107557058334,3.423292486698925,-0.005499422550201416
1745972958077968600,0.65996875,-0.03277199137698974,0.12675343453884125,-0.016257274708233457,-0.05060127377510071,0.0036652318408423672,0.9838345661079603,0.0015106381651066821,right,0.0015862584114074707,-0.35859499762461927,-0.3008866430378519,-9.177926565015316,-0.1783022204501561,-0.07115310430526733,0.005004705861210823,3.4417315219700333,-0.005270093679428101
1745972958249383700,0.8313837890625,-0.0299454509937012,0.021348658949136734,-0.01682705164018838,-0.039756011217832565,0.014037757573869773,0.9827392610312463,0.02296392066322867,right,0.003956052474677563,-0.36989485867049277,-0.2737617403501645,-9.139281484800577,-0.18369316766058222,-0.06235317140817642,-0.0037019033916294575,3.5452746062919496,0.016230326145887375
1745972958289383700,0.8713837890625,-0.030977719814422794,0.012355747632682323,-0.017386486739030826,-0.03970251604914665,0.01435543052189225,0.9824118672581641,0.02337207838249578,right,0.0029764771461486816,-0.37331130647732363,-0.2828189983624034,-9.126834675681591,-0.18536089420603355,-0.06222956255078316,-0.0014494135975837708,3.576491874593496,0.0064789652824401855
1745972958329383700,0.9113837890625,-0.03231983349449336,0.02604490891098976,-0.01810509721476666,-0.043686799705028534,0.014745602260706536,0.9821164548924369,0.023871461383296638,right,-0.0003097057342529297,-0.37631324037021474,-0.2947197179059498,-9.115674983763695,-0.1868211504445473,-0.06246885657310486,-0.0032285545021295547,3.6038869542583822,-0.0007024109363555908
1745972958369383700,0.9513837890625,-0.03366706914954866,0.04338189214468002,-0.019024026892637765,-0.03501737117767334,0.016160520395943342,0.981763931721473,0.026447923158767532,right,0.002390563488006592,-0.379717583553044,-0.3065856401307508,-9.102954618400334,-0.18845839419842453,-0.0659528449177742,-0.0017859190702438354,3.634915129728615,-0.00010782480239868164
1745972958409383400,0.991383544921875,-0.03500664767040163,0.060718875378370285,-0.01994283952503744,-0.026347938925027847,0.017575386641543345,0.9814058352001327,0.029023045913340914,right,0.0050776004791259766,-0.38312512263951676,-0.3183441381920129,-9.090104489177465,-0.1900945687690522,-0.06943683326244354,-0.00035423412919044495,3.66593015345633,0.00048810243606567383
1745972958449383700,1.0313837890625,-0.03546190983152298,0.06345361471176147,-0.02041447069764292,-0.017342254519462585,0.018846620938550884,0.9811645519534506,0.031492673306323445,right,0.004296243190765381,-0.3853658272413463,-0.32219043835662303,-9.081726536932587,-0.19116501477490544,-0.050912246108055115,-0.0002463199198246002,3.686301618094742,0.001262664794921875
1745972958489383700,1.0713837890625,-0.03591162845268402,0.06618835777044296,-0.020886052387921288,-0.008336571045219898,0.020117817525818975,0.9809203138552005,0.03396348916728596,right,0.0035099387168884277,-0.38760763497361134,-0.32597711728848516,-9.073299484848976,-0.19223490443177713,-0.03238765895366669,-0.0001444891095161438,3.7066646071657536,0.0020380914211273193
1745972958529383700,1.1113837890625,-0.03577840273316336,0.03372001275420189,-0.020976480661117763,-0.007038460578769445,0.02088241592716019,0.9808466725444617,0.035539758925069755,right,0.004256725311279297,-0.3882182170204576,-0.3246872966736555,-9.071078886190056,-0.19251925742160822,-0.01669643633067608,0.0017008259892463684,3.7122076282456513,0.01066654920578003
1745972958686880300,1.26888037109375,-0.03857511458157461,-0.014678200706839561,-0.02201971737902007,-0.019419176504015923,0.019384085985797172,0.9804422942553734,0.03186728548437724,right,-0.002574773272499442,-0.3924543612335748,-0.3494455615615472,-9.05434051735699,-0.19460791661329754,0.02901330590248108,-0.00045909255277365446,3.7506250371843572,-0.0030614109709858894
1745972958726880300,1.30888037109375,-0.039278644191836506,0.00023174192756414413,-0.0223344432763999,-0.02960764244198799,0.0193111436960218,0.9804855063633617,0.031587024239210185,right,-0.002327144145965576,-0.3919588921034867,-0.3558884175579995,-9.055947952553629,-0.1943612994875268,0.02994740940630436,-0.0015723109245300293,3.746135324549675,-0.0045975446701049805
1745972958766880300,1.34888037109375,-0.0389914673267641,-0.0009708399884402752,-0.022211671803508602,-0.02167871966958046,0.01939384362792975,0.9805745296904168,0.03182744310563178,right,0.0005157589912414551,-0.39105323108547335,-0.3534198354873806,-9.059436379191279,-0.19391733935113967,0.04614778608083725,0.00022879242897033691,3.737925714609027,-0.0016712546348571777
1745972958806880300,1.38888037109375,-0.03870464757355652,-0.0021734219044446945,-0.022088898860002152,-0.013749796897172928,0.01947653767737717,0.9806634689292819,0.032067491809774036,right,0.0033579468727111816,-0.390147613152959,-0.3509522763300687,-9.062916622522472,-0.19347335819270411,0.06234816461801529,0.0020299963653087616,3.729713474319875,0.0012553036212921143
1745972958846880300,1.42888037109375,-0.038528842365532626,0.0009894112590700388,-0.022001169858747324,-0.00368503388017416,0.019492741253786968,0.9808395312797207,0.03216433102297952,right,0.0018949508666992188,-0.388339528991225,-0.3496181416494772,-9.069701752617954,-0.19258725242898805,0.07170461118221283,0.0023146122694015503,3.7133085752248762,0.002710789442062378
1745972958886880500,1.468880615234375,-0.03835336984650845,0.004152243956923485,-0.021913438868286568,0.006379729136824608,0.019508964211320798,0.9810146627776098,0.03226081935250529,right,0.00042897462844848633,-0.3865313368637697,-0.3482835320448503,-9.076457656618953,-0.19170096724255112,0.08106106519699097,0.0025991760194301605,3.6968905243873595,0.0041675865650177
1745972958926880300,1.50888037109375,-0.03806245615247853,0.007877890020608902,-0.02180707865810306,0.005604658275842667,0.0196965932953494,0.9811317933238499,0.03271972703861929,right,-0.0010219216346740723,-0.38529773483355256,-0.34581633821371943,-9.081108697295189,-0.19109359848878724,0.020087409764528275,0.001714549958705902,3.6856829016745087,0.012824475765228271
1745972958966880300,1.54888037109375,-0.039057104816966115,0.027609258890151978,-0.022423412998514716,0.00610366789624095,0.020416325541341998,0.9809766642070803,0.033970951338374994,right,0.0020412802696228027,-0.3866688990908564,-0.3546510212501511,-9.075701869815587,-0.19174245036101156,0.03556594252586365,0.0021885037422180176,3.698140232187509,0.008761078119277954
1745972959006880300,1.58888037109375,-0.040050452441318406,0.04734063148498535,-0.023039728220928053,0.006602677516639233,0.02113608685902057,0.9808201388114862,0.03522151431182676,right,0.005101561546325684,-0.3880411522339186,-0.3634626156719401,-9.070265816241502,-0.19239102894660404,0.05104447528719902,0.002660118043422699,3.7106001930490136,0.004697352647781372
1745972959046880300,1.62888037109375,-0.039946638340463664,0.046824779361486435,-0.02315037474404175,0.00040749507024884224,0.021958576422058906,0.9808329891114498,0.03692412366304501,right,0.0011592507362365723,-0.3877299969844368,-0.36256709160432216,-9.071457071852684,-0.19221987671327745,0.02818542905151844,-0.00033809617161750793,3.707775491017103,0.006997883319854736
1745972959086880300,1.66888037109375,-0.0398434002604831,0.04630892723798752,-0.02326100119713276,-0.0057876878418028355,0.022781063910738055,0.9808452058087587,0.03862651562432599,right,-0.0027831196784973145,-0.38741871304222725,-0.36167653597276656,-9.072647158420086,-0.19204858857194312,0.00532638281583786,-0.0033357813954353333,3.704949327680468,0.009298563003540039
1745972959126880500,1.708880615234375,-0.03943598346487024,0.03301830589771271,-0.02319513421860304,-0.011860895901918411,0.02340263111603704,0.9807653041731843,0.03996237430665157,right,-0.010249853134155273,-0.38813586358867996,-0.35787531705889847,-9.070136636903882,-0.19238952629272582,-0.02581344172358513,-0.009129438549280167,3.7114600247487424,-0.0020904242992401123
1745972959166880300,1.74888037109375,-0.044583372281083486,0.016941208392381668,-0.02586156594156745,-0.04660484567284584,0.02460563431248481,0.9806309542399275,0.041395919727008394,right,-0.001183927059173584,-0.3886948765119539,-0.4044653283961117,-9.066099928733706,-0.19258431983480284,-0.0070345476269721985,-0.0012037456035614014,3.716533674751222,0.0061723291873931885
1745972959206880300,1.78888037109375,-0.049731056147019864,0.0008641127496957779,-0.02852777490507753,-0.08134879171848297,0.025808463821365816,0.9804880819871873,0.04282674400704255,right,0.007854759693145752,-0.38926064902539226,-0.4510245792688802,-9.061796094059943,-0.19277743896606772,0.011744344606995583,0.006718792021274567,3.721667530508339,0.014428943395614624
1745972959246880300,1.82888037109375,-0.052188453524789964,-0.000255642575211823,-0.029776442374155485,-0.024597641080617905,0.02628057533729432,0.9804828131806279,0.04331498251752538,right,0.00883394479751587,-0.3888792883062019,-0.4733656269472092,-9.062077249088883,-0.19255132830157554,0.013078225776553154,0.005322236567735672,3.7182071609213945,0.013710319995880127
1745972959286880300,1.86888037109375,-0.05464567760640518,-0.0013753979001194239,-0.0310250667619573,0.03215351328253746,0.026752698277526864,0.9804758958306746,0.04380428503056279,right,0.009806931018829346,-0.3884991883128604,-0.4957089031152427,-9.062297613841295,-0.19232490377696906,0.0144121078774333,0.003925897181034088,3.714757897250354,0.012990564107894897
1745972959326880300,1.90888037109375,-0.053930906814525524,-0.026059430092573166,-0.030619334300787553,0.02860899455845356,0.02636430361888919,0.9803721340123182,0.043123233625418665,right,0.000035643577575683594,-0.38977549696895847,-0.4889753570765257,-9.057907269927858,-0.19297072646063868,-0.055632349103689194,0.00003455206751823425,3.7263384449288246,0.007012695074081421
1745972959513106000,2.09510595703125,-0.05419643039913479,0.0008672218536958098,-0.03034412285953385,0.033650953322649,0.024063596048086427,0.979260981126568,0.038100997627554985,right,-0.005388228222727776,-0.40165859006377735,-0.48894711736273017,-9.012923634341359,-0.1988668489137971,-0.025685962289571762,0.0013955754693597555,3.8338653381898995,0.005568499211221933
1745972959553106000,2.13510595703125,-0.05315968358835289,0.01925143599510193,-0.02993714187087833,0.005357975140213966,0.024412418216596087,0.9790744662874558,0.03898072320834198,right,-0.0002442598342895508,-0.40357114685662954,-0.47921227061618116,-9.006087066319584,-0.1998026879805808,-0.01977718062698841,0.0022582970559597015,3.851121301156282,0.0006152093410491943
1745972959593106000,2.17510595703125,-0.05282032795395133,0.02267938293516636,-0.029856511016504654,-0.004243350587785244,0.02478046268618562,0.9789978506004384,0.03978584271780079,right,0.00035005807876586914,-0.40428513068623717,-0.4760106615632772,-9.00350114147961,-0.2001444155841524,-0.014393316581845284,0.00046099722385406494,3.85755980977118,0.0015005767345428467
1745972959633106000,2.21510595703125,-0.052730341942820357,0.015519998967647552,-0.029879296398250255,0.0012387963943183422,0.02507041117744722,0.9788768856069133,0.04037121411150263,right,0.0016324520111083984,-0.40542577236817434,-0.4749682398382574,-8.999144115313888,-0.20069524898042432,-0.02079732157289982,-0.0007941648364067078,3.867841257549822,0.0004725158214569092
1745972959673106000,2.25510595703125,-0.052639629639338895,0.008360613137483597,-0.02990206759243507,0.006720943376421928,0.02536025793313696,0.9787556742312788,0.04095679689849659,right,0.00291365385055542,-0.40656648552006114,-0.47391946143768726,-8.99477539871037,-0.2012460305568824,-0.027201324701309204,-0.0020499564707279205,3.8781186136752366,-0.0005551278591156006
1745972959713106000,2.29510595703125,-0.05237104982054873,0.003407984972000122,-0.029801454389170208,0.017354043200612068,0.025461007934268046,0.9786684782073984,0.041198800484252195,right,0.0028380751609802246,-0.4074366147343424,-0.4713268145959824,-8.99152896413505,-0.2016717333768015,-0.033328827470541,0.0011121109127998352,3.88595442186743,0.0026577413082122803
1745972959753106000,2.33510595703125,-0.051748609686725774,0.0021479055285453796,-0.029502012213081675,0.018092505633831024,0.025392616550256628,0.9785569064881413,0.041161463294596544,right,-0.0008543133735656738,-0.40863187346276375,-0.4654894502120092,-8.987175445100664,-0.20226516659174495,-0.03214436024427414,0.00018445774912834167,3.896713716290891,0.0011320710182189941
1745972959793106000,2.37510595703125,-0.05062551172626425,0.013648363761603832,-0.029048277031377908,0.023771286010742188,0.025717112032883856,0.9784671556132182,0.042037250750543924,right,-0.0004322528839111328,-0.4095653659755449,-0.45521139996685084,-8.984055851775407,-0.20272351533080532,-0.02465427853167057,0.000505838543176651,3.9051127113237976,0.0006896555423736572
1745972959833106000,2.41510595703125,-0.04950109192022882,0.025148821994662285,-0.02859453449659834,0.02945006638765335,0.026041566338287112,0.9783768161209654,0.042914469784469146,right,-0.000011742115020751953,-0.4104979270130039,-0.4449288562096655,-8.980921060881018,-0.20318175895962207,-0.017164196819067,0.000826764851808548,3.91350001591891,0.00024837255477905273
1745972959873106000,2.45510595703125,-0.0483753352158081,0.03664927929639816,-0.028140784608742597,0.035128846764564514,0.026366036216713,0.9782860952906283,0.043793255753714386,right,0.00040709972381591797,-0.4114296502481301,-0.434641745875217,-8.977769903373717,-0.20363989747819738,-0.009674115106463432,0.0011472031474113464,3.921876214598119,-0.00019168853759765625
1745972959913106000,2.49510595703125,-0.047224885795637064,0.03138835355639458,-0.02771160334369202,0.011220907792448997,0.026867851804488623,0.9782132189856806,0.045045299654545574,right,-0.0011960864067077637,-0.41213472922455036,-0.4241823477137834,-8.975499620354174,-0.2039826863031078,-0.017566032707691193,0.0006211288273334503,3.9282127241432665,-0.0014170706272125244
1745972959953106000,2.53510595703125,-0.046833489334118114,0.02718420699238777,-0.027635895155568066,0.006925736088305712,0.027354055444190256,0.9781158736669899,0.04610495876168064,right,-0.0015807151794433594,-0.41299658503118103,-0.42051067346371707,-8.97228007378578,-0.2043949331002833,-0.017957206815481186,0.0009603574872016907,3.9359555933549997,-0.00018653273582458496
1745972959993106000,2.57510595703125,-0.04644096744244474,0.022980060428380966,-0.027560181084983485,0.002630564384162426,0.02784022967158915,0.9780181079073498,0.047165345580829035,right,-0.001965939998626709,-0.41385806044198004,-0.41683125429861245,-8.9690540974766,-0.20480709580926446,-0.01834838092327118,0.0012987889349460602,3.9436920328259464,0.001044631004333496
1745972960033106000,2.61510595703125,-0.04604729842620479,0.01877591386437416,-0.027484461131937848,-0.001664607785642147,0.028326413589549976,0.9779198767214347,0.048226543507747986,right,-0.002351820468902588,-0.41471913675347993,-0.41314394408799704,-8.965821691426635,-0.20521917443005083,-0.018739555031061172,0.0016364268958568573,3.951421750295162,0.002276480197906494
1745972960204430800,2.786430908203125,-0.044759699012536104,0.00870073027908802,-0.027177194341743083,0.008467470295727253,0.029641724300856466,0.9776678628490721,0.051149470106621214,right,0.0005269699613563716,-0.416915781657768,-0.40120987026412036,-8.957653582540154,-0.20627209403097058,-0.013860275968909264,0.0008006285643205047,3.971128029023111,0.0009943062905222178
1745972960244430800,2.826430908203125,-0.044759699012536104,0.0044194171205163,-0.027177194341743083,0.002917555160820484,0.029641724300856466,0.9776678628490721,0.051149470106621214,right,0.0024781227111816406,-0.416915781657768,-0.40120987026412036,-8.957653582540154,-0.20627209403097058,-0.006057078018784523,0.0028204992413520813,3.971128029023111,0.004266411066055298
1745972960284430800,2.866430908203125,-0.04435134120648454,0.00522843049839139,-0.02700371739891744,0.007385562639683485,0.029708997017344568,0.9776329903335977,0.05136724035351791,right,0.0005353689193725586,-0.4172747952686231,-0.39748865778390313,-8.956391599780321,-0.2064507258585816,0.0024641631171107292,0.002129901200532913,3.9743466988086698,0.0017200112342834473
1745972960324430600,2.9064306640625,-0.04411500468304062,0.008647588081657887,-0.026926365053029998,-0.005051627289503813,0.029849345839456237,0.9775906397254527,0.05169777712073862,right,-0.0003501772880554199,-0.4176663556287304,-0.39530327656883746,-8.954930295056105,-0.20664122314310274,-0.010930080898106098,0.0003437995910644531,3.9778570450171826,0.000919729471206665
1745972960481923000,3.063923095703125,-0.04366141317368868,0.0028049335815012455,-0.026868677089671885,-0.0028746959287673235,0.030481008637509067,0.9773385819398224,0.05304898300190713,right,-0.0013033394934609532,-0.4199483225504536,-0.3908441052028909,-8.946016336238383,-0.2077454554411413,-0.017334597185254097,0.0033347071148455143,3.9983012826308606,0.0018421444110572338
1745972960521923000,3.103923095703125,-0.04365560868780288,0.00019002007320523262,-0.02687219025710557,0.0002112947404384613,0.030484518729119225,0.9772752151075346,0.053047572534048765,right,0.000004172325134277344,-0.4205562575124321,-0.3906860650969669,-8.943588816830516,-0.20804269087685748,-0.01433568075299263,0.0018352530896663666,4.003744350467622,0.00029909610748291016
1745972960561923300,3.14392333984375,-0.04324069090334045,0.005413579288870096,-0.026716009298872682,0.0011716722510755062,0.030658181583624204,0.9772694038529516,0.053490599502182906,right,-0.00012671947479248047,-0.420600731154034,-0.3869674829652533,-8.943572450217603,-0.20806482342109647,-0.005184916779398918,0.0016501620411872864,4.004142409874499,0.0009759962558746338
1745972960601923300,3.18392333984375,-0.04324069090334045,0.010637138038873672,-0.026716009298872682,0.002132049761712551,0.030658181583624204,0.9772694038529516,0.053490599502182906,right,-0.00025594234466552734,-0.420600731154034,-0.3869674829652533,-8.943572450217603,-0.20806482342109647,0.003965848125517368,0.001844257116317749,4.004142409874499,0.0016934871673583984
1745972960641923000,3.223923095703125,-0.042374666113619196,0.004806368611752987,-0.026403857620727816,0.0052834730595350266,0.031099207729974675,0.9772866318272502,0.054580870752400666,right,0.0013632774353027344,-0.42038427351574226,-0.37925866215359416,-8.944769551047683,-0.20795793552193975,0.004964753519743681,0.0023529604077339172,4.002204719810187,0.002672255039215088
1745972960681923000,3.263923095703125,-0.042374666113619196,0.003671979997307062,-0.026403857620727816,0.003902438562363386,0.031099207729974675,0.9772866318272502,0.054580870752400666,right,0.0000476837158203125,-0.42038427351574226,-0.37925866215359416,-8.944769551047683,-0.20795793552193975,0.002002978464588523,0.0022577233612537384,4.002204719810187,0.0018557310104370117
1745972960721923000,3.303923095703125,-0.042374666113619196,0.0010458298493176699,-0.026403857620727816,0.0037600842770189047,0.031099207729974675,0.9772866318272502,0.054580870752400666,right,-0.0007568001747131348,-0.42038427351574226,-0.37925866215359416,-8.944769551047683,-0.20795793552193975,0.00926523469388485,0.0027695223689079285,4.002204719810187,0.003168642520904541
1745972960761923000,3.343923095703125,-0.042362211240341834,-0.04891500994563103,-0.026310920291054102,0.00936659425497055,0.030734753664716594,0.9774049081985166,0.053853490286207964,right,0.005404412746429443,-0.4193603789892785,-0.37932062147390094,-8.948864126884937,-0.20746725134513114,0.038920409977436066,0.006406411528587341,3.993035909448564,0.01630115509033203
1745972960801923000,3.383923095703125,-0.043506074995709014,-0.13833139836788177,-0.026431096044709213,0.011506102979183197,0.028864102158795403,0.9776598167820568,0.04981619021817031,right,0.004102349281311035,-0.41734394575655315,-0.38990602063518015,-8.95645005196929,-0.2065176338510555,0.06284436583518982,0.003156457096338272,3.9749668765336272,0.019419372081756592
1745972960841923300,3.42392333984375,-0.04518818236922489,-0.2111189365386963,-0.026449258057338474,0.045220356434583664,0.02530763303131543,0.9780118712409602,0.04223328895543626,right,0.0038855671882629395,-0.41471843526916513,-0.40544122422356155,-8.966176496213674,-0.20531116518201614,0.06867491453886032,0.002348586916923523,3.95141561281532,0.01904696226119995
1745972960881923000,3.463923095703125,-0.04731592274221409,-0.26758378744125366,-0.026387805178630513,0.054043062031269073,0.020311028099621094,0.9783269793517528,0.031613086442316286,right,0.0025894641876220703,-0.41255926068635185,-0.4249205257952213,-8.97379457000196,-0.2043709581844845,0.05681946873664856,-0.0005219653248786926,3.932027021734416,0.01204007863998413
1745972960921923000,3.503923095703125,-0.05003254535487509,-0.2847614884376526,-0.026464027831982907,0.04884705692529678,0.014592437476394287,0.9785747597454736,0.01939513025412286,right,0.003753364086151123,-0.4108287855164851,-0.4496369608353823,-8.979389613530039,-0.20366197581746967,0.04561728984117508,-0.0011725910007953644,3.91647494007647,0.002681225538253784
1745972960961923000,3.543923095703125,-0.05258810851945685,-0.2502601742744446,-0.026512992124287368,0.052598029375076294,0.009052606982023677,0.9787911491396208,0.007586299196742269,right,0.003025829792022705,-0.4090568853998574,-0.472946890078485,-8.985127280399203,-0.20293613083546003,0.04457896202802658,-0.001522347331047058,3.9005382430151103,-0.007163107395172119
1745972961001923000,3.583923095703125,-0.05413417009427368,-0.19610805809497833,-0.026283077481601747,0.06280908733606339,0.004398177232202776,0.9789926236599458,-0.002193883090683658,right,0.0025269389152526855,-0.4071906502104727,-0.48723092456199224,-8.991638269728421,-0.20214659454587602,0.040940411388874054,-0.00043077021837234497,3.8837396684274075,-0.011970341205596924
1745972961041923000,3.623923095703125,-0.05439574025842682,-0.1447567641735077,-0.025682864891273968,0.06808256357908249,0.0008227800465751254,0.9791979165151052,-0.009496413891780407,right,0.0019332170486450195,-0.40521448887936373,-0.4899991471663117,-8.999156390273571,-0.20127372577253796,0.039071545004844666,-0.0013266876339912415,3.865937177494168,-0.010164767503738403
1745972961081923300,3.66392333984375,-0.053877497111865874,-0.10371778905391693,-0.02491510872131362,0.06344358623027802,-0.0018243550382230221,0.9794157582370902,-0.01473624379491216,right,0.0008624792098999023,-0.40309368529778544,-0.4857757573176175,-9.007575843572615,-0.20030148166851122,0.039025381207466125,0.000377800315618515,3.8468148361340164,-0.007442444562911987
1745972961121923300,3.70392333984375,-0.05292481923151517,-0.07683729380369186,-0.02416239796121366,0.05248095840215683,-0.003401940016866738,0.9795960852925679,-0.01771395849592163,right,-0.0006920695304870605,-0.40136416500242517,-0.47754546991512176,-9.014664925050734,-0.19948980129354096,0.03511800989508629,0.0020410679280757904,3.8312075171574946,-0.005226403474807739
1745972961161923000,3.743923095703125,-0.051967254878820264,-0.0499567948281765,-0.023409603461201408,0.041518330574035645,-0.004979486573879688,0.9797727339231729,-0.020691231144629986,right,-0.0022509098052978516,-0.39963726728450216,-0.46925610926914957,-9.021711920952797,-0.19867737684176934,0.031210636720061302,0.0036983229219913483,3.8156127654016014,-0.003011554479598999
1745972961201923000,3.783923095703125,-0.05110810342716026,-0.03459544852375984,-0.022812663849408242,0.02883034199476242,-0.006013304402499328,0.9799260484973117,-0.022585455216896085,right,-0.0028609633445739746,-0.3981335659155835,-0.46179750035889444,-9.027831280615926,-0.19796030780513757,0.03032590076327324,0.0039299242198467255,3.802024092771113,-0.002192288637161255
1745972961241923000,3.823923095703125,-0.0504769237048155,-0.01901259645819664,-0.022403364443708825,0.019939590245485306,-0.006657226498631998,0.9800850002198387,-0.023728560299699403,right,-0.0030466318130493164,-0.39655550020771224,-0.45640137693639843,-9.034102031448484,-0.1971980657268712,0.03481433540582657,0.0035248175263404846,3.7877541598781943,-0.0019969940185546875
1745972961281923000,3.863923095703125,-0.050206051302453106,-0.020559117197990417,-0.022213005094469274,0.0033050794154405594,-0.007056672767997468,0.980238172388877,-0.02444632466177848,right,-0.0016988515853881836,-0.39500037110355846,-0.45424931346904485,-9.040097472470999,-0.19644309005701255,0.030322836712002754,0.0038423649966716766,3.773682672166824,-0.0009364485740661621
1745972961321923300,3.90392333984375,-0.050901188284290085,-0.025244981050491333,-0.022458581648313245,-0.012845747172832489,-0.007525061815134846,0.9803322857306703,-0.025511018759966805,right,0.0004993677139282227,-0.39391879955781,-0.4607407213149592,-9.043850687524676,-0.19592745735896694,0.016636544838547707,0.004923749715089798,3.7638904692098496,-0.004205793142318726
1745972961361923300,3.94392333984375,-0.05202056269904236,-0.020709695294499397,-0.022886536015112743,-0.009050044231116772,-0.00804547597217317,0.980357326535732,-0.02678391892563256,right,0.001855313777923584,-0.3934813701405435,-0.4709494326509535,-9.044972385030984,-0.19573185778201763,0.004540128633379936,0.005340076982975006,3.7599288721024986,-0.005273014307022095
1745972961401923000,3.983923095703125,-0.05298255033776736,-0.011127701960504055,-0.023257590013878754,-0.019571727141737938,-0.008447941955263891,0.9803314438238971,-0.027800237331483593,right,-0.0013465285301208496,-0.39358998860011496,-0.47962874246258286,-9.044107292634248,-0.19580078298847728,-0.010587363503873348,0.00469651073217392,3.7609126224428415,-0.0052044689655303955
1745972961441923000,4.023923095703125,-0.05359341494577425,-0.003899717703461647,-0.02351249948622316,-0.020355569198727608,-0.008578080503633066,0.9802709200185911,-0.02820341367201302,right,-0.002587616443634033,-0.3941189891719047,-0.485046748923324,-9.041824734655021,-0.19606735545378814,-0.022727038711309433,0.0029017478227615356,3.7657033638507125,-0.004051238298416138
1745972961481923000,4.063923095703125,-0.05411330261107069,0.003005008213222027,-0.02376621255252815,-0.01437031663954258,-0.008485659749684184,0.9801914891494796,-0.028141326108914334,right,0.0010583996772766113,-0.3948718570227814,-0.4895939273662865,-9.038737874555586,-0.1964377666868548,-0.0237410981208086,0.002630487084388733,3.772519181345403,-0.002966165542602539
1745972961521923000,4.103923095703125,-0.05422895371389554,0.002205832162871957,-0.023837725650711385,0.0007696570828557014,-0.008356050252100032,0.9801212444190859,-0.027921361821204135,right,0.000934302806854248,-0.3955844504858858,-0.49049343348927793,-9.035994713327288,-0.19678481081271673,-0.01850459910929203,0.0008266046643257141,3.778968795876205,-0.0018240809440612793
1745972961561923300,4.14392333984375,-0.05402043926090993,-0.004084331914782524,-0.02372547394698779,0.00826174020767212,-0.008391588939775513,0.9800680030014236,-0.027968911139900205,right,-0.003199756145477295,-0.396151053531905,-0.4884936014415696,-9.033957070019841,-0.1970621119018086,-0.018651647493243217,0.0000028833746910095215,3.784095345109701,0.0019396841526031494
1745972961601923300,4.18392333984375,-0.05403581510052704,-0.009811216965317726,-0.02368952691817325,0.0045065199956297874,-0.00855031945824913,0.9799780454804792,-0.02832273669369593,right,0.00033533573150634766,-0.39704891403255105,-0.48844881245177235,-9.030553399056195,-0.19750627486375916,-0.02271934226155281,0.0011987611651420593,3.7922169845059512,0.0016565918922424316
1745972961641923000,4.223923095703125,-0.054133127281702345,-0.008191263303160667,-0.023685369116386634,0.003317412920296192,-0.00875297865573357,0.9799045542312356,-0.028777357591485975,right,0.0015938878059387207,-0.3977632909447274,-0.4891808895859867,-9.027797962868213,-0.19786205597431678,-0.01575196161866188,0.0007830522954463959,3.7986768281698224,0.0024458467960357666
1745972961681923000,4.263923095703125,-0.054089380887704104,-0.006992773152887821,-0.023618928416456065,0.0064139096066355705,-0.008955778102884109,0.9798652951744837,-0.029194000601993474,right,0.0009056925773620605,-0.3981487160997171,-0.48870676926821466,-9.026357116410136,-0.19805558184953542,-0.006759428419172764,0.0010620951652526855,3.8021611631542442,0.0025381743907928467
1745972961721923000,4.303923095703125,-0.05412059782371196,-0.006929973606020212,-0.023599233045867318,0.0035019568167626858,-0.009112683106400734,0.9798431054625715,-0.029526749204098875,right,0.0005237460136413574,-0.3983544197578587,-0.48894620404727757,-9.025560413074492,-0.19816041897897385,-0.00453869067132473,0.0006930828094482422,3.804020527285337,0.0026779770851135254
1745972961761923000,4.343923095703125,-0.05412059782371196,-0.006867173593491316,-0.023599233045867318,0.0005900037940591574,-0.009112683106400734,0.9798431054625715,-0.029526749204098875,right,0.00022304058074951172,-0.3983544197578587,-0.48894620404727757,-9.025560413074492,-0.19816041897897385,-0.0023179524578154087,0.00029966235160827637,3.804020527285337,0.0030073821544647217
1745972961801923000,4.383923095703125,-0.054387093807132816,-0.004109793342649937,-0.02368193211375872,-0.0027984234038740396,-0.009312033604351738,0.979821138820978,-0.02999266401112204,right,0.0030060410499572754,-0.3985236326239523,-0.49131647684257473,-9.024787090614437,-0.19825003385960355,0.0021821362897753716,0.0018863603472709656,3.805549928809702,0.001063317060470581
1745972961841923300,4.42392333984375,-0.054387093807132816,-0.0017047817818820477,-0.02368193211375872,0.0068910205736756325,-0.009312033604351738,0.979821138820978,-0.02999266401112204,right,0.0009275674819946289,-0.3985236326239523,-0.49131647684257473,-9.024787090614437,-0.19825003385960355,0.0029809437692165375,0.001179579645395279,3.805549928809702,-0.0006353855133056641
1745972961881923000,4.463923095703125,-0.0540022802588541,-0.003229760332033038,-0.023459244482468184,0.006928503513336182,-0.009519062848636399,0.9798240875177227,-0.030337371240102256,right,-0.0007605552673339844,-0.3985230587086976,-0.4878436861654743,-9.024977644750475,-0.1982520077093442,0.0007312062662094831,0.0007040947675704956,3.805544668112695,-0.0014477074146270752
1745972961921923000,4.503923095703125,-0.0540022802588541,0.006352641619741917,-0.023459244482468184,0.00486712483689189,-0.009519062848636399,0.9798240875177227,-0.030337371240102256,right,0.0011875033378601074,-0.3985230587086976,-0.4878436861654743,-9.024977644750475,-0.1982520077093442,0.001008528401143849,0.0013070814311504364,3.805544668112695,-0.002076089382171631
1745972961961923000,4.543923095703125,-0.05330801801024649,0.02047288417816162,-0.023181788768100745,0.009234280325472355,-0.009286332468073978,0.9798479017765037,-0.02971802415115257,right,0.001671910285949707,-0.39839372530685097,-0.4816040976561606,-9.025805912268162,-0.19817816137485114,0.007002891041338444,0.0016122572124004364,3.8043756243333218,-0.0034456253051757812
1745972962001923000,4.583923095703125,-0.051924158346319166,0.02314627915620804,-0.022650152308059935,0.012733753770589828,-0.008737941152032112,0.979931682921026,-0.028300819822529716,right,0.0009529590606689453,-0.39776899985262987,-0.4692364547206089,-9.028834904700517,-0.19784966942922053,0.009194601327180862,0.0016905218362808228,3.798728266096115,-0.001974135637283325
1745972962041923000,4.623923095703125,-0.05054162191184339,0.025819675996899605,-0.02211850555371219,0.016233226284384727,-0.008189512807484601,0.9800147854775683,-0.026884862708456796,right,0.00023251771926879883,-0.3971424528511209,-0.45687345142755653,-9.03185045312941,-0.19752103032925045,0.011386312544345856,0.0017692670226097107,3.7930630799412723,-0.0005007684230804443
1745972962081923300,4.66392333984375,-0.0492159219703928,0.026727713644504547,-0.021601530488455832,0.018898511305451393,-0.007689180771903879,0.9800813529714071,-0.02558368699929995,right,0.00013452768325805664,-0.3966665297891389,-0.444988294779323,-9.034250500008463,-0.19726834408772603,0.008328119292855263,0.002782568335533142,3.7887586607456205,0.0008752048015594482
1745972962121923300,4.70392333984375,-0.04842114173102679,0.024090519174933434,-0.02132336800877676,0.003871832974255085,-0.007225351895221244,0.980113505453295,-0.02447192999351011,right,-0.0020695924758911133,-0.39646827756308795,-0.4378442682435736,-9.035351154726744,-0.1971563110802979,0.005935141816735268,0.0020629987120628357,3.7869653475880622,0.0002519190311431885
1745972962161923000,4.743923095703125,-0.04806316320667663,0.017316794022917747,-0.0212441422836128,-0.0032444801181554794,-0.006785885000551403,0.9801271667686268,-0.02350141810979773,right,-0.0003725886344909668,-0.3964023312689787,-0.43462176253311335,-9.035756812918185,-0.19711242105719654,0.005367348901927471,0.0028225257992744446,3.7863688429996367,-0.00007924437522888184
1745972962201923000,4.783923095703125,-0.04785434090139846,0.016120001673698425,-0.02123108053135086,-0.00033125095069408417,-0.006381185010539946,0.9801674693984405,-0.02262423816166465,right,0.002966165542602539,-0.3960444998764165,-0.43279969820510594,-9.037199997463821,-0.19692706577171717,0.012989329174160957,0.0019350126385688782,3.783131468513608,-0.000629037618637085
1745972962241923000,4.823923095703125,-0.04776130821016423,0.01326199434697628,-0.021267742899447356,0.0015485392650589347,-0.006013776645417334,0.9802339562138799,-0.02183909878315896,right,0.0005178451538085938,-0.3954015195584198,-0.43207496412713076,-9.039668433403968,-0.1966033493432861,0.015635112300515175,0.002236500382423401,3.7773131376236675,0.002293139696121216
1745972962281923000,4.863923095703125,-0.047427807521355655,0.01232942845672369,-0.021178436339584918,-0.0020525986328721046,-0.005700129645473042,0.9802850647676496,-0.021120267261153083,right,0.00013190507888793945,-0.3949368646092066,-0.42914336765464395,-9.041564037892222,-0.19636704046360942,0.01109042577445507,0.0012255087494850159,3.7731077948883174,0.001903533935546875
1745972962321923300,4.90392333984375,-0.04725836169558068,0.011353128589689732,-0.021161074512284703,-0.0011685414938256145,-0.005404216894220803,0.9803194154983766,-0.02047455801524143,right,0.00021880865097045898,-0.39462380263377717,-0.42766708455700425,-9.04281608377993,-0.19620627965793846,0.010642318986356258,0.0015641115605831146,3.770273740506172,0.001203685998916626
1745972962361923300,4.94392333984375,-0.047089131842926915,0.010376828722655773,-0.021143698497422855,-0.00028448429657146335,-0.0051083217903503345,0.980353513964534,-0.01982902070055639,right,0.0003056526184082031,-0.3943105174554795,-0.426192335829325,-9.044067545145749,-0.1960454670324537,0.010194212198257446,0.0019028633832931519,3.767437348036468,0.0005040168762207031
1745972962401923000,4.983923095703125,-0.046970551417182954,0.013035444542765617,-0.02114027845379931,-0.004979763645678759,-0.004856294034237065,0.9803765697572894,-0.01928585326370585,right,-0.0012316703796386719,-0.3941020536164514,-0.425156782236509,-9.044902826926112,-0.19593724035403987,0.007406389340758324,0.002057243138551712,3.76554992685467,-0.0006271898746490479
1745972962441923000,5.023923095703125,-0.046796988201766566,0.018822116777300835,-0.021128210432536317,-0.005912811961025,-0.004507809818035574,0.9803796959020451,-0.018540343825986134,right,-0.0020045042037963867,-0.3941058165868178,-0.42358624498415737,-9.04496186363697,-0.1959308176083514,0.0018464918248355389,-0.00015381723642349243,3.7655841213852166,0.00023701786994934082
1745972962481923000,5.063923095703125,-0.046907833165991786,0.014871945604681969,-0.02126245625044533,-0.02247186377644539,-0.0040911085921147275,0.9803674874046283,-0.017715725321218907,right,-0.001148819923400879,-0.3942370575227716,-0.4245656479429453,-9.04442118088901,-0.19598663897386848,-0.0010230087209492922,-0.0007806979119777679,3.7667724543869494,0.00028258562088012695
1745972962521923000,5.103923095703125,-0.0473441350375244,0.01343600545078516,-0.02152689959649029,-0.006130881607532501,-0.0037941513624843376,0.9803612052089794,-0.017197818703595852,right,0.0045588016510009766,-0.3942638968402345,-0.42850693291462955,-9.044134180641175,-0.19599511614565043,0.0045128921046853065,0.001115802675485611,3.767015323232114,0.0001723170280456543
1745972962561923300,5.14392333984375,-0.047127525297418975,0.004702432081103325,-0.021457122513677554,0.0054995035752654076,-0.003651694016771158,0.980404558799144,-0.01685347031821211,right,0.00203704833984375,-0.3938511487689533,-0.4266210826354101,-9.045779025238751,-0.19578869539225544,0.015974009409546852,0.0027540065348148346,3.763277890269458,-0.0012762844562530518
1745972962601923300,5.18392333984375,-0.046959589160895425,0.004655823111534119,-0.02140253037410154,-0.001861716154962778,-0.0035586923528016052,0.9804717365329817,-0.016613482651878158,right,-0.00042623281478881836,-0.3931856642809703,-0.4252194356765598,-9.048350337031483,-0.19545961729150457,0.017024273052811623,0.0021378733217716217,3.757250592803955,-0.0023190975189208984
1745972962641923000,5.223923095703125,-0.04687892542260584,0.006879970896989107,-0.0214027790759468,-0.005467559676617384,-0.003392016616377787,0.9805291128505811,-0.016243053010752875,right,-0.0017288923263549805,-0.3926127021724847,-0.4245903439927846,-9.050533526289463,-0.19517463520944792,0.008317179046571255,0.0027119889855384827,3.752059746162593,0.00006082653999328613
1745972962681923000,5.263923095703125,-0.04687892542260584,0.003961927257478237,-0.0214027790759468,-0.004417156334966421,-0.003392016616377787,0.9805291128505811,-0.016243053010752875,right,-0.0013229846954345703,-0.3926127021724847,-0.4245903439927846,-9.050533526289463,-0.19517463520944792,-0.0029132943600416183,0.004217199981212616,3.752059746162593,0.0009416341781616211
1745972962721923000,5.303923095703125,-0.04687892542260584,-0.001070997677743435,-0.0214027790759468,0.005595167633146048,-0.003392016616377787,0.9805291128505811,-0.016243053010752875,right,0.00128859281539917,-0.3926127021724847,-0.4245903439927846,-9.050533526289463,-0.19517463520944792,-0.0017450428567826748,0.006100405007600784,3.752059746162593,-0.0006785392761230469
1745972962761923000,5.343923095703125,-0.04687892542260584,-0.004770006984472275,-0.0214027790759468,0.008188794367015362,-0.003392016616377787,0.9805291128505811,-0.016243053010752875,right,0.0005633831024169922,-0.3926127021724847,-0.4245903439927846,-9.050533526289463,-0.19517463520944792,-0.000990247237496078,0.005190666764974594,3.752059746162593,0.00007966160774230957
1745972962801923000,5.383923095703125,-0.04687892542260584,-0.009030039422214031,-0.0214027790759468,-0.0002838587388396263,-0.003392016616377787,0.9805291128505811,-0.016243053010752875,right,-0.0008656978607177734,-0.3926127021724847,-0.4245903439927846,-9.050533526289463,-0.19517463520944792,-0.0064519732259213924,0.0048603154718875885,3.752059746162593,0.0001283586025238037
1745972962841923300,5.42392333984375,-0.04669129121015968,-0.0009500132873654366,-0.021311600167170125,-0.002819069428369403,-0.0033935214748161634,0.9805027697158845,-0.01621605202830994,right,0.0005717873573303223,-0.39290428124495275,-0.4228410891726613,-9.049519965332745,-0.1953169631659725,-0.00392139982432127,0.003031700849533081,3.7547014928430316,-0.0015431344509124756
1745972962881923000,5.463923095703125,-0.04669129121015968,0.007130012847483158,-0.021311600167170125,-0.005354280583560467,-0.0033935214748161634,0.9805027697158845,-0.01621605202830994,right,0.0021126270294189453,-0.39290428124495275,-0.4228410891726613,-9.049519965332745,-0.1953169631659725,-0.0013908264227211475,0.0013814754784107208,3.7547014928430316,-0.002945244312286377
1745972962921923000,5.503923095703125,-0.04669129121015968,0.014918717555701733,-0.021311600167170125,-0.0023931474424898624,-0.0033935214748161634,0.9805027697158845,-0.01621605202830994,right,0.0016216039657592773,-0.39290428124495275,-0.4228410891726613,-9.049519965332745,-0.1953169631659725,0.001514277420938015,0.0016375631093978882,3.7547014928430316,-0.001659482717514038
1745972962961923000,5.543923095703125,-0.0460848027411645,0.01293884962797165,-0.021109690039290575,0.0016794693656265736,-0.0029660074893215504,0.980492931291533,-0.015227709912956685,right,-0.0011954903602600098,-0.39308723016836455,-0.4173209375116974,-9.049088003656268,-0.19539520210928724,-0.0015567997470498085,0.0015282072126865387,3.756358904661238,0.001302480697631836
1745972963001923000,5.583923095703125,-0.04588489481372887,0.003608918748795986,-0.02106543594422066,-0.008470961824059486,-0.0027052624585944935,0.9804708881642411,-0.014662251776636534,right,-0.0014742612838745117,-0.3933430679373067,-0.4154678204583004,-9.048211220821738,-0.1955143688457745,-0.007662301883101463,0.001069478690624237,3.7586762416929003,0.0023928582668304443
1745972963041923000,5.623923095703125,-0.04588489481372887,0.004326209891587496,-0.02106543594422066,-0.002623362001031637,-0.0027052624585944935,0.9804708881642411,-0.014662251776636534,right,0.0010890960693359375,-0.3933430679373067,-0.4154678204583004,-9.048211220821738,-0.1955143688457745,-0.000527319498360157,0.0010844282805919647,3.7586762416929003,-0.00024184584617614746
1745972963081923300,5.66392333984375,-0.04588489481372887,0.006081857718527317,-0.02106543594422066,-0.006153814494609833,-0.0027052624585944935,0.9804708881642411,-0.014662251776636534,right,-0.0007323026657104492,-0.3933430679373067,-0.4154678204583004,-9.048211220821738,-0.1955143688457745,-0.005146276671439409,0.0003080219030380249,3.7586762416929003,0.0014275908470153809
1745972963121923300,5.70392333984375,-0.046142456982791846,0.0025477688759565353,-0.021239332363639153,-0.005846147891134024,-0.0024144843206801766,0.9804046631915657,-0.01413655848572649,right,0.0006287097930908203,-0.3940001603086769,-0.4176842909313738,-9.045634648332,-0.1958312350532557,-0.012048721313476562,0.0015399903059005737,3.7646272590517995,0.002342522144317627
1745972963161923000,5.743923095703125,-0.04618791721720452,-0.0011551566421985626,-0.021243121330568552,-0.0018925941549241543,-0.0024877544240262377,0.9803682995078997,-0.014304034754802436,right,0.000026881694793701172,-0.39436409344853185,-0.4180322275862097,-9.044246408843994,-0.19601147191967613,-0.007096854504197836,0.001689363270998001,3.767922501204908,0.001444399356842041
1745972963201923000,5.783923095703125,-0.04623345973282848,-0.004858082160353661,-0.021246911768113105,0.002060959581285715,-0.0025610186449117637,0.9803320199124236,-0.014471545352448892,right,-0.0005750656127929688,-0.3947281327703687,-0.41838067569769916,-9.042856415790318,-0.19619172980814498,-0.0021449876949191093,0.0018388070166110992,3.7712183278799056,0.0005462169647216797
1745972963241923000,5.823923095703125,-0.04623345973282848,-0.0009330729953944683,-0.021246911768113105,0.0004587494768202305,-0.0025610186449117637,0.9803320199124236,-0.014471545352448892,right,-0.0015450119972229004,-0.3947281327703687,-0.41838067569769916,-9.042856415790318,-0.19619172980814498,0.0031244801357388496,0.001296650618314743,3.7712183278799056,-0.000059098005294799805
1745972963281923000,5.863923095703125,-0.04623345973282848,0.00456112390384078,-0.021246911768113105,-0.0068374634720385075,-0.0025610186449117637,0.9803320199124236,-0.014471545352448892,right,-1.7881393432617188e-7,-0.3947281327703687,-0.41838067569769916,-9.042856415790318,-0.19619172980814498,-0.0017012981697916985,0.0014756284654140472,3.7712183278799056,0.001171499490737915
1745972963321923300,5.90392333984375,-0.04623345973282848,0.00025174301117658615,-0.021246911768113105,0.00023072445765137672,-0.0025610186449117637,0.9803320199124236,-0.014471545352448892,right,0.0017076730728149414,-0.3947281327703687,-0.41838067569769916,-9.042856415790318,-0.19619172980814498,-0.0019768334459513426,0.003006625920534134,3.7712183278799056,0.0018352866172790527
1745972963361923300,5.94392333984375,-0.04623345973282848,-0.007530570961534977,-0.021246911768113105,0.005889594089239836,-0.0025610186449117637,0.9803320199124236,-0.014471545352448892,right,0.0007026791572570801,-0.3947281327703687,-0.41838067569769916,-9.042856415790318,-0.19619172980814498,-0.0015671089058741927,0.004030954092741013,3.7712183278799056,0.002231121063232422
1745972963401923000,5.983923095703125,-0.04623345973282848,-0.01277201622724533,-0.021246911768113105,0.0003565284423530102,-0.0025610186449117637,0.9803320199124236,-0.014471545352448892,right,-0.0014539361000061035,-0.3947281327703687,-0.41838067569769916,-9.042856415790318,-0.19619172980814498,-0.001609200844541192,0.002917211502790451,3.7712183278799056,0.0005849599838256836
1745972963441923000,6.023923095703125,-0.04618743927932504,-0.003319297917187214,-0.021170542690614073,-0.0056503708474338055,-0.0028306243316502523,0.9803228265048319,-0.015014600503726041,right,-0.0007771849632263184,-0.3948190000611281,-0.4179487140212208,-9.042533175185323,-0.1962419733009728,0.005315833725035191,0.0027899742126464844,3.7720407501786943,-0.0009563267230987549
1745972963481923000,6.063923095703125,-0.04618743927932504,0.009073819033801556,-0.021170542690614073,-0.006141661666333675,-0.0028306243316502523,0.9803228265048319,-0.015014600503726041,right,-0.0007002353668212891,-0.3948190000611281,-0.4179487140212208,-9.042533175185323,-0.1962419733009728,0.011415872722864151,0.00277048721909523,3.7720407501786943,-0.00010001659393310547
1745972963521923000,6.103923095703125,-0.0461607869161873,0.0112228374928236,-0.02122507169385306,-0.008790433406829834,-0.00252370512791527,0.9803913056488746,-0.014366241755055445,right,-0.0011487603187561035,-0.3941312244514901,-0.4178273161312565,-9.045134297594428,-0.19589795231402482,0.011734317988157272,0.0028701722621917725,3.765814130748808,0.0035788118839263916
1745972963561923300,6.14392333984375,-0.046495936516634695,0.0036982018500566483,-0.021441950945734665,-0.018431197851896286,-0.002251918129842424,0.9804467790500591,-0.013864010130630561,right,0.0005190372467041016,-0.39353234681309707,-0.42096349526513366,-9.047244421616195,-0.19559945284009275,0.009564002975821495,0.0036615878343582153,3.760390644395351,0.007486969232559204
1745972963601923300,6.18392333984375,-0.04691272877332472,-0.0004924382083117962,-0.021642912309645174,-0.008959321305155754,-0.002246655989039072,0.9804869707920243,-0.013925049878813883,right,-0.00042629241943359375,-0.39307452943799864,-0.4248149830615148,-9.048786974883079,-0.19537614146708132,0.022705119103193283,0.0020851902663707733,3.75624375384897,-0.0028623640537261963
1745972963641923000,6.223923095703125,-0.046875235773135585,0.01141553744673729,-0.021664573345336596,-0.004015851765871048,-0.0020927136981755954,0.9805924309749839,-0.013576918525895777,right,-0.0034308433532714844,-0.39199964204078014,-0.424664651338011,-9.052830697315931,-0.19484538338984062,0.026207860559225082,0.00033826008439064026,3.746504450123012,-0.0013141632080078125
1745972963681923000,6.263923095703125,-0.04675970933742077,0.020095093175768852,-0.021697596748015826,-0.008511703461408615,-0.0016966753461765992,0.9807033897942606,-0.012718576331303081,right,-0.0006557106971740723,-0.3908783264218599,-0.4238149391734972,-9.057070819103718,-0.19428619904594016,0.031693119555711746,0.0010695867240428925,3.736339906722307,-0.0010885298252105713
1745972963721923000,6.303923095703125,-0.0466762672327597,0.01637832447886467,-0.021747511339079484,-0.005323411431163549,-0.0012985362435906137,0.9808377348221652,-0.011856488035549326,right,0.0022211670875549316,-0.38950722650166647,-0.4232978199642151,-9.062214611732959,-0.19360443867965646,0.041001465171575546,0.003713596612215042,3.7239047880411147,-0.0015248358249664307
1745972963761923000,6.343923095703125,-0.04662934105786591,0.0026414552703499794,-0.021736397040650435,-0.007232023403048515,-0.0012979701916872963,0.9809780914866065,-0.011810601769851303,right,0.0010755658149719238,-0.38805848498095286,-0.42312359590847043,-9.067614424949884,-0.19289340125909993,0.031890206038951874,0.002542160451412201,3.710757721698284,-0.000605851411819458
1745972963801923000,6.383923095703125,-0.04658249969093239,-0.011095414869487286,-0.021725265613428996,-0.009140635840594769,-0.0012974003316827448,0.981117898636583,-0.011764807355899907,right,-0.00007194280624389648,-0.3866097432236673,-0.4229487507982179,-9.07299494894445,-0.19218226997463156,0.0227789469063282,0.0013706646859645844,3.6976027643099427,0.0003139376640319824
1745972963841923300,6.42392333984375,-0.046822586531990874,-0.01337470207363367,-0.02180960431754048,-0.005735976155847311,-0.0014750207167175862,0.9811891360178615,-0.012154880284982034,right,0.00037980079650878906,-0.38583610227104514,-0.4252607906002551,-9.075747462522983,-0.19180718022677654,0.013274176977574825,0.001003708690404892,3.6905747653692957,-0.0010360181331634521
1745972963881923000,6.463923095703125,-0.046918245111043436,-0.0043611908331513405,-0.02182839550657344,-0.000008631497621536255,-0.0016306646112874477,0.981238725084732,-0.012477711572845848,right,-0.00026285648345947266,-0.38530433933093267,-0.4262209408693015,-9.077665863364935,-0.1915499055121084,0.01473245956003666,0.001257333904504776,3.6857428151682017,-0.003193199634552002
1745972963921923000,6.503923095703125,-0.046918245111043436,-0.003292930079624057,-0.02182839550657344,0.010113506577908993,-0.0016306646112874477,0.981238725084732,-0.012477711572845848,right,-0.002507030963897705,-0.38530433933093267,-0.4262209408693015,-9.077665863364935,-0.1915499055121084,0.0072385044768452644,0.0021926797926425934,3.6857428151682017,-0.003337860107421875
1745972963961923000,6.543923095703125,-0.046479122888282105,-0.010472716763615608,-0.02157925894238802,0.005442331079393625,-0.0018687803537737152,0.981299787269844,-0.012862803361959982,right,-0.0039670467376708984,-0.38471156103594545,-0.4223361353252083,-9.080033177018166,-0.1912628816436275,0.007125536445528269,0.0008474104106426239,3.6803552769109604,-0.0008876025676727295
1745972964001923000,6.583923095703125,-0.046580062646969664,-0.013400185853242874,-0.021571910147892594,-0.001886831596493721,-0.0021660003090010114,0.9813337192490965,-0.01347907229358845,right,-0.002077639102935791,-0.38433877099016284,-0.4233165246646851,-9.081360626229642,-0.19108671741942004,0.003854181384667754,0.001220855861902237,3.6769665112555026,-0.0013748109340667725
1745972964041923000,6.623923095703125,-0.04660416230239546,-0.006609540898352861,-0.021537156374151954,0.0034252251498401165,-0.002417563844783352,0.9813668232864634,-0.013987674296923028,right,-0.00009334087371826172,-0.38398246907459277,-0.42359640105199065,-9.082658264824747,-0.19091741356634723,0.008738873526453972,0.001955389976501465,3.6737270909428594,-0.002695024013519287
1745972964081923300,6.66392333984375,-0.04641608105960589,-0.003807871602475643,-0.021424338347720676,0.0028425133787095547,-0.0025561987064731248,0.9814034770125809,-0.014224609638700118,right,-0.0008272528648376465,-0.3836161901285867,-0.4219505335411057,-9.084081575626135,-0.19073999799951552,0.0052697244100272655,0.0030556097626686096,3.6703961929544806,-0.000740349292755127
1745972964121923300,6.70392333984375,-0.04641608105960589,-0.00581619655713439,-0.021424338347720676,0.005255397409200668,-0.0025561987064731248,0.9814034770125809,-0.014224609638700118,right,-0.0015137195587158203,-0.3836161901285867,-0.4219505335411057,-9.084081575626135,-0.19073999799951552,0.0012230034917593002,0.0031862519681453705,3.6703961929544806,-0.0007416903972625732
1745972964161923000,6.743923095703125,-0.04641608105960589,-0.0047692502848804,-0.021424338347720676,0.00114486925303936,-0.0025561987064731248,0.9814034770125809,-0.014224609638700118,right,-0.0013910531997680664,-0.3836161901285867,-0.4219505335411057,-9.084081575626135,-0.19073999799951552,0.0003643944510258734,0.0030118487775325775,3.6703961929544806,0.0004286468029022217
1745972964201923000,6.783923095703125,-0.04641608105960589,-0.003484379965811968,-0.021424338347720676,-0.004650214686989784,-0.0025561987064731248,0.9814034770125809,-0.014224609638700118,right,-0.0002071857452392578,-0.3836161901285867,-0.4219505335411057,-9.084081575626135,-0.19073999799951552,-0.009842360392212868,0.0039763376116752625,3.6703961929544806,0.0019051134586334229
1745972964241923000,6.823923095703125,-0.04618741291557727,0.0019586747512221336,-0.021265872695638243,-0.000058966223150491714,-0.002808342410337515,0.981387823055189,-0.0146984980885145,right,-0.0006881952285766602,-0.3837992150301623,-0.41984223615024235,-9.083506406086682,-0.1908345587419213,-0.0038733314722776413,0.0032705068588256836,3.672060619035363,-0.0008974075317382812
1745972964281923000,6.863923095703125,-0.04618741291557727,0.010232090950012207,-0.021265872695638243,-0.002469003899022937,-0.002808342410337515,0.981387823055189,-0.0146984980885145,right,0.0000858306884765625,-0.3837992150301623,-0.41984223615024235,-9.083506406086682,-0.1908345587419213,0.00981371570378542,0.002133481204509735,3.672060619035363,-0.002455383539199829
1745972964321923300,6.90392333984375,-0.04597114590880786,0.012625184841454029,-0.02121623729143081,-0.010648210532963276,-0.002566451738383146,0.981455612343667,-0.014146902992094585,right,-0.0008944869041442871,-0.3831183861684991,-0.41799255316294726,-9.086092330926656,-0.19049434961403566,0.017437951639294624,0.0015284083783626556,3.665868778657913,-0.0016117393970489502
1745972964361923300,6.94392333984375,-0.04582224620241606,0.011288491077721119,-0.021198363573817384,-0.01013052836060524,-0.002311102715135278,0.9814929274941635,-0.013588725222246594,right,-0.0007911920547485352,-0.38274984458171424,-0.41670149043910204,-9.08750336676836,-0.1903073980229181,0.010208500549197197,0.0023365765810012817,3.6625165456205604,-0.0005366206169128418
1745972964401923000,6.983923095703125,-0.04567355266306994,0.009951797313988209,-0.02118047713925702,-0.00961284525692463,-0.0020557204714833827,0.9815301135711451,-0.013030614471917973,right,-0.0006879568099975586,-0.38238119142537336,-0.4154118524873629,-9.088913233566284,-0.1901204156340355,0.002979048527777195,0.0031448788940906525,3.6591625590175387,0.0005386769771575928
1745972964441923000,7.023923095703125,-0.04559772168040154,0.012462902814149857,-0.02120356521587971,-0.0077620213851332664,-0.0017600270739878507,0.9815522694394414,-0.012408175585573064,right,0.0002815127372741699,-0.3821630838766096,-0.4147590146018192,-9.08974208560586,-0.19000670107040424,0.007799631915986538,0.0032948777079582214,3.657178107202053,0.000008791685104370117
1745972964481923000,7.063923095703125,-0.04537260306321465,0.01928502507507801,-0.021174610670750414,-0.010769663378596306,-0.0013770543763098936,0.9815978522576067,-0.011573575140522688,right,-0.0013368725776672363,-0.38171435025899714,-0.4127871300069615,-9.09147343944311,-0.1897774614871327,0.011908715590834618,0.0023371241986751556,3.6530946372807023,-0.00008654594421386719
1745972964521923000,7.103923095703125,-0.045567123730192706,0.02074270136654377,-0.021362848668650257,-0.02192433923482895,-0.0008922166053718739,0.9816313657852793,-0.010614508608311556,right,-0.002154529094696045,-0.38134399935055524,-0.414617194978334,-9.09274419003129,-0.18958561851784703,0.0076674786396324635,0.00308942049741745,3.64972369954288,0.00025159120559692383
1745972964561923300,7.14392333984375,-0.04610022161249781,0.01853346638381481,-0.021717309331030252,-0.022694839164614677,-0.000365509416577578,0.9816376988864679,-0.009641360823944135,right,0.0009785294532775879,-0.3812199799012191,-0.4194853124713525,-9.092973907133937,-0.1895144315854127,0.0005278568714857101,0.0033327825367450714,3.6485949877738952,0.0003618001937866211
1745972964601923300,7.18392333984375,-0.046382441267972134,0.012543141841888428,-0.02193126569587912,-0.009223931469023228,0.00004891099599840728,0.9816430146352499,-0.008849356852599471,right,0.0006395578384399414,-0.3811308441944281,-0.42206659766882654,-9.093179658839105,-0.18946208353087762,-0.0012757411459460855,0.005056783556938171,3.64778367139101,0.0005020797252655029
1745972964641923000,7.223923095703125,-0.04633802767880365,0.009847365319728851,-0.021964624679059526,-0.00813213549554348,0.00033021534314243837,0.9816442916777298,-0.008267452483069749,right,-0.00415194034576416,-0.3811224099835425,-0.4216641543477773,-9.093229343199729,-0.18945155340385988,0.0019012283300980926,0.0032300911843776703,3.6477068067625162,-0.002063274383544922
1745972964681923000,7.263923095703125,-0.04672535546415339,0.01194439735263586,-0.02220762025776627,-0.022703997790813446,0.000642077637681187,0.9816366710366644,-0.007707638499757043,right,-0.002201676368713379,-0.3811566144281437,-0.425180345775187,-9.092940589386224,-0.18946205909550168,-0.006788413506001234,0.00216587632894516,3.6480180646687743,-0.00002968311309814453
1745972964721923000,7.303923095703125,-0.04725445416773592,0.01394787710160017,-0.022527964853219642,-0.011760801076889038,0.001015103595069228,0.9816052944571578,-0.007056210042490932,right,0.0008774995803833008,-0.381422498764664,-0.4299455143503845,-9.091745242121815,-0.18958505198096845,-0.00641078082844615,0.004086282104253769,3.6504382775530217,-0.0011754930019378662
1745972964761923000,7.343923095703125,-0.04721214724897096,0.017961286008358,-0.022587124816358745,-0.011148582212626934,0.0014282734568759165,0.9815951497430575,-0.006208799333657525,right,-0.0012222528457641602,-0.3815292847839758,-0.42954248650744553,-9.091374070721864,-0.1896279269176277,0.0019313427619636059,0.0037371963262557983,3.6514103374555704,-0.001971036195755005
1745972964801923000,7.383923095703125,-0.04739878761645994,0.019458819180727005,-0.02276547404636628,-0.021638453006744385,0.001900249355176803,0.9815758634702247,-0.00528739169628048,right,-0.0015999674797058105,-0.38170230788389964,-0.4312093602737412,-9.090662707582116,-0.1897022421030818,-0.008105549961328506,0.0032627135515213013,3.6529850394263863,-0.0010364353656768799
1745972964841923300,7.42392333984375,-0.04798618607081768,0.014299762435257435,-0.023129726192660596,-0.028746914118528366,0.002361628501530022,0.9815277013550876,-0.004471274146341998,right,0.0015061497688293457,-0.38212985732514976,-0.4364741489341482,-9.088846598070859,-0.18990207899220668,-0.013160007074475288,0.0016993805766105652,3.65687561712414,-0.0006944239139556885
1745972964881923000,7.463923095703125,-0.04880980194912307,0.0021930430084466934,-0.023570546220505258,-0.020566225051879883,0.002645341841093824,0.9814649703462829,-0.004066248056177539,right,0.003342926502227783,-0.3826835801584435,-0.4438608616519719,-9.08645999519527,-0.19016805682100354,-0.020441759377717972,0.0018278919160366058,3.661913611291349,0.0014841854572296143
1745972964921923000,7.503923095703125,-0.04933272861044834,0.00010156584903597832,-0.023830232860041285,-0.009760789573192596,0.0027309939914305164,0.9813938714532914,-0.004010100599946561,right,0.0021111369132995605,-0.38336476227096566,-0.4484892521049827,-9.08373320057988,-0.19050095479834256,-0.01367756724357605,0.0010932758450508118,3.6681098355829715,-0.0002110898494720459
1745972964961923000,7.543923095703125,-0.04967773179372503,0.0059623075649142265,-0.02403878182313053,-0.013656092807650566,0.0029783860298826605,0.9813488490291724,-0.0035835501858257554,right,0.001622617244720459,-0.38378736962988946,-0.451546118924953,-9.082028734749555,-0.19070272706705096,-0.01287900935858488,0.0002787858247756958,3.6719530670076606,0.000017374753952026367
1745972965001923000,7.583923095703125,-0.05002258527415002,0.011823048815131187,-0.02424731806927331,-0.017551396042108536,0.003225772185874165,0.9813037425168637,-0.003157091418552,right,0.001133739948272705,-0.3842101323045366,-0.45460039192903784,-9.08032134630978,-0.1909044685379948,-0.012080450542271137,-0.0005359649658203125,3.6757968829542396,0.00024577975273132324
1745972965041923000,7.623923095703125,-0.05088118201156448,0.0007984833791851997,-0.024702935238730014,-0.025367852300405502,0.0034925079474254447,0.9812652676090456,-0.00278786673873561,right,-0.0022161006927490234,-0.3844972708044236,-0.462342859281972,-9.078873485589027,-0.1910393767406402,-0.01451651006937027,-0.0019320696592330933,3.67840735771358,0.005879908800125122
1745972965081923300,7.66392333984375,-0.05227388641475577,-0.03137362748384476,-0.025342302497076422,-0.049674734473228455,0.003419450794098891,0.9811860476775056,-0.003225240945787615,right,-0.003377854824066162,-0.38515210364008395,-0.474860651277937,-9.075813513496518,-0.19136370171278946,-0.019587844610214233,-0.003302142024040222,3.6843592518553137,0.00862768292427063
1745972965121923300,7.70392333984375,-0.054844965650996017,-0.03855181112885475,-0.02644003182593186,-0.03660443425178528,0.00285461980825056,0.981075024682827,-0.004901475496010857,right,0.00684356689453125,-0.38599124491533326,-0.4980240481898188,-9.071472269421815,-0.1917930200952719,-0.015015547163784504,-0.0001279972493648529,3.691984339906275,0.004041433334350586
1745972965161923000,7.743923095703125,-0.05677902255946416,-0.06106450408697128,-0.027173395799709763,-0.03212851285934448,0.0019508236909051933,0.9810202466690164,-0.00713165257674984,right,0.0059732794761657715,-0.3863201680119462,-0.5154988780712708,-9.06927914329171,-0.19198192852617854,0.0017611412331461906,0.000476788729429245,3.694972415806353,0.001678377389907837
1745972965201923000,7.783923095703125,-0.057627786810112484,-0.04865924268960953,-0.02739188849550777,-0.010978778824210167,0.0010086519933037662,0.9810407807491073,-0.009209106757951686,right,-0.002247750759124756,-0.3860016580761473,-0.5232641417779028,-9.070012718263268,-0.19185340352071714,0.009001770988106728,0.0009427927434444427,3.6920790324524044,-0.00002726912498474121
1745972965241923000,7.823923095703125,-0.058065530721703416,-0.03521481901407242,-0.02745450698163751,0.0000019744038581848145,0.00026731818672267595,0.9810477720417924,-0.010802094165808908,right,-0.004089534282684326,-0.38587038386509187,-0.5272625637643039,-9.070266400763392,-0.19181073406370497,-0.0009305328130722046,0.003977328538894653,3.6908863155364986,0.001203984022140503
1745972965281923000,7.863923095703125,-0.05809136037023263,-0.03167789429426193,-0.027345611161051955,0.01083333045244217,-0.0003378352322274826,0.9810168448178755,-0.01205048259979976,right,-0.0033401846885681152,-0.386189625187373,-0.5274283853178844,-9.06907631419599,-0.1919844150031717,-0.0018709509167820215,0.004970472306013107,3.6937867131531235,-0.00122910737991333
1745972965321923300,7.90392333984375,-0.05811764704525657,-0.028140969574451447,-0.027236719233721517,0.021664686501026154,-0.0009429789606155438,0.980985452167684,-0.0132990268469207,right,-0.0025908350944519043,-0.38650877485042656,-0.5275982985246926,-9.067885058584809,-0.19215800060811236,-0.0028113690204918385,0.0059640295803546906,3.6966856494650244,-0.0036620795726776123
1745972965361923300,7.94392333984375,-0.05772583833663597,-0.02121848613023758,-0.026940621338034307,0.01600920408964157,-0.0015152315442610014,0.980998444677366,-0.014386315205722438,right,-0.003931164741516113,-0.38642134107310255,-0.5240640234513207,-9.068413466373086,-0.19212960949757202,0.0036538629792630672,0.00466490164399147,3.695891576477885,-0.002363443374633789
1745972965401923000,7.983923095703125,-0.05748465679969314,-0.015882348641753197,-0.026740966183095054,0.01117907278239727,-0.0019693524172812427,0.9810319875829554,-0.01525510638737016,right,-0.0012177228927612305,-0.386097130353976,-0.5219456795904786,-9.069735654887557,-0.19198204479935033,0.006114552728831768,0.0036302581429481506,3.6929464629366993,-0.0025321543216705322
1745972965441923000,8.023923095703125,-0.05710204406415995,-0.008731849491596222,-0.026498523016132113,0.01628102920949459,-0.0023063308870244063,0.9810767706246254,-0.015854570016339768,right,0.00011909008026123047,-0.3856771699201676,-0.5185639281976968,-9.07148220629394,-0.19178360481248244,0.005606238730251789,0.003201983869075775,3.689130704040825,-0.00030916929244995117
1745972965481923000,8.063923095703124,-0.056440740975361836,-0.01268383301794529,-0.026135024515124658,0.016282586380839348,-0.0025775457684478037,0.9811001376767047,-0.01627344685680391,right,-0.0011126399040222168,-0.3855182184064209,-0.5125978959327563,-9.072408673489093,-0.19171034856803218,-0.002997562289237976,0.0022258348762989044,3.6876863504514095,0.0020821094512939453
1745972965521923000,8.103923095703125,-0.05585917256683355,-0.022500520572066307,-0.02577277553036211,0.021208779886364937,-0.003025285539404776,0.9811028987919057,-0.017073640565498052,right,0.00045818090438842773,-0.38555565806935993,-0.5073138545826077,-9.072567078921198,-0.1917382989308562,-0.005260004196316004,0.0006705187261104584,3.6880265421912073,0.0016359686851501465
1745972965561923300,8.14392333984375,-0.055060634685497926,-0.017282169312238693,-0.025296246957607835,0.025738611817359924,-0.0035324393146421683,0.981105506779141,-0.017953337126240834,right,0.000015556812286376953,-0.3856212741102863,-0.5000555905500427,-9.072727822440863,-0.19178038060994074,-0.00564782228320837,0.0004541836678981781,3.6886230467796324,0.0007329285144805908
1745972965601923300,8.18392333984375,-0.0542621163981152,-0.012063819915056229,-0.02481969978544603,0.030268441885709763,-0.004039595164238807,0.9811074811637213,-0.01883300326124474,right,-0.0004279613494873047,-0.38568743010557527,-0.49279747264795004,-9.07288038265407,-0.19182234740306503,-0.006035640370100737,0.0002378597855567932,3.68922393528223,-0.00017064809799194336
1745972965641923000,8.223923095703125,-0.0535702056135201,-0.008716979995369911,-0.024422117182064388,0.01662609726190567,-0.004395896459451302,0.9811007191334099,-0.01942823890812376,right,-0.004059255123138428,-0.385833645016874,-0.48649081025179475,-9.072680476167797,-0.19189994151799383,-0.004807640332728624,-0.0006521008908748627,3.6905525535374877,0.00016021728515625
1745972965681923000,8.263923095703126,-0.0535702056135201,-0.004710780922323465,-0.024422117182064388,-0.0011222586035728455,-0.004395896459451302,0.9811007191334099,-0.01942823890812376,right,-0.0020571351051330566,-0.385833645016874,-0.48649081025179475,-9.072680476167797,-0.19189994151799383,-0.0009485357441008091,-0.001142941415309906,3.6905525535374877,-0.0009800195693969727
1745972965721923000,8.303923095703125,-0.0535702056135201,-0.00665612518787384,-0.024422117182064388,-0.0036338139325380325,-0.004395896459451302,0.9811007191334099,-0.01942823890812376,right,-0.00023818016052246094,-0.385833645016874,-0.48649081025179475,-9.072680476167797,-0.19189994151799383,0.0038837469182908535,0.0003492981195449829,3.6905525535374877,-0.002240121364593506
1745972965761923000,8.343923095703126,-0.05359028450595697,-0.00693612452596426,-0.024374473539317515,0.014763038605451584,-0.0046888087850618715,0.9811008033850833,-0.020028776452757316,right,0.001259446144104004,-0.38581627140204144,-0.4866764324843883,-9.072734836703539,-0.19189878542263133,-0.0034025805070996284,0.002451334148645401,3.6903947326272726,0.0008948743343353271
1745972965801923000,8.383923095703125,-0.05313653458148369,-0.004032930359244347,-0.024112189629644176,0.013222278095781803,-0.004929053174838096,0.9810939922173897,-0.020433154153353797,right,-0.0007158517837524414,-0.3859348049314428,-0.48253641007021064,-9.072517979082464,-0.19196073556211177,-0.005459445063024759,0.002224702388048172,3.69147171420902,0.001702815294265747
1745972965841923300,8.42392333984375,-0.05313653458148369,-0.0004528174176812172,-0.024112189629644176,0.002797553315758705,-0.004929053174838096,0.9810939922173897,-0.020433154153353797,right,-0.00009679794311523438,-0.3859348049314428,-0.48253641007021064,-9.072517979082464,-0.19196073556211177,-0.0078200101852417,0.0035972148180007935,3.69147171420902,0.0013311803340911865
1745972965881923000,8.463923095703125,-0.052569108932806086,0.01343651581555605,-0.02384265602497159,0.007525559514760971,-0.004918183913129931,0.9810639527001687,-0.020310949993145973,right,-0.0003352165222167969,-0.38632295775873626,-0.47731301286611705,-9.071358872175216,-0.1921482524197798,0.000008056871592998505,0.0033299364149570465,3.6949978425085543,0.0002244412899017334
1745972965921923000,8.503923095703126,-0.051830677094025994,0.022998563945293427,-0.02355139223262257,0.006525485776364803,-0.004625430448038834,0.9810718647836489,-0.019570271810979343,right,-0.0008580684661865234,-0.3863498595253563,-0.4706091678459197,-9.071609632065892,-0.19215091477503896,0.0031587316188961267,0.003026392310857773,3.695242172658443,0.000225752592086792
1745972965961923000,8.543923095703125,-0.050686792927413356,0.03070281632244587,-0.023120001766169927,0.01850990206003189,-0.004080764462458227,0.9811036012185512,-0.018231521935026127,right,0.00037020444869995117,-0.3861882796887528,-0.4602622170830145,-9.072737759312988,-0.19205355132231106,0.007606245577335358,0.0026717856526374817,3.69377443819344,-0.00032636523246765137
1745972966001923000,8.583923095703126,-0.04968179794779463,0.026534613221883774,-0.022757630195030205,0.009453410282731056,-0.00351958328926742,0.9811376890573926,-0.016885288348951963,right,0.0015856623649597168,-0.38597908395478764,-0.4511822905812412,-9.073967593368888,-0.19193359353186099,0.00574851268902421,0.003550868481397629,3.691873865269124,-0.001127004623413086
1745972966041923000,8.623923095703125,-0.04890450635729876,0.018898112699389458,-0.02246958301414436,0.010147342458367348,-0.0031180546909679394,0.9811495681437807,-0.01591434897712272,right,0.000019550323486328125,-0.3859638296671204,-0.44413178754784166,-9.07437149799466,-0.1919138391320055,0.002731522312387824,0.0024872422218322754,3.6917353335812684,-0.002338200807571411
1745972966081923300,8.66392333984375,-0.048030511647913374,0.02178787626326084,-0.022142564090533768,0.0023218924179673195,-0.002685186832994352,0.9811685498333379,-0.014858990699096908,right,-0.003717482089996338,-0.38588345878096475,-0.4362149134760722,-9.075053050518035,-0.19186137397072459,-0.0027773429173976183,0.0015209242701530457,3.6910049734801054,-0.000608980655670166
1745972966121923300,8.70392333984375,-0.047768956895744424,0.021933460608124733,-0.022108133868606217,0.0020471448078751564,-0.002219289157025436,0.9811475340248785,-0.013864776430284312,right,0.0016722679138183594,-0.38614515008548544,-0.4337951389832422,-9.074201402124762,-0.19197843809986911,-0.005713393911719322,0.002026759088039398,3.6933825162664053,-0.0011349618434906006
1745972966161923000,8.743923095703124,-0.047272096049825144,0.014820462092757225,-0.021936249535466527,-0.0001378918532282114,-0.0018878152473344924,0.9811255284812549,-0.013099232113795564,right,-0.00017952919006347656,-0.3864403700010061,-0.4292349183956161,-9.0733263728559,-0.19211430729041046,-0.009311914443969727,0.0014404281973838806,3.6960643026962874,0.0005289912223815918
1745972966201923000,8.783923095703125,-0.04677494068028086,0.007707463577389717,-0.021764363731711686,-0.002322928514331579,-0.0015563531025646223,0.9811033547612515,-0.012333464405432617,right,-0.0020315051078796387,-0.3867352514889385,-0.42467305384017523,-9.072449590021371,-0.19225015545890253,-0.012910434976220131,0.0008539259433746338,3.698742874255776,0.002193272113800049
1745972966241923000,8.823923095703124,-0.046725778784819594,0.010516669601202011,-0.021785686092055834,-0.004528635181486607,-0.0013072360200258328,0.9810491701913131,-0.011830059305502448,right,-0.00002956390380859375,-0.38730846803328645,-0.4241279141128063,-9.070351156437397,-0.19252581229664026,-0.012792675755918026,0.0019072368741035461,3.70394833394438,0.00035828351974487305
1745972966281923000,8.863923095703125,-0.046670758754754224,0.017906932160258293,-0.02182689063240372,-0.00965101458132267,-0.0009456671129664926,0.9810001741630868,-0.011094844061591653,right,-0.00011152029037475586,-0.38782786419897197,-0.4235390448415652,-9.068451460295915,-0.19277253135666214,-0.011566479690372944,0.0012615881860256195,3.7086639642894266,0.0003237724304199219
1745972966321923300,8.90392333984375,-0.04649319160746295,0.023852376267313957,-0.021833564724360082,-0.004042826592922211,-0.0004675049457722823,0.9809539644661952,-0.010097311675052269,right,-0.00014013051986694336,-0.3883313122429868,-0.4218419586000964,-9.066659900704026,-0.19300850519481597,-0.011677850969135761,0.001035645604133606,3.7132340486839412,0.0003116726875305176
1745972966361923300,8.94392333984375,-0.046195836701622486,0.025443851947784424,-0.02178923231630418,-0.0037799295969307423,0.000037475811693049386,0.9809076108959636,-0.009021613459376585,right,-0.0010395050048828125,-0.38884722498160773,-0.4190574059154838,-9.064870094677806,-0.19324975835485977,-0.013953969813883305,0.0008202269673347473,3.7179163612812753,0.00026303529739379883
1745972966401923000,8.983923095703124,-0.046168851539329814,0.024284008890390396,-0.02187532853192535,-0.009838363155722618,0.0005561487655609691,0.9808576799857209,-0.007971130973625907,right,0.0012146830558776855,-0.3893653881886705,-0.4187238265795633,-9.062955785489082,-0.19349241804546446,-0.007536606397479773,0.002323441207408905,3.7226179631009697,-0.0011324882507324219
1745972966441923000,9.023923095703125,-0.046229131399288484,0.01621101051568985,-0.02198980948551441,-0.012029464356601238,0.0010002783448805497,0.9808329057515293,-0.007083279706201072,right,0.0007613897323608398,-0.38961110958398665,-0.4192278671115637,-9.062016458812355,-0.1936031632027347,0.0029645604081451893,0.0021850280463695526,3.7248470373272893,-0.0023119747638702393
1745972966481923000,9.063923095703124,-0.04584801250565353,0.00841841846704483,-0.02185949261989729,0.007665499113500118,0.001254275174058348,0.980823713907435,-0.006493323467131568,right,-0.0004876255989074707,-0.3897465046188406,-0.41575098478123546,-9.06167217541933,-0.1936632963248284,-0.009270643815398216,0.0020528994500637054,3.7260754100784657,0.0010663866996765137
1745972966521923000,9.103923095703125,-0.04546978432794409,0.0023366562090814114,-0.021687815392598845,0.0018654493615031242,0.0012997981210064126,0.9807889686702527,-0.006335170757233612,right,-0.001813352108001709,-0.3901468507726649,-0.41225576307661826,-9.060337711945175,-0.1938581423818014,-0.011235225014388561,0.0018699131906032562,3.7297067523181435,0.0021893978118896484
1745972966561923300,9.14392333984375,-0.04546978432794409,0.002309575444087386,-0.021687815392598845,-0.0013779737055301666,0.0012997981210064126,0.9807889686702527,-0.006335170757233612,right,0.0014961957931518555,-0.3901468507726649,-0.41225576307661826,-9.060337711945175,-0.1938581423818014,-0.007035977207124233,0.00296667218208313,3.7297067523181435,0.0014937818050384521
1745972966601923300,9.18392333984375,-0.04515467344102972,0.00755153875797987,-0.021573521565955173,-0.0010342736495658755,0.001485483604573599,0.9807508824712505,-0.005904097754803568,right,0.0002053380012512207,-0.3905722874405843,-0.40932906197495755,-9.058881083396077,-0.19406231452491268,0.0016720863059163094,0.002819884568452835,3.73356488905102,0.0011136531829833984
1745972966641923000,9.223923095703125,-0.04515467344102972,0.009477155283093452,-0.021573521565955173,-0.002108647022396326,0.001485483604573599,0.9807508824712505,-0.005904097754803568,right,0.00015658140182495117,-0.3905722874405843,-0.40932906197495755,-9.058881083396077,-0.19406231452491268,-0.0017891647294163704,0.003410797566175461,3.73356488905102,0.0017643272876739502
1745972966681923000,9.263923095703126,-0.04499578280615526,0.0029436317272484303,-0.021561989394586745,-0.002834659069776535,0.0018140407453243392,0.9807234194925578,-0.005209429621051045,right,-0.0006019473075866699,-0.3908669339147025,-0.4078401751240715,-9.057846479651332,-0.19419944041270068,-0.004077209159731865,0.002442866563796997,3.736236738608777,0.0005491375923156738
1745972966721923000,9.303923095703125,-0.04499578280615526,0.004523907788097858,-0.021561989394586745,-0.0015758859226480126,0.0018140407453243392,0.9807234194925578,-0.005209429621051045,right,-0.00022417306900024414,-0.3908669339147025,-0.4078401751240715,-9.057846479651332,-0.19419944041270068,-0.006089378148317337,0.0017629973590373993,3.736236738608777,-0.0002681910991668701
1745972966761923000,9.343923095703126,-0.04502629941187515,0.008176889270544052,-0.021638240783881102,-0.007095275446772575,0.002139547584137081,0.9806771152165141,-0.004562374692841884,right,-0.00040590763092041016,-0.3913332880639951,-0.40803810884896663,-9.056092329460382,-0.1944211040702998,-0.008160804398357868,0.0009322389960289001,3.7404645854368805,0.00008597970008850098
1745972966801923000,9.383923095703125,-0.045056480284541824,0.01182987168431282,-0.02171447945622895,-0.012614665552973747,0.0024650426580285875,0.9806306427640906,-0.0039152310676106895,right,-0.0005878210067749023,-0.3917996581559881,-0.40823282770346847,-9.054336425703763,-0.19464273693013354,-0.0102322306483984,0.0001011379063129425,3.7446921400040387,0.00044018030166625977
1745972966841923300,9.42392333984375,-0.04483439036555291,0.019774634391069412,-0.021677353692451308,0.001785370521247387,0.0028125435117501685,0.980604009304366,-0.0031689862764454533,right,-0.0002307891845703125,-0.3920884710150416,-0.40617344748824835,-9.053346245622635,-0.19477653044489773,-0.005542281549423933,-0.004054021090269089,3.7473096290260552,0.004093438386917114
1745972966881923000,9.463923095703125,-0.04477831923953134,0.009691708721220493,-0.021707267610894407,-0.005220819730311632,0.003104126091008843,0.9805728376844658,-0.002570342965584871,right,-0.0030336380004882812,-0.3924061633992589,-0.40561252566985784,-9.05217953993082,-0.194925871820626,-0.0077096447348594666,-0.004368863999843597,3.7501883993327616,0.004726439714431763
1745972966921923000,9.503923095703126,-0.04509127337946383,0.005336215253919363,-0.02189803113695001,-0.008235456421971321,0.003327177478265042,0.9805500937099438,-0.002181979210479918,right,0.0021587610244750977,-0.39259798575205146,-0.40841297004334626,-9.051333152234553,-0.19501518337257298,0.004096224904060364,-0.001703549176454544,3.7519264751717447,0.003919780254364014
1745972966961923000,9.543923095703125,-0.04509127337946383,-0.013975463807582855,-0.02189803113695001,0.00419506523758173,0.003327177478265042,0.9805500937099438,-0.002181979210479918,right,0.009388327598571777,-0.39259798575205146,-0.40841297004334626,-9.051333152234553,-0.19501518337257298,0.004699232056736946,0.00231904536485672,3.7519264751717447,0.004285454750061035
1745972967001923000,9.583923095703126,-0.04483228842993863,-0.029648475348949432,-0.021649823469058128,0.04426223784685135,0.002686554942891471,0.9805762345687239,-0.003432109380668005,right,0.009564876556396484,-0.39237754224094695,-0.4061058621447533,-9.052264295604825,-0.19492111296758632,0.010790225118398666,0.008217129856348038,3.7499291638746857,-0.0009421110153198242
1745972967041923000,9.623923095703125,-0.043290928987201736,-0.027712233364582062,-0.02076241816079701,0.044996730983257294,0.0018631415807310763,0.9806323161551693,-0.004796460044291036,right,-0.0038030147552490234,-0.391985387997071,-0.39221619727369395,-9.054348116141558,-0.19474506143362785,0.012715037912130356,0.00629381462931633,3.746375270785391,-0.00203019380569458
1745972967081923300,9.66392333984375,-0.04237697949168983,-0.02131793461740017,-0.020206938355824437,0.02184019424021244,0.0012346672463132628,0.9806388482410667,-0.005897548553871833,right,-0.00735163688659668,-0.39202346898472784,-0.38393476420585065,-9.054560297587514,-0.19477571346022185,-0.0043142978101968765,0.005499903112649918,3.746720430961251,-0.0014732778072357178
1745972967121923300,9.70392333984375,-0.04222530594226035,-0.018708251416683197,-0.02005328786120779,0.005362018942832947,0.000826238581942128,0.9806225508711455,-0.00670449004818811,right,-0.002607583999633789,-0.3922109671150387,-0.3825317655401304,-9.053916738986969,-0.1948758417708966,-0.004179954528808594,0.006291665136814117,3.74841963609457,-0.0014307200908660889
1745972967161923000,9.743923095703124,-0.04204181368286805,-0.017179381102323532,-0.019897864627681193,0.01025884598493576,0.0004733509114986849,0.9806428434433752,-0.007383665408995548,right,0.0018069744110107422,-0.39202341969962295,-0.380899963087216,-9.054688892403245,-0.19479073343531284,0.006482439115643501,0.006947886198759079,3.746720138700306,-0.003238767385482788
1745972967201923000,9.783923095703125,-0.04138755918977205,-0.015079985372722149,-0.019507503311036054,0.033721789717674255,0.00003846257975994636,0.9807157697787535,-0.008125971149177678,right,0.0011908411979675293,-0.39134092327586617,-0.3750815591320395,-9.057488752254843,-0.19446348074046035,0.016973990947008133,0.005734596401453018,3.740533851280808,-0.004799455404281616
1745972967241923000,9.823923095703124,-0.040186762100796025,-0.007902607321739197,-0.018887990939568153,0.017512395977973938,-0.0002525059064200431,0.9807889370429989,-0.008467935900569792,right,-0.0026663541793823242,-0.3907051937558439,-0.36430052780080585,-9.060306732285023,-0.19415497305470494,0.004330938681960106,0.0030115842819213867,3.7347701731875538,-0.00021985173225402832
1745972967281923000,9.863923095703125,-0.03959888489618354,0.000715167261660099,-0.018582981257298358,0.008242062292993069,-0.00039061085489686473,0.980783641843759,-0.008635485093976734,right,-0.0016477108001708984,-0.39081682106595544,-0.3589576324028894,-9.060102734145522,-0.1942111769550713,-0.008668732829391956,0.003201644867658615,3.735782272839546,-0.0008003711700439453
1745972967321923300,9.90392333984375,-0.03887621432693934,0.01013101078569889,-0.018258067355415467,0.01154537033289671,-0.0003070434515657855,0.9807745425759952,-0.008325287375604465,right,-0.0011026859283447266,-0.3909802035575951,-0.3523863277211785,-9.05975026744604,-0.1942883032657354,-0.002699592150747776,0.00173863023519516,3.7372637435689566,-0.0005200207233428955
1745972967361923300,9.94392333984375,-0.03879935019284592,0.010991139337420464,-0.018303313246213718,0.005555398762226105,0.00010691088237480314,0.9807659484778726,-0.007467850346816709,right,0.0008040070533752441,-0.3910758099734028,-0.3516760970925912,-9.059420012578368,-0.19432735621500422,-0.0003240611404180527,0.0018683336675167084,3.738130297270417,0.0017246603965759277
1745972967401923000,9.983923095703124,-0.03872244590978811,0.011851267889142036,-0.01834856891272857,-0.00043457280844449997,0.0005208143485296437,0.9807572311886951,-0.00661048598779925,right,0.002710700035095215,-0.39117142207456534,-0.350965537670441,-9.059089757710694,-0.19436639791794041,0.002051469637081027,0.00199798122048378,3.7389971432328224,0.003969311714172363
1745972967441923000,10.023923095703125,-0.03891618340574259,0.004411698319017887,-0.01849287126787154,-0.0046571348793804646,0.000779842169548749,0.9807861347641829,-0.006114286694587936,right,0.0013805031776428223,-0.3908538253437549,-0.3527668149387464,-9.060207948085665,-0.1942060204037447,0.010728596709668636,0.0029660575091838837,3.736117788404226,0.003043144941329956
1745972967481923000,10.063923095703124,-0.03891618340574259,-0.007386219687759876,-0.01849287126787154,-0.0063385022804141045,0.000779842169548749,0.9807861347641829,-0.006114286694587936,right,-0.0021976828575134277,-0.3908538253437549,-0.3527668149387464,-9.060207948085665,-0.1942060204037447,0.0007573002949357033,0.0015304386615753174,3.736117788404226,0.0036294758319854736
1745972967521923000,10.103923095703125,-0.03987770042530728,-0.027087513357400894,-0.018898943631903354,-0.020836152136325836,0.0005486029003441572,0.9807570617112149,-0.006780529420914913,right,0.0012900829315185547,-0.39106279740083144,-0.36144703806582834,-9.059083912491797,-0.1943144077232801,-0.01182396337389946,0.0016705580055713654,3.738012516109645,0.005013108253479004
1745972967561923300,10.14392333984375,-0.04090807729515494,-0.05159618705511093,-0.01924440533140278,0.005275065079331398,-0.0001435893150327111,0.9807025217137985,-0.008406074011682689,right,0.008999824523925781,-0.3915248537391429,-0.37071046790834516,-9.056980218210816,-0.19455637247013396,-0.006600756198167801,0.0017929263412952423,3.7422011999711393,0.006464242935180664
1745972967601923300,10.18392333984375,-0.04127347828957374,-0.10526330769062042,-0.01911024742287806,0.030240675434470177,-0.0016894808167180185,0.9807035624901199,-0.011629860688162836,right,0.006432235240936279,-0.39146353138811874,-0.37402934666536747,-9.057073157191276,-0.19455737100454532,0.0030220672488212585,0.0015279613435268402,3.7416453196540473,0.01376292109489441
1745972967641923000,10.223923095703125,-0.04170886971471975,-0.17247532308101654,-0.0187225892255474,0.0597500279545784,-0.004677367475633669,0.9806906019128445,-0.017809383042710295,right,0.0034938454627990723,-0.39145202922782496,-0.37797446756195274,-9.056952745682,-0.19461089611854723,-0.003899112343788147,0.0014778710901737213,3.7415409824967383,0.01066899299621582
1745972967681923000,10.263923095703126,-0.04248550535066978,-0.1882682740688324,-0.018212636554446746,0.05547047406435013,-0.00907663348117011,0.9806295995883019,-0.026941009787811023,right,0.0008782744407653809,-0.3916836841313568,-0.38497148684244603,-9.055790131643414,-0.19481145033295477,-0.00834487285465002,0.000526823103427887,3.7436408773854373,0.002974182367324829
1745972967721923000,10.303923095703125,-0.04326449271384411,-0.20406122505664825,-0.017702319426236676,0.05119092017412186,-0.01347581707094336,0.9805492410664413,-0.03607388849746283,right,-0.0017354488372802734,-0.39190869155417885,-0.39198925665002315,-9.054645637783407,-0.19500815361921509,-0.012790633365511894,-0.00042209401726722717,3.7456802742585538,-0.004714459180831909
1745972967761923000,10.343923095703126,-0.04446225776853021,-0.13568861782550812,-0.01753076607654699,0.01873626932501793,-0.01716165437801889,0.9804646518908418,-0.043834316099189204,right,-0.004737138748168945,-0.39205923945584603,-0.4028092317521572,-9.053606357863545,-0.195159473662312,-0.002735818736255169,-0.0016171596944332123,3.7470445483490824,-0.018398702144622803
1745972967801923000,10.383923095703125,-0.04527743350630596,-0.026645034551620483,-0.017592420474104357,-0.0012252572923898697,-0.01880180279494605,0.9804518375623942,-0.047335046970224184,right,-0.002085268497467041,-0.3917933912913431,-0.410234449849464,-9.05426979020834,-0.1950672386357851,-0.0042864675633609295,0.0040808022022247314,3.744635149119794,-0.01772618293762207
1745972967841923300,10.42392333984375,-0.04462826742449563,0.0337509848177433,-0.017326776058382738,0.01599797233939171,-0.01863691331622589,0.9805048181045246,-0.04685763237399797,right,-0.000006973743438720703,-0.39135164691618024,-0.40443040321320295,-9.056185852962733,-0.19484047712998073,0.006069530267268419,0.007233560085296631,3.740631174175441,-0.00808560848236084
1745972967881923000,10.463923095703125,-0.04357507734847282,0.02737334556877613,-0.016973322398153076,0.0043304916471242905,-0.017995474204198714,0.9806201993791507,-0.045314953205154884,right,-0.004660189151763916,-0.3903987099061001,-0.39504740211162714,-9.060163524422048,-0.1943504944680294,0.017871450632810593,0.008874796330928802,3.731990771602094,0.0031679868698120117
1745972967921923000,10.503923095703126,-0.04318203368122455,-0.009034520015120506,-0.016836885612322473,-0.009854024276137352,-0.017808796624843238,0.9807001743673603,-0.04483680676855,right,-0.005796968936920166,-0.389648701109046,-0.3916070523994043,-9.063111852833629,-0.1939752696240461,0.004905231297016144,0.006304580718278885,3.7251881058499214,0.009676635265350342
1745972967961923000,10.543923095703125,-0.04382214738375548,-0.02065838687121868,-0.01709028007152475,-0.015681052580475807,-0.018069929183982092,0.9807100343972345,-0.045490217466527455,right,0.000793159008026123,-0.3894308166278174,-0.3974439418593421,-9.063670655760168,-0.1938797084115453,0.0027025265153497458,0.0033564940094947815,3.723211545079946,0.004480212926864624
1745972968001923000,10.583923095703126,-0.044472728450976,-0.014081173576414585,-0.017337359961817192,-0.009419677779078484,-0.018379161179151345,0.9807075423186344,-0.0462466880438703,right,0.004724442958831787,-0.38932698526821097,-0.4033576959477737,-9.06379632796645,-0.19384124599051367,0.00823957659304142,0.004229709506034851,3.7222692957937715,-0.0015628039836883545
1745972968041923000,10.623923095703125,-0.044472728450976,-0.009629246778786182,-0.017337359961817192,0.0016488311812281609,-0.018379161179151345,0.9807075423186344,-0.0462466880438703,right,0.002308189868927002,-0.38932698526821097,-0.4033576959477737,-9.06379632796645,-0.19384124599051367,0.010207138024270535,0.0022604502737522125,3.7222692957937715,-0.003388136625289917
1745972968081923300,10.66392333984375,-0.044424277203947475,-0.010294994339346886,-0.01725319621789989,0.0015223557129502296,-0.018726380387814077,0.9807448452888579,-0.04693316561568176,right,-0.0008099675178527832,-0.3888781040477021,-0.4029926985602826,-9.065483842661976,-0.1936266634503139,0.0001267874613404274,0.0015663132071495056,3.7181963472664354,-0.0022641420364379883
1745972968121923300,10.70392333984375,-0.044424277203947475,-0.008618554100394249,-0.01725319621789989,-0.0020496246870607138,-0.018726380387814077,0.9807448452888579,-0.04693316561568176,right,-0.0013309717178344727,-0.3888781040477021,-0.4029926985602826,-9.065483842661976,-0.1936266634503139,-0.0014911951730027795,-0.0001140795648097992,3.7181963472664354,-0.0054250359535217285
1745972968161923000,10.743923095703124,-0.04434713443023775,-0.0011275801807641983,-0.01714700640983241,0.0018568921368569136,-0.01905458749463549,0.9807096694980559,-0.04759548332058041,right,-0.0025595426559448242,-0.38918502128865745,-0.4022427569758147,-9.064374420115351,-0.19378210383941685,-0.011148440651595592,-0.0006052292883396149,3.720981301809847,-0.005383998155593872
1745972968201923000,10.783923095703125,-0.04434713443023775,0.004152529872953892,-0.01714700640983241,0.004670310765504837,-0.01905458749463549,0.9807096694980559,-0.04759548332058041,right,-0.0016331076622009277,-0.38918502128865745,-0.4022427569758147,-9.064374420115351,-0.19378210383941685,-0.02138643153011799,0.0002472884953022003,3.720981301809847,-0.00005257129669189453
1745972968241923000,10.823923095703124,-0.044045998562405556,-0.008450701832771301,-0.016961384775440777,0.0002706213854253292,-0.01917113057434453,0.9805886223164154,-0.047807305742208456,right,-0.0008209347724914551,-0.39044357861262485,-0.39930659392606466,-9.059809304156898,-0.19439802622217864,-0.02518666535615921,0.0016783885657787323,3.732397598837316,0.0015310049057006836
1745972968281923000,10.863923095703125,-0.0440349519082376,-0.015839651226997375,-0.01687769597331338,0.010362407192587852,-0.019495610650189246,0.9804998242330977,-0.048489753652235144,right,-0.0006826519966125488,-0.39129478007495105,-0.399066538092494,-9.05663651933968,-0.19482090789946224,-0.013346003368496895,0.0030560754239559174,3.7401156258687376,0.0013152062892913818
1745972968321923300,10.90392333984375,-0.04416851225811148,-0.020832689478993416,-0.016855034904080187,-0.00897272489964962,-0.019897373776977305,0.9804574149093345,-0.049344954035277715,right,-0.003854036331176758,-0.391633980541586,-0.4002200920417905,-9.055315499868989,-0.19499568587617933,-0.009997909888625145,0.001261197030544281,3.7431902110084887,0.0040670037269592285
1745972968361923300,10.94392333984375,-0.04517532309589311,-0.025361713021993637,-0.017220352610363955,-0.01391347125172615,-0.020381434161844486,0.9803667674479323,-0.050552507317927105,right,-0.00016999244689941406,-0.3923539813116956,-0.4092150436738506,-9.052212857678532,-0.1953689894867669,-0.021451091393828392,0.0030006766319274902,3.749715521124005,0.0026085972785949707
1745972968401923000,10.983923095703124,-0.04601459982634985,-0.024051660671830177,-0.017504410295092802,-0.00365309976041317,-0.020881770999141583,0.9802850325926176,-0.05175846376346997,right,0.0034334659576416016,-0.39299221986889027,-0.4167020384283736,-9.04947378810346,-0.19570087968934585,-0.007971341721713543,0.0037115588784217834,3.7554981961786744,0.0006994307041168213
1745972968441923000,11.023923095703125,-0.04644355771968818,-0.03459722548723221,-0.017597158074581985,-0.004814393352717161,-0.021419833835853688,0.9802595097057683,-0.052944564687665424,right,0.0003801584243774414,-0.3930864573083521,-0.42056740861963476,-9.048940704140067,-0.19576201232653045,-0.0014299694448709488,0.004036467522382736,3.7563518903985615,0.00424310564994812
1745972968481923000,11.063923095703124,-0.04695770212306487,-0.056704435497522354,-0.017666176178683258,0.004749954212456942,-0.02231484413520992,0.9802644921134746,-0.05486426205014269,right,-0.0018585920333862305,-0.3927727682407821,-0.42527511138655244,-9.049899904561043,-0.19563084648868131,0.005699537228792906,0.0025071240961551666,3.7535099449709057,0.007318079471588135
1745972968521923000,11.103923095703125,-0.04829544737303715,-0.11297064274549484,-0.017968037123461032,-0.005335651803761721,-0.023975102012018128,0.98022874864446,-0.058513063672453444,right,0.0010389089584350586,-0.3925835231731675,-0.43741548490487037,-9.050032006508111,-0.19558610132066398,-0.003613076638430357,0.0014330781996250153,3.751795542268455,0.007516622543334961
1745972968561923300,11.14392333984375,-0.04983858191510585,-0.13664817810058594,-0.01812284092906037,0.0030556139536201954,-0.026826023991022244,0.9801262698674928,-0.0646416382060261,right,-0.00029927492141723633,-0.3926944864022387,-0.4513596199095249,-9.048930767267942,-0.19571535126981382,-0.012711623683571815,0.0008177794516086578,3.7528009199187156,0.005301237106323242
1745972968601923300,11.18392333984375,-0.051382465973075275,-0.16032572090625763,-0.018277499228905338,0.011446880176663399,-0.029676669804339268,0.9800156597996892,-0.07077053248953566,right,-0.0016363859176635742,-0.39279660742577627,-0.46530989239402115,-9.047840049421787,-0.19584297421612168,-0.021810170263051987,0.00020310282707214355,3.7537259258091447,0.0030940473079681396
1745972968641923000,11.223923095703125,-0.05314175714151585,-0.13159704208374023,-0.01849646277798845,0.029406843706965446,-0.0326766972666358,0.9798635747830388,-0.07725726190547848,right,0.0011714696884155273,-0.3931553678441411,-0.4811554040405899,-9.045662120860815,-0.19610574495479963,-0.011824581772089005,0.0006860420107841492,3.756976159776747,-0.004528075456619263
1745972968681923000,11.263923095703126,-0.054259967985388485,-0.11042069643735886,-0.018539075523094833,0.0025306176394224167,-0.0351010652446376,0.9797731679131726,-0.08242696792157553,right,-0.004630088806152344,-0.3930773021972558,-0.4912859355738386,-9.045411360970139,-0.19613433514421166,0.002555128186941147,-0.00023392215371131897,3.756268888290226,-0.009180009365081787
1745972968721923000,11.303923095703125,-0.055115022504320196,-0.06149885058403015,-0.018652507397838067,0.019656751304864883,-0.03668717452008576,0.9798074843054859,-0.0857976756417594,right,0.005386054515838623,-0.39201596245735243,-0.49923941532894966,-9.048963500493764,-0.19566131355839672,0.023390360176563263,0.0022041499614715576,3.7466523341611024,-0.006058841943740845
1745972968761923000,11.343923095703126,-0.054953863041572654,-0.01801835373044014,-0.018433699083382236,0.045250698924064636,-0.037562726422431754,0.9798882959671761,-0.08751106804297572,right,0.008217453956604004,-0.390864311767195,-0.4980177645795047,-9.053346245622635,-0.1951102612234479,0.020210541784763336,0.002947859466075897,3.7362127732113,-0.003071129322052002
1745972968801923000,11.383923095703125,-0.05432396026189765,-0.011020061559975147,-0.01806987975291945,0.029597187414765358,-0.03796535074184041,0.9799253766134767,-0.0881909600176383,right,0.003401637077331543,-0.39040557301798867,-0.492407925341092,-9.05536810683906,-0.1948799213509753,-0.0005880557000637054,0.0032092630863189697,3.7320530231833455,0.0014380216598510742
1745972968841923300,11.42392333984375,-0.05413309524899798,-0.01609080657362938,-0.017922364906147042,0.0028834808617830276,-0.03825020648521225,0.979913194051111,-0.08873573830063244,right,0.00032442808151245117,-0.39044312321640495,-0.4906720049265772,-9.055322514131666,-0.19489955696906638,-0.004906359128654003,0.004516199231147766,3.732393507184088,0.00264778733253479
1745972968881923000,11.463923095703125,-0.05442943100622777,-0.020073045045137405,-0.01797659703601138,0.004639420658349991,-0.03865033215145879,0.9798742614153989,-0.08961856416326083,right,0.00024330615997314453,-0.39064327659641157,-0.49331473798770453,-9.054430533728002,-0.19501120027022972,0.0006195167079567909,0.004106935113668442,3.7342087399125097,-0.0008887648582458496
1745972968921923000,11.503923095703126,-0.054695514957343754,-0.013110240921378136,-0.01802867706549173,-0.005518932826817036,-0.03901614955679338,0.9798552788885255,-0.09041859094727493,right,-0.0007472634315490723,-0.39065430545048574,-0.4957217260641977,-9.054257515248656,-0.19502896707955084,-0.0017518221866339445,0.0029058121144771576,3.734308693155646,0.0008384883403778076
1745972968961923000,11.543923095703125,-0.054643266866144485,-0.020036041736602783,-0.01792982130384891,0.0058906590566039085,-0.03935724568642988,0.9798206667618339,-0.09111254511132541,right,-0.0006952285766601562,-0.39087797047970835,-0.49520299941971896,-9.053449705997108,-0.19514369367572154,0.0007805151399224997,0.003219049423933029,3.7363366918519136,0.0009978711605072021
1745972969001923000,11.583923095703126,-0.054591166885393165,-0.02696184068918228,-0.01783096260097533,0.017300251871347427,-0.03969831447812261,0.9797858414734372,-0.09180649599464871,right,-0.000643312931060791,-0.39110160698538193,-0.4946857340799644,-9.052640727701784,-0.1952583782277951,0.0033128522336483,0.0035324543714523315,3.7383643982872363,0.0011572539806365967
1745972969041923000,11.623923095703125,-0.05443844287549878,-0.03728439286351204,-0.017652146242513732,0.0126957967877388,-0.04026185610036429,0.97978263440585,-0.0929196903579867,right,-0.0019336938858032227,-0.39091730172267963,-0.49334063961394126,-9.053404113289714,-0.1951749697525854,0.002261909656226635,0.004496954381465912,3.7366932502046226,0.0046205222606658936
1745972969081923300,11.66392333984375,-0.05473120373252967,-0.056600674986839294,-0.01759809089201368,0.014809640124440193,-0.041206590016097916,0.9797278894915623,-0.09491096774000579,right,0.0021581649780273438,-0.3910383924624623,-0.4959663484750315,-9.052807316440344,-0.19525775846163218,-0.003462121356278658,0.0030357278883457184,3.737791274574399,0.0018942058086395264
1745972969121923300,11.70392333984375,-0.054986172606260174,-0.06577543169260025,-0.017471322146842435,0.016656801104545593,-0.042430715335191285,0.9796635794921177,-0.0974641058711657,right,0.002342820167541504,-0.39112831616586485,-0.4982560303147882,-9.052344959625602,-0.19532950501691834,-0.007628171239048243,0.0024703405797481537,3.7386063903495668,0.0010707974433898926
1745972969161923000,11.743923095703124,-0.055319609877578044,-0.07799726724624634,-0.0172873389808402,0.013425588607788086,-0.044097253671927954,0.979559196869012,-0.10094327784797759,right,-0.00028318166732788086,-0.39140111798134647,-0.5012179853929206,-9.051159549233317,-0.19550048521981536,-0.009829666465520859,0.0007911361753940582,3.7410795024648307,0.00040912628173828125
1745972969201923000,11.783923095703125,-0.0556541317792098,-0.09021911025047302,-0.01710331463761064,0.010194376111030579,-0.04576370064488843,0.979451892614743,-0.10442299955961129,right,-0.002908945083618164,-0.3916727231253183,-0.5041892197560519,-9.049976476928592,-0.19567087680535236,-0.012031160295009613,-0.0008871331810951233,3.7435415086641903,-0.00025141239166259766
1745972969241923000,11.823923095703124,-0.05656151857937323,-0.08647498488426208,-0.01715788148838511,0.010996025986969471,-0.0475766211937851,0.9793247531490865,-0.10831795306749267,right,-0.0010854601860046387,-0.3919685816123207,-0.5123382220832631,-9.048409373742341,-0.19587019681854131,-0.007493183016777039,-0.0005394108593463898,3.7462230028331276,-0.0038371384143829346
1745972969281923000,11.863923095703125,-0.057313429836928026,-0.0680197924375534,-0.017190666891697213,0.02301577478647232,-0.04916547522933174,0.979228033509607,-0.11171658710665604,right,-0.00041490793228149414,-0.39205130623709183,-0.5191239001680166,-9.047712039127946,-0.19595806446931868,-0.01170908659696579,0.0005090422928333282,3.746972652156651,-0.0008500814437866211
1745972969321923300,11.90392333984375,-0.05740837809017429,-0.030460000038146973,-0.01699954758773589,0.024286780506372452,-0.05027370030524918,0.979131237444801,-0.11401524614816298,right,0.002233445644378662,-0.3924540344732059,-0.5198963458452374,-9.04615545733571,-0.19617711721951106,-0.012700452469289303,0.0013374872505664825,3.750622114574909,-0.00036603212356567383
1745972969361923300,11.94392333984375,-0.056378672352632844,-0.01847139187157154,-0.01638155763781783,0.03888779878616333,-0.05086213946870107,0.9790692703158234,-0.11502939747432944,right,0.003737926483154297,-0.39292016320216683,-0.510482657344453,-9.044939651805162,-0.19638757414058625,-0.014453096315264702,0.0014617815613746643,3.7548452852278946,0.004997342824935913
1745972969401923000,11.983923095703124,-0.054235710460661654,-0.023485224694013596,-0.015244870910810598,0.08091916143894196,-0.05149883640226439,0.9790579144361757,-0.11590258974231193,right,0.0048714280128479,-0.3929815028465123,-0.4910860290875658,-9.04578253237009,-0.19636965330356607,0.0072204116731882095,0.0010388009250164032,3.7554011655449866,0.0036938488483428955
1745972969441923000,12.023923095703125,-0.051588857894957874,-0.02710174024105072,-0.013861793471866333,0.0719599574804306,-0.05229260917788929,0.9791040640196627,-0.11697213169848532,right,-0.001744687557220459,-0.3924160099109508,-0.4672509069265797,-9.049169836720823,-0.19603208974875316,0.02120141126215458,0.0014444030821323395,3.7502775389209386,-0.0017627179622650146
1745972969481923000,12.063923095703124,-0.04998430624028267,-0.013980903662741184,-0.012990952982129544,0.0428122952580452,-0.052974357098052656,0.9791414473124207,-0.11802283721784171,right,-0.002848207950592041,-0.39185318360994775,-0.4528358664745465,-9.052014704757928,-0.19572154944049433,0.021204425022006035,0.0014144405722618103,3.7451770009115335,-0.00701335072517395
1745972969521923000,12.103923095703125,-0.04879904120360891,0.017965421080589294,-0.012432265865474287,0.022569192573428154,-0.053112886202400185,0.979220681492609,-0.11804183687324579,right,-0.001282811164855957,-0.39110390085085245,-0.4422432703875005,-9.055345310485363,-0.19532360040993357,0.01950071193277836,0.003011878579854965,3.7383851488143205,-0.010037243366241455
1745972969561923300,12.14392333984375,-0.047566225849824166,0.032154228538274765,-0.01196015372115773,0.009436856023967266,-0.0526769415701373,0.9793162581763311,-0.11688446987453706,right,-0.005546689033508301,-0.39050672947585074,-0.4311854314088821,-9.058112437111138,-0.19499170488780637,0.005790765397250652,0.0026609860360622406,3.7329704302892086,-0.0063454508781433105
1745972969601923300,12.18392333984375,-0.04673568728491271,0.022680051624774933,-0.01168284895065799,0.002960825804620981,-0.05212193174445121,0.97936298794351,-0.11558283293563827,right,-0.003446638584136963,-0.39042532290566456,-0.4236763709530234,-9.058770608758925,-0.19492243210305515,-0.009887234307825565,0.0033187121152877808,3.7322321791425344,-0.0013770759105682373
1745972969641923000,12.223923095703125,-0.04619857646770626,0.006487444043159485,-0.011480895907778193,0.006686609238386154,-0.05180311468646084,0.979349092544922,-0.11483797047746332,right,-0.0003867149353027344,-0.39080487845339296,-0.41874530775900926,-9.057581106713414,-0.19508989517193792,-0.01370824035257101,0.003719571977853775,3.735673844029009,0.0005710422992706299
1745972969681923000,12.263923095703126,-0.04619857646770626,-0.004774187691509724,-0.011480895907778193,0.01109747402369976,-0.05180311468646084,0.979349092544922,-0.11483797047746332,right,-0.00029009580612182617,-0.39080487845339296,-0.41874530775900926,-9.057581106713414,-0.19508989517193792,-0.01094385702162981,0.003751855343580246,3.735673844029009,0.00029140710830688477
1745972969721923000,12.303923095703125,-0.04552960461472639,-0.0029031094163656235,-0.011116015420910397,0.0010913042351603508,-0.051907277885989325,0.9792654999354992,-0.1149473767239729,right,-0.0001939535140991211,-0.3916815869187237,-0.4125366989098489,-9.05458426298499,-0.19550223920810306,-0.011746203526854515,0.0023130737245082855,3.7436218804240227,-0.0016185641288757324
1745972969761923000,12.343923095703126,-0.045190072320317076,0.004270428791642189,-0.010959139986066105,0.001602888572961092,-0.05177601158052357,0.9792080677564,-0.11463522760411285,right,-0.0005316734313964844,-0.3923796673454139,-0.40934422301147133,-9.052110566347837,-0.19583333012224868,-0.014919450506567955,0.0019711777567863464,3.749948453097045,-0.0004113912582397461
1745972969801923300,12.38392333984375,-0.04485024059606251,0.011443966999650002,-0.010802274326937991,0.002114472910761833,-0.05164475115751828,0.9791505514891109,-0.11432277588036652,right,-0.0008699893951416016,-0.3930777172031212,-0.4061505415366962,-9.049632193535565,-0.1961644097900621,-0.018092695623636246,0.0016291551291942596,3.756272687682509,0.0007960498332977295
1745972969841923300,12.42392333984375,-0.04443537855020728,0.011653111316263676,-0.010637300858649586,0.0006554910214617848,-0.051382325324915594,0.9791024071193526,-0.1137263897824165,right,-0.001074373722076416,-0.3937556636244078,-0.40228294285573063,-9.047253773966432,-0.19648226207020034,-0.014085334725677967,0.002211492508649826,3.7624130901336668,0.0013412833213806152
1745972969881923000,12.463923095703125,-0.04443537855020728,0.00899941474199295,-0.010637300858649586,-0.006206140853464603,-0.051382325324915594,0.9791024071193526,-0.1137263897824165,right,0.0015926361083984375,-0.3937556636244078,-0.40228294285573063,-9.047253773966432,-0.19648226207020034,-0.006712723523378372,0.0025808699429035187,3.7624130901336668,0.002591729164123535
1745972969921923000,12.503923095703126,-0.04456165924998559,0.002355649136006832,-0.010755481171956573,-0.0016244933940470219,-0.05099257860665653,0.9790642415930186,-0.11297521142022328,right,0.0019273161888122559,-0.394339776674607,-0.40332744693998246,-9.045005702778697,-0.19676728257118056,-0.0017570946365594864,0.0007461421191692352,3.7677024287134406,0.0012372136116027832
1745972969961923000,12.543923095703125,-0.04456165924998559,-0.0034128790721297264,-0.010755481171956573,0.0032500121742486954,-0.05099257860665653,0.9790642415930186,-0.11297521142022328,right,-0.0008429884910583496,-0.394339776674607,-0.40332744693998246,-9.045005702778697,-0.19676728257118056,-0.002369582187384367,0.001634698361158371,3.7677024287134406,0.0019219517707824707
1745972970001923000,12.583923095703126,-0.04456165924998559,-0.001435743412002921,-0.010755481171956573,-0.0010809707455337048,-0.05099257860665653,0.9790642415930186,-0.11297521142022328,right,0.00024622678756713867,-0.394339776674607,-0.40332744693998246,-9.045005702778697,-0.19676728257118056,-0.0031549143604934216,0.0009226948022842407,3.7677024287134406,0.0014046728610992432
1745972970041923000,12.623923095703125,-0.04456165924998559,0.003119752975180745,-0.010755481171956573,-0.003948174882680178,-0.05099257860665653,0.9790642415930186,-0.11297521142022328,right,0.0019461512565612793,-0.394339776674607,-0.40332744693998246,-9.045005702778697,-0.19676728257118056,-0.0020899283699691296,0.0020817480981349945,3.7677024287134406,0.00015142560005187988
1745972970081923300,12.66392333984375,-0.04456165924998559,0.0015829089097678661,-0.010755481171956573,-0.0014850785955786705,-0.05099257860665653,0.9790642415930186,-0.11297521142022328,right,0.0007317662239074707,-0.394339776674607,-0.40332744693998246,-9.045005702778697,-0.19676728257118056,0.001300489529967308,0.0026497691869735718,3.7677024287134406,0.000413358211517334
1745972970121923300,12.70392333984375,-0.04456165924998559,0.0010894882725551724,-0.010755481171956573,-0.009538012556731701,-0.05099257860665653,0.9790642415930186,-0.11297521142022328,right,-0.0004913210868835449,-0.394339776674607,-0.40332744693998246,-9.045005702778697,-0.19676728257118056,-0.0011472764890640974,0.0017952919006347656,3.7677024287134406,0.000157088041305542
1745972970161923000,12.743923095703124,-0.04512237391321933,-0.00004606915172189474,-0.011065878905404078,-0.006775889545679092,-0.05069473578880319,0.979035589521839,-0.11249262065096303,right,0.0022957921028137207,-0.3947285420709239,-0.4083329636096954,-9.043314096429944,-0.19696913352271436,-0.0035590671468526125,0.0020173750817775726,3.7712218350112434,-0.0010697245597839355
1745972970201923000,12.783923095703125,-0.04548942641853962,0.00021235723397694528,-0.01126247515173776,-0.008039799518883228,-0.05055817795930388,0.9790290362420494,-0.11229088201074539,right,0.00367581844329834,-0.3948278211487418,-0.41163525655809785,-9.042789780294894,-0.19702586378016476,-0.00031408900395035744,0.0042755454778671265,3.7721205374166367,-0.0006495416164398193
1745972970241923000,12.823923095703124,-0.04548942641853962,-0.0027172246482223272,-0.01126247515173776,-0.009443709626793861,-0.05055817795930388,0.9790290362420494,-0.11229088201074539,right,0.0014344453811645508,-0.3948278211487418,-0.41163525655809785,-9.042789780294894,-0.19702586378016476,-0.003507758490741253,0.0030657388269901276,3.7721205374166367,-0.000032961368560791016
1745972970281923000,12.863923095703125,-0.04548942641853962,-0.005646805744618177,-0.01126247515173776,-0.010847619734704494,-0.05055817795930388,0.9790290362420494,-0.11229088201074539,right,-0.0008069276809692383,-0.3948278211487418,-0.41163525655809785,-9.042789780294894,-0.19702586378016476,-0.006701427511870861,0.0018559359014034271,3.7721205374166367,0.0005836188793182373
1745972970321923300,12.90392333984375,-0.04590689806851528,0.0006242375820875168,-0.011436127627088654,-0.0026219887658953667,-0.05060719465555014,0.9789848496621137,-0.11248799306180159,right,0.0016037225723266602,-0.3952065518510734,-0.4153447420679033,-9.041189359360933,-0.1972228314126956,-0.0013691522181034088,0.0028038807213306427,3.7755487582996485,-0.0012567341327667236
1745972970361923300,12.94392333984375,-0.04590689806851528,-0.0036060907877981663,-0.011436127627088654,-0.0036491607315838337,-0.05060719465555014,0.9789848496621137,-0.11248799306180159,right,0.0011056065559387207,-0.3952065518510734,-0.4153447420679033,-9.041189359360933,-0.1972228314126956,-0.0016325637698173523,0.0032834112644195557,3.7755487582996485,0.0009402930736541748
1745972970401923000,12.983923095703124,-0.04590689806851528,-0.007836418226361275,-0.011436127627088654,-0.004676332697272301,-0.05060719465555014,0.9789848496621137,-0.11248799306180159,right,0.0006074309349060059,-0.3952065518510734,-0.4153447420679033,-9.041189359360933,-0.1972228314126956,-0.0018959753215312958,0.0037629418075084686,3.7755487582996485,0.0031372904777526855
1745972970441923000,13.023923095703125,-0.04590689806851528,-0.012897510081529617,-0.011436127627088654,0.001678952481597662,-0.05060719465555014,0.9789848496621137,-0.11248799306180159,right,0.0016080141067504883,-0.3952065518510734,-0.4153447420679033,-9.041189359360933,-0.1972228314126956,0.0014254392590373755,0.0038861073553562164,3.7755487582996485,0.001485198736190796
1745972970481923000,13.063923095703124,-0.045983619319882006,-0.014060079120099545,-0.011415699751735441,0.008107938803732395,-0.05095930927655796,0.979008341394776,-0.11320790570266055,right,0.00027930736541748047,-0.3947725904847912,-0.41611368061378595,-9.042793287426234,-0.19701658131816552,0.00693108607083559,0.0016473978757858276,3.7716207712009546,0.000596165657043457
1745972970521923000,13.103923095703125,-0.045983619319882006,-0.011596066877245903,-0.011415699751735441,0.0005087102763354778,-0.05095930927655796,0.979008341394776,-0.11320790570266055,right,-0.0012860894203186035,-0.3947725904847912,-0.41611368061378595,-9.042793287426234,-0.19701658131816552,0.007104925811290741,0.0015338994562625885,3.7716207712009546,0.0003268122673034668
1745972970561923300,13.14392333984375,-0.046337700022687354,-0.011613147333264351,-0.01150838117243756,-0.0030286244582384825,-0.051427582907256846,0.9790400858796826,-0.11421461278336954,right,0.0004807710647583008,-0.39415981365573294,-0.41942251290082927,-9.044952511286734,-0.19673160781632515,0.0186309814453125,0.0019151419401168823,3.7660727816849944,0.0005924999713897705
1745972970601923300,13.18392333984375,-0.04668307415709448,-0.013769121840596199,-0.011635592495296134,-0.004905413370579481,-0.05171775818357838,0.9790883547417428,-0.11485284685595061,right,0.0006308555603027344,-0.39347172606360326,-0.4226671939104795,-9.047393474698065,-0.19640754587520515,0.015109607018530369,0.0010411925613880157,3.7598414860799907,-0.0013174116611480713
1745972970641923000,13.223923095703125,-0.04668307415709448,-0.011594769544899464,-0.011635592495296134,0.0023718723095953465,-0.05171775818357838,0.9790883547417428,-0.11485284685595061,right,-0.0010213255882263184,-0.39347172606360326,-0.4226671939104795,-9.047393474698065,-0.19640754587520515,0.0010639429092407227,-0.00044537708163261414,3.7598414860799907,0.0002567768096923828
1745972970681923000,13.263923095703126,-0.04668307415709448,-0.0037804637104272842,-0.011635592495296134,0.0000607615802437067,-0.05171775818357838,0.9790883547417428,-0.11485284685595061,right,0.0005412697792053223,-0.39347172606360326,-0.4226671939104795,-9.047393474698065,-0.19640754587520515,0.0024125133641064167,0.0015292689204216003,3.7598414860799907,0.0002549886703491211
1745972970721923000,13.303923095703125,-0.04668307415709448,0.004033842124044895,-0.011635592495296134,-0.002250349149107933,-0.05171775818357838,0.9790883547417428,-0.11485284685595061,right,0.0021039247512817383,-0.39347172606360326,-0.4226671939104795,-9.047393474698065,-0.19640754587520515,0.003761084284633398,0.0035039186477661133,3.7598414860799907,0.0002531707286834717
1745972970761923000,13.343923095703126,-0.0467026553505523,-0.000132822897285223,-0.011657749010457491,0.0027000373229384422,-0.05179039328708072,0.9791637397485108,-0.11497685514028282,right,-0.0004910826683044434,-0.3926587958282794,-0.42298692738413807,-9.050435326611995,-0.19601100203842559,0.013920366764068604,0.0037078261375427246,3.752477387052774,0.00046539306640625
1745972970801923300,13.38392333984375,-0.0467026553505523,-0.004672078415751457,-0.011657749010457491,-0.0046274857595562935,-0.05179039328708072,0.9791637397485108,-0.11497685514028282,right,-0.001716911792755127,-0.3926587958282794,-0.42298692738413807,-9.050435326611995,-0.19601100203842559,0.007457210216671228,0.0024051181972026825,3.752477387052774,0.0012496709823608398
1745972970841923300,13.42392333984375,-0.0467026553505523,-0.00584136787801981,-0.011657749010457491,-0.007287614978849888,-0.05179039328708072,0.9791637397485108,-0.11497685514028282,right,-0.0002853274345397949,-0.3926587958282794,-0.42298692738413807,-9.050435326611995,-0.19601100203842559,-0.0001603495329618454,0.0019330792129039764,3.752477387052774,-0.00013393163681030273
1745972970881923000,13.463923095703125,-0.04732738651946619,0.0017464025877416134,-0.01196124865540649,-0.006567986682057381,-0.0518166987994109,0.9791989996072813,-0.11513996581488184,right,0.002178966999053955,-0.392212077078953,-0.42872017380651084,-9.051842855322361,-0.1958095537233631,0.002113491529598832,0.003788445144891739,3.7484295729666948,-0.0017058849334716797
1745972970921923000,13.503923095703126,-0.04732738651946619,0.0038677544798702,-0.01196124865540649,-0.0019335262477397919,-0.0518166987994109,0.9791989996072813,-0.11513996581488184,right,-0.0003033280372619629,-0.392212077078953,-0.42872017380651084,-9.051842855322361,-0.1958095537233631,0.006007721647620201,0.0022930875420570374,3.7484295729666948,-0.0005953609943389893
1745972970961923000,13.543923095703125,-0.04732738651946619,0.003826860571280122,-0.01196124865540649,-0.002447170903906226,-0.0518166987994109,0.9791989996072813,-0.11513996581488184,right,0.0002824068069458008,-0.392212077078953,-0.42872017380651084,-9.051842855322361,-0.1958095537233631,0.005034707952290773,0.0018110275268554688,3.7484295729666948,-0.0009315907955169678
1745972971001923000,13.583923095703126,-0.04732738651946619,0.0037859664298594,-0.01196124865540649,-0.0029608155600726604,-0.0518166987994109,0.9791989996072813,-0.11513996581488184,right,0.0008681416511535645,-0.392212077078953,-0.42872017380651084,-9.051842855322361,-0.1958095537233631,0.004061694256961346,0.0013289675116539001,3.7484295729666948,-0.0012678205966949463
1745972971041923000,13.623923095703125,-0.04753223387527253,0.007643121760338545,-0.012137868434432502,-0.0033244157675653696,-0.05150741750898423,0.9792662150126028,-0.11453000594444901,right,-0.0017751455307006836,-0.39166522391025693,-0.4306717462657019,-9.053801003652811,-0.19554358284300152,-0.00023859646171331406,-0.001391679048538208,3.7434734118640423,0.001383960247039795
1745972971081923300,13.66392333984375,-0.04776726239679948,0.01115577295422554,-0.012314491016261538,-0.020696749910712242,-0.0511627985920672,0.9792738787921133,-0.11387591520277496,right,-0.004603981971740723,-0.391744901996139,-0.4327854139514267,-9.053401775202154,-0.19558460974793482,-0.012692737393081188,-0.002311527729034424,3.7441955886587497,0.004145920276641846
1745972971121923300,13.70392333984375,-0.04874118161758838,0.006225988734513521,-0.012809389287587522,-0.020976323634386063,-0.05087721215324808,0.9792198047176458,-0.11350834092225015,right,0.00490182638168335,-0.39233858368655994,-0.4414940959880128,-9.050753891041875,-0.1958976733084523,-0.014551768079400063,0.0025588087737560272,3.749576112653315,0.00196799635887146
1745972971161923000,13.743923095703124,-0.04874118161758838,0.0032454540487378836,-0.012809389287587522,0.016365818679332733,-0.05087721215324808,0.9792198047176458,-0.11350834092225015,right,0.010032951831817627,-0.39233858368655994,-0.4414940959880128,-9.050753891041875,-0.1958976733084523,0.006073543801903725,0.007053397595882416,3.749576112653315,-0.0028811097145080566
1745972971201923000,13.783923095703125,-0.04826420689146106,0.00782924797385931,-0.012623491825078038,0.013967609032988548,-0.05074422113882541,0.9792661442746559,-0.11312897153509904,right,0.0009634494781494141,-0.3919900618250216,-0.4372400918053463,-9.052268387258053,-0.19571258949559203,0.015296601690351963,0.004538685083389282,3.7464176486223932,-0.005301535129547119
1745972971241923000,13.823923095703124,-0.04826420689146106,0.004731773864477873,-0.012623491825078038,-0.011767270043492317,-0.05074422113882541,0.9792661442746559,-0.11312897153509904,right,-0.0054732561111450195,-0.3919900618250216,-0.4372400918053463,-9.052268387258053,-0.19571258949559203,-0.004016348160803318,0.0029416829347610474,3.7464176486223932,-0.0018295049667358398
