time,seconds_elapsed,roll,rotationRateZ,quaternionY,rotationRateY,quaternionZ,quaternionW,yaw,devicelocation,accelerationZ,pitch,gravityX,gravityZ,quaternionX,rotationRateX,accelerationX,gravityY,accelerationY
1745973029229315800,0.23131591796875,-0.1849563931497078,-0.06499141454696655,-0.0849845884057606,0.14202362298965454,-2.642678229248196e-17,0.9698021117398982,-0.04336450119487852,right,0.004326820373535156,-0.4593979622708779,-1.6164936784930526,-8.63997470332384,-0.2286077560387286,-0.24591943621635437,0.08117806166410446,4.348353029924631,0.005766510963439941
1745973029269315800,0.27131591796875,-0.1390819589048389,-0.2602454423904419,-0.0644734430157672,0.27718478441238403,0.0032249106355634583,0.9703212285572748,-0.02668538293550559,right,-0.0053154826164245605,-0.4697589709644795,-1.2122669080931692,-8.659929696115851,-0.2330442346755532,-0.22064433991909027,0.03638552874326706,4.439190069669485,0.010498046875
1745973029309315600,0.311315673828125,-0.1078016630138973,-0.3681824803352356,-0.04907516699323239,0.22046780586242676,-0.0008723540808925333,0.970582381821529,-0.027925417093720546,right,-0.029328107833862305,-0.47515086687705105,-0.938243922990933,-8.669684197410941,-0.235713236302065,-0.129594624042511,0.008610062301158905,4.4862741846665735,0.00698050856590271
1745973029349315800,0.35131591796875,-0.09125484207438368,-0.2770381569862366,-0.0394997435674815,0.08309910446405411,-0.008565996177213653,0.9700878734327967,-0.04011272924703671,right,-0.03455555438995361,-0.48220610110514234,-0.7917622259788215,-8.652285903364419,-0.2393657176556072,-0.013124726712703705,-0.026209451258182526,4.547685807962715,-0.047488629817962646
1745973029389315800,0.39131591796875,-0.09504545152457111,-0.08356580138206482,-0.04049104910465469,0.25035151839256287,-0.012151240889758311,0.9707165783506813,-0.048102580779961226,right,-0.030727088451385498,-0.47588272804906584,-0.8272664508845656,-8.677676365208626,-0.23647855396078127,-0.199876606464386,-0.014153167605400085,4.492654825614393,-0.06775417923927307
1745973029429315800,0.43131591796875,-0.06230637473197094,-1.0384137630462646,-0.021003059705098494,0.45257872343063354,-0.026442298532274013,0.9659993209720384,-0.07120610971751154,right,-0.10163038969039917,-0.5168204399508306,-0.5308713288459926,-8.509305419406294,-0.25632993485052924,-0.648424506187439,0.06264065206050873,4.845646133491397,-0.03946155309677124
1745973029469315800,0.47131591796875,-0.08033543500170666,-0.2888762354850769,-0.024917909302637806,0.2533988356590271,-0.04109865078062455,0.9642518362425898,-0.1067547941803495,right,-0.01762443780899048,-0.5241825488128097,-0.6813101659860461,-8.462562372931837,-0.26059253569629787,-0.5028843879699707,-0.023324884474277496,4.908282330146432,-0.13239920139312744
1745973029509315800,0.51131591796875,-0.06909510999205223,1.046515703201294,-0.019829163007455,-0.5471090078353882,-0.04003857213663363,0.9631912030567258,-0.1019992707298636,right,-0.041834354400634766,-0.5340852143770924,-0.5827628075921908,-8.420782501822709,-0.26507806859383637,0.5524580478668213,-0.009633000940084457,4.992113290521502,-0.03544974327087402
1745973029549315600,0.551315673828125,-0.037199680992115576,0.7802467942237854,-0.016765713365988512,-0.42310887575149536,0.0006352431838292388,0.9643134455124275,-0.008873817950549524,right,-0.014339804649353027,-0.534748666314819,-0.3138041932074353,-8.431772097870708,-0.2642312572765585,-0.11498492956161499,-0.05925392359495163,4.99771242570281,0.12034308910369873
1745973029589315800,0.59131591796875,-0.04034828554724763,0.2626489996910095,-0.020140950010297306,0.03924906253814697,0.00790657993447869,0.9635581841692945,0.005242864332973191,right,0.02312636375427246,-0.5399938497904517,-0.3392888361411169,-8.404434009090066,-0.2666223134910174,-0.2530818283557892,0.015605233609676361,5.041900526997447,0.030972957611083984
1745973029629315800,0.63131591796875,-0.02121325444999543,0.8666952848434448,-0.016355368867231605,0.5568627119064331,0.023950903924211113,0.9587140046357738,0.04369012602866437,right,0.0626865029335022,-0.5742472730644002,-0.17465015393598005,-8.231824695065617,-0.28288910961231645,-1.1505242586135864,0.018741419538855553,5.327001663213968,-0.012612700462341309
1745973029669315800,0.67131591796875,0.02863958434958537,-0.05017915368080139,0.0036260858942260494,1.0441181659698486,0.02682862568974395,0.9517908993066999,0.06554269600844911,right,0.00541532039642334,-0.6205047368948994,0.22847077411385253,-7.975272192463279,-0.3055505401548109,-0.7660743594169617,-0.026869306340813637,5.702036752855777,-0.039229750633239746
1745973029709315800,0.71131591796875,0.051403527785986884,-0.17618517577648163,0.014855912455438764,0.9505162239074707,0.02079010404733692,0.948990612556625,0.06079851863855381,right,-0.015088677406311035,-0.6383311346302316,0.4046570150433108,-7.865232439598441,-0.31426745668578876,-0.32711195945739746,-0.001491997390985489,5.843351933950186,-0.06041461229324341
1745973029749315800,0.75131591796875,0.08580616101450157,0.4992537498474121,0.030101574018974862,0.49115410447120667,0.018651011151892796,0.9485822583498086,0.06767614126853036,right,-0.0681304931640625,-0.6380352715781402,0.6750969905596226,-7.8483818425625556,-0.31454374870625473,0.10628360509872437,-0.0165361687541008,5.841021445176005,-0.04177051782608032
1745973029789315600,0.791315673828125,0.1297605113867384,0.8536683320999146,0.04811440476596306,0.7863671779632568,0.024511826579592253,0.9523300714939845,0.09207871059007897,right,0.08562511205673218,-0.6059227867171137,1.043045702137053,-7.993071468526124,-0.3002528162295944,1.0819002389907837,0.020696960389614105,5.585092042908072,0.0856817364692688
1745973029829315800,0.83131591796875,0.16477084470306097,0.9922486543655396,0.06256233572006313,0.40078139305114746,0.03929907940860547,0.9607900207544993,0.12688865938123564,right,0.0205957293510437,-0.5335937471417709,1.3849354780241847,-8.329018410360813,-0.26725301772338506,2.160125732421875,-0.021014511585235596,4.987964354148507,0.009941637516021729
1745973029869315800,0.87131591796875,0.19486748776425777,0.33613601326942444,0.0776167558741419,0.547256588935852,0.056514754410821835,0.97046853031938,0.15945819374418407,right,-0.017472445964813232,-0.4342737030352002,1.72265936640352,-8.727977980947493,-0.22129755045651553,1.642905592918396,-0.024231791496276855,4.126164276956022,0.023857682943344116
1745973029909315800,0.91131591796875,0.2280593695329515,-0.25649604201316833,0.09628016954909313,1.2139376401901245,0.04974586888956725,0.9722531305019945,0.14919966044469202,right,-0.06105154752731323,-0.4044849884093224,2.038247995342314,-8.781870899176598,-0.20731455033934895,1.1976951360702515,-0.034158021211624146,3.8593618907570835,-0.0013523399829864502
1745973029949315800,0.95131591796875,0.25326138513093877,0.011484503746032715,0.11106364615888656,0.22640937566757202,0.040470879748565565,0.9730709980761013,0.13283462230379267,right,-0.04265087842941284,-0.38561568002427604,2.2767418402932584,-8.796662225595115,-0.19788862503897714,0.39088934659957886,-0.015024885535240173,3.6885724856361746,-0.04871726036071777
1745973029989315800,0.99131591796875,0.26425572752272536,0.1730668693780899,0.11696950012616063,0.1793082058429718,0.04033161545861313,0.9735742062642135,0.1329367436057242,right,-0.02126145362854004,-0.37290228014090143,2.385372018621117,-8.81565626440048,-0.19194988718704817,-0.021164536476135254,-0.012717649340629578,3.5727570719793436,-0.012237608432769775
1745973030029315600,1.031315673828125,0.2847161655522261,0.3218457102775574,0.12302937687015372,0.7668058276176453,0.04862221048070406,0.9692972864554279,0.15840299285294304,right,0.11493569612503052,-0.4004749029143827,2.536590607962012,-8.667144449800253,-0.20727368118075484,-0.8413005471229553,-0.09153968095779419,3.823178816741705,0.08236038684844971
1745973030069315600,1.071315673828125,0.3020437722962529,-2.269599676132202,0.13515252297492455,0.8405706286430359,0.025483889732865805,0.9676715530536021,0.11655432395860826,right,-0.002086639404296875,-0.4139960367793022,2.670760885737836,-8.571752230969071,-0.21141440342518938,-0.14111638069152832,0.07050448656082153,3.9449312192320822,0.10348814725875854
1745973030109315800,1.11131591796875,0.2514317614116091,-1.019636869430542,0.12230445115029773,-1.0993149280548096,-0.026491688851820537,0.9687436052130006,0.0011738464842537143,right,-0.10955274105072021,-0.4350577422833692,2.2125271422751247,-8.613494108155368,-0.21418601384711952,0.3604671359062195,-0.00014044344425201416,4.133138207621872,-0.23681288957595825
1745973030149315800,1.15131591796875,0.1865734815047384,-0.41555893421173096,0.09613726346669241,-0.4085525870323181,-0.043318471083650875,0.9724795460548953,-0.04865330839822295,right,0.014402627944946289,-0.42510462839472574,1.6571593047499655,-8.778773517683147,-0.2077612136474989,0.22483111917972565,0.038836315274238586,4.044420644249022,-0.0042386651039123535
1745973030189315800,1.19131591796875,0.1711516933959738,-0.3811609745025635,0.08990628207025796,-0.36383557319641113,-0.04763549541286763,0.9731887272423637,-0.06102633920258093,right,-0.01714479923248291,-0.4225241377570942,1.5233556683294474,-8.813539710637926,-0.20627985204362606,0.1317705512046814,0.02610623836517334,4.02135365691632,-0.003917902708053589
1745973030229315800,1.23131591796875,0.1481945766825726,-0.2814512848854065,0.08047525208682806,-0.35344356298446655,-0.05355533704924434,0.9740139517081675,-0.07822778839682538,right,-0.0001786351203918457,-0.4198458189681198,1.3222240241758525,-8.856806605434418,-0.20482248124860328,0.12664489448070526,0.029641643166542053,3.9973838755249975,-0.02971416711807251
1745973030269315800,1.27131591796875,0.13347067150750985,-0.13954706490039825,0.0744666114705831,-0.07256786525249481,-0.057950995356507086,0.9750980736812953,-0.09082309743473066,right,0.03337883949279785,-0.41155381191000145,1.1960486176114529,-8.907860500845313,-0.2006993252956734,0.2016458809375763,0.021282166242599487,3.9229926514074203,-0.054964303970336914
1745973030309315600,1.311315673828125,0.13753165100362433,-0.04674496501684189,0.07634159525068143,-0.0730556845664978,-0.05831559613793677,0.9759713277726646,-0.0913425854483842,right,0.021535515785217285,-0.4013517391539062,1.2376361079536378,-8.942110560971498,-0.19557911089603378,0.241940438747406,0.00044707953929901123,3.8310958734765648,-0.03960365056991577
1745973030349315800,1.35131591796875,0.1422407343214667,-0.014503497630357742,0.0784596143432784,0.03943344205617905,-0.058387473829752914,0.9768897409988142,-0.09123173154798025,right,0.01613551378250122,-0.39032676801439536,1.285641137187928,-8.977450754421948,-0.19005650923257333,0.24402524530887604,-0.03172430396080017,3.7313387374341485,-0.042400211095809937
1745973030389315800,1.39131591796875,0.1414755977760647,0.01618819870054722,0.0779397509138214,-0.15370798110961914,-0.05819317191467906,0.9781099440964981,-0.09175597123884,right,-0.02328115701675415,-0.377857626512265,1.2852327025175094,-9.02379457244575,-0.18395628873133335,0.13411058485507965,-0.0387452095746994,3.617968378841877,-0.03668871521949768
1745973030429315800,1.43131591796875,0.1362795639218621,0.08260060846805573,0.07535309584188851,-0.142104372382164,-0.05763860797120459,0.9785837062532796,-0.09177248595258539,right,-0.024154484272003174,-0.3749557477761469,1.2397487161934375,-9.040714143064617,-0.1826848609422972,0.04532031714916229,-0.0363241508603096,3.591502981242537,-0.05034342408180237
1745973030469315800,1.47131591796875,0.12376215117186988,0.15030625462532043,0.06883169254037631,-0.18946388363838196,-0.05472050449770321,0.9796667414102908,-0.08845829874123029,right,0.008673250675201416,-0.36920232085573157,1.1290204696077852,-9.075879564470052,-0.18033612559255394,-0.029657281935214996,-0.002875000238418579,3.53894218840003,-0.023740291595458984
1745973030509315800,1.51131591796875,0.11560838462630268,0.1227927953004837,0.0641357316439298,0.011941984295845032,-0.050584608580649795,0.9807764978086524,-0.08188392354456911,right,0.05216294527053833,-0.36195727681772827,1.0579109705746172,-9.11001330474019,-0.1772150971741629,0.044676825404167175,0.017339318990707397,3.4725878480046983,-0.014013886451721191
1745973030549315600,1.551315673828125,0.11886338431972833,0.12423054128885269,0.0653541067075243,0.048957906663417816,-0.04907063166186119,0.9812596880426357,-0.07850127360603837,right,0.013325214385986328,-0.3563688080515217,1.0898426707558333,-9.125648680767416,-0.17449996511986182,0.15277910232543945,-0.016364730894565582,3.421280562354624,-0.016835719347000122
1745973030589315800,1.59131591796875,0.1233890690924802,0.10682985186576843,0.06698901867061031,-0.030752159655094147,-0.04648552882638632,0.9818875450621206,-0.07282797864876801,right,-0.035832226276397705,-0.3491260642212724,1.1341512566249816,-9.144974728006124,-0.17102197036831304,0.11889535933732986,-0.03436680883169174,3.354627239012718,0.02108442783355713
1745973030629315800,1.63131591796875,0.11759417703250957,-0.005897350609302521,0.06397175244846044,-0.21564435958862305,-0.045018149249305986,0.982151933614348,-0.07086713283988598,right,-0.054570019245147705,-0.34878623837530487,1.0812721185483039,-9.152524997255206,-0.1710517432717353,-0.151561439037323,-0.025250442326068878,3.3514953707277773,0.05336633324623108
1745973030669315800,1.67131591796875,0.10585708670612513,-0.019757365807890892,0.058400397763466554,-0.1437196135520935,-0.04466307928865279,0.9817003256769545,-0.07177411268619002,right,0.016146957874298096,-0.3577026201729916,0.9705799661893397,-9.134505356439947,-0.17566792168014023,-0.21135391294956207,0.007600359618663788,3.4335359405547377,0.02440151572227478
1745973030709315800,1.71131591796875,0.10384577328468948,-0.01967100240290165,0.057535655638028795,0.06664358079433441,-0.044888704589091825,0.9812455355747606,-0.0723424869655455,right,0.030334889888763428,-0.3632378719400865,0.9502209957063198,-9.117395816206932,-0.17841471918315488,-0.1367596685886383,0.013717040419578552,3.4843297237247226,0.022254198789596558
1745973030749315800,1.75131591796875,0.10817929518516557,-0.04157641530036926,0.05987909176930481,0.12296812981367111,-0.04625519023729518,0.9806799933916126,-0.07413503667135923,right,0.00623166561126709,-0.3675770606824321,0.9880806246317922,-9.09807619870901,-0.18039317869198196,0.05691596865653992,-0.01518923044204712,3.5240731205701827,0.012461066246032715
1745973030789315600,1.791315673828125,0.11076291664188839,-0.045483462512493134,0.06124961080423463,0.05003003031015396,-0.04709386118615252,0.9806495604285387,-0.0754112125283637,right,-0.011682629585266113,-0.3667340387345354,1.0119113628786056,-9.098442109411954,-0.17988056931585625,0.0927625223994255,-0.012102439999580383,3.51635684710443,0.014576762914657593
1745973030829315800,1.83131591796875,0.1100438663222111,-0.03917960450053215,0.06112400057159405,-0.0021959803998470306,-0.04832508198815457,0.9807071222959354,-0.07810618308272645,right,-0.009430289268493652,-0.3656474243412092,1.0057878384970127,-9.102959879097343,-0.17928204119943897,0.06488193571567535,-0.004005230963230133,3.50640740775913,0.00017786026000976562
1745973030869315800,1.87131591796875,0.10854196683838681,-0.006121681071817875,0.060532597771531256,-0.003686182200908661,-0.04900748423741569,0.9807494471856697,-0.07979168756907781,right,-0.0011519193649291992,-0.36523623648674564,0.9922711351241916,-9.10589300993979,-0.17906553961144173,-0.001127469353377819,0.007475107908248901,3.5026410409629345,-0.010774701833724976
1745973030909315800,1.91131591796875,0.10834357197902757,-0.031652480363845825,0.060476541481346686,0.01916705071926117,-0.049164060823695836,0.9806660006235386,-0.08010545189499389,right,0.0016859769821166992,-0.36612824152813217,0.9901263051152229,-9.102980337363482,-0.1794986464994801,-0.06381862610578537,0.015273429453372955,3.510810318893194,-0.0014092326164245605
1745973030949315800,1.95131591796875,0.10853354242900179,-0.052001386880874634,0.06079242241666116,0.0025672661140561104,-0.05027466326451285,0.9804185329259667,-0.08224016072470951,right,0.014350712299346924,-0.3681753194371966,0.9910749841421842,-9.095628221035003,-0.18043365272971193,-0.015639279037714005,-0.005276218056678772,3.5295474603280423,-0.013426810503005981
1745973030989315800,1.99131591796875,0.1081595735660176,-0.03797091543674469,0.060706954952388294,0.009500473737716675,-0.050841094481304965,0.9804998438767796,-0.08351584252040889,right,0.01763451099395752,-0.3670681647925804,0.9880947262223809,-9.099877695173024,-0.17986113803175816,0.04959038272500038,-0.0006816089153289795,3.519415357892215,-0.01189875602722168
1745973031029315600,2.031315673828125,0.10865550010243885,-0.050142332911491394,0.06107964653481602,0.0295401643961668,-0.051743906365652965,0.9806530887231698,-0.08537585662639614,right,-0.001157522201538086,-0.3647158337600022,0.9935024304848163,-9.107591046029329,-0.1786375011909476,0.049695853143930435,-0.0012456104159355164,3.4978739726915955,0.0013781487941741943
1745973031069315800,2.07131591796875,0.10975145811140094,-0.014547375962138176,0.06177472669944009,0.03563057258725166,-0.05286091580921521,0.9807685494902483,-0.08756034582179188,right,-0.021770775318145752,-0.3624583149413588,1.0043457499299198,-9.114322400110959,-0.17743378831753737,0.033035941421985626,0.0030059814453125,3.4771824823185797,-0.00361710786819458
1745973031109315800,2.11131591796875,0.1103875132561771,0.011252326890826225,0.06210535249606158,0.012596657499670982,-0.053017990710707424,0.9807397334273517,-0.08776364542779634,right,-0.0210304856300354,-0.3624997102116927,1.0101268906146288,-9.11353914077878,-0.17743096726848093,-0.011129971593618393,0.0060032084584236145,3.4775621292859316,-0.007784128189086914
1745973031149315800,2.15131591796875,0.11124249597262507,0.032568152993917465,0.06237077626554762,0.013490409590303898,-0.052283573928090195,0.9808111502129828,-0.0861403725364115,right,-0.0011112689971923828,-0.36189103902678266,1.01815325294286,-9.114773651009797,-0.17716024410437214,0.02243136428296566,0.010951690375804901,3.4719802375003694,-0.00719529390335083
1745973031189315800,2.19131591796875,0.11259806425483133,0.0381019189953804,0.06284608966566886,0.011560755781829357,-0.051562555538220034,0.9811067259168124,-0.08458529805902247,right,0.0030710697174072266,-0.35860372120272865,1.0317848879322409,-9.124677205386757,-0.175559956085853,0.05569450557231903,0.006744511425495148,3.4418121859908104,-0.006069839000701904
1745973031229315800,2.23131591796875,0.11358656934611487,0.019676798954606056,0.06318023548889876,0.015323806554079056,-0.05099277650518167,0.9813749966759785,-0.08339473897974928,right,0.004112541675567627,-0.3556084447441307,1.0419679899029433,-9.133854783576727,-0.17410130523015477,0.051987603306770325,0.005672909319400787,3.4142914341196415,-0.0023782551288604736
1745973031269315800,2.27131591796875,0.11479220828770091,-0.008822474628686905,0.06374013345615129,0.03966997563838959,-0.05103029562085448,0.9814969168831434,-0.08334651188130952,right,0.0021768808364868164,-0.35382491142703804,1.0536751596357672,-9.138626820284127,-0.1731961386114375,0.023257756605744362,0.001968890428543091,3.397890042155981,-0.0015200674533843994
1745973031309315600,2.311315673828125,0.11641910452593368,-0.02970975451171398,0.0646085851927541,0.04330998659133911,-0.0515807032687093,0.9814403246953431,-0.08419097136832522,right,-0.006221950054168701,-0.35362996335881214,1.0686182425498962,-9.137557729747892,-0.17303156814983475,-0.012651791796088219,-0.004527643322944641,3.3960964367374777,0.000628054141998291
1745973031349315800,2.35131591796875,0.1171359027717433,-0.03273352235555649,0.06508937301189152,0.000719897449016571,-0.052299089784957405,0.9812799044862796,-0.08546903191563626,right,-0.014225900173187256,-0.3547981989130028,1.074703334617242,-9.132842976185678,-0.17354523851721135,-0.03268369659781456,-0.009293444454669952,3.406841702635586,-0.00005570054054260254
1745973031389315800,2.39131591796875,0.11554165829933792,-0.02381204441189766,0.06443336425540973,-0.045947425067424774,-0.05277448971677744,0.9811671950060841,-0.08664520911122617,right,-0.009833931922912598,-0.35629020505144804,1.0595548653241247,-9.129485482451319,-0.17428169109917876,-0.03800668567419052,-0.0031041279435157776,3.420558385559916,-0.00411185622215271
1745973031429315800,2.43131591796875,0.112650136991785,-0.02568860538303852,0.06310927708277672,-0.04746032878756523,-0.05296946248623889,0.9811264345610455,-0.08749661043058395,right,0.0016937851905822754,-0.35752034740684907,1.0326785488363355,-9.128322868412733,-0.17493500969704112,-0.03703652694821358,0.0067288801074028015,3.4318615776017305,0.001419663429260254
1745973031469315800,2.47131591796875,0.11111670534662714,-0.04674965888261795,0.06252436153612999,-0.03726452961564064,-0.05365304900833289,0.9809803577050263,-0.08908325813338713,right,0.0004201531410217285,-0.35920726472532083,1.0180362754996866,-9.124129508376122,-0.17575426269328195,-0.052386701107025146,0.002845197916030884,3.4473537457659837,0.002332538366317749
1745973031509315800,2.51131591796875,0.10957946632292953,-0.06781071424484253,0.061939358700052925,-0.02706873044371605,-0.05433653241679161,0.9808328293721825,-0.09067362817711667,right,-0.0008572936058044434,-0.36089192297511274,1.0033725940488278,-9.11989815441668,-0.1765732602975703,-0.06773687154054642,-0.0010362938046455383,3.4628152265310286,0.0032485127449035645
1745973031549315600,2.551315673828125,0.10762154501347024,-0.10959967970848083,0.06131290881830394,-0.027789490297436714,-0.055783727086906994,0.9805356174714843,-0.09384272865108664,right,0.0006181597709655762,-0.36385872102454214,0.9844067584246396,-9.111590929320455,-0.17798560045586154,-0.07302223145961761,-0.0032389312982559204,3.4900200443208216,-0.0009338259696960449
1745973031589315800,2.59131591796875,0.10530953868912828,-0.13510335981845856,0.0606656030951618,-0.02729184180498123,-0.05802428548553325,0.9802186370448932,-0.09871439899863195,right,-0.0019530653953552246,-0.3665685705952858,0.9623404725670814,-9.104403648164867,-0.17923243039523012,-0.05199266970157623,-0.003872133791446686,3.5148420586273073,-0.006880015134811401
1745973031629315800,2.63131591796875,0.10175887451531757,-0.09938940405845642,0.05944499778198993,-0.026161331683397293,-0.060383880103049514,0.9800045636045404,-0.1041061570975341,right,0.0027452707290649414,-0.36831243732094415,0.9293836671218275,-9.101651719108224,-0.18003105844060865,-0.022275390103459358,-0.0006111562252044678,3.53080184430331,-0.009422153234481812
1745973031669315800,2.67131591796875,0.09941213068063856,-0.06497521698474884,0.05861950326909098,-0.041600726544857025,-0.06186464326873324,0.9799001771917669,-0.10752967019374171,right,-0.00628894567489624,-0.36905662347861506,0.907760887248069,-9.101190531337261,-0.18036673243197054,-0.026538968086242676,0.0002479478716850281,3.5376094784915444,0.00030544400215148926
1745973031709315800,2.71131591796875,0.09715209168261318,-0.036907896399497986,0.05770619235053365,-0.05586470663547516,-0.06259934022089249,0.979803280015713,-0.10940210801094852,right,-0.005430340766906738,-0.3701791316728409,0.8868038047414273,-9.099261024579405,-0.18093310341747562,-0.04188152402639389,0.0008907094597816467,3.547873975135386,0.005620479583740234
1745973031749315800,2.75131591796875,0.09429071742835511,-0.028680894523859024,0.05644860941504927,-0.07021129131317139,-0.0629044465743907,0.9796587279986874,-0.11047740667876829,right,-0.002354443073272705,-0.3722421471336519,0.8600728150084614,-9.094455085602402,-0.18200378819508503,-0.05818985775113106,0.0006667822599411011,3.5667274364262815,0.004971712827682495
1745973031789315600,2.791315673828125,0.09084995874567765,-0.03311886265873909,0.054889700700233766,-0.0732378289103508,-0.0630260139070976,0.9795134980369011,-0.11128462373789795,right,-0.0008915066719055176,-0.3745406024843686,0.828030055668205,-9.089172761285305,-0.18321649482170332,-0.06445005536079407,0.0002951100468635559,3.587714402614534,0.009423673152923584
1745973031829315800,2.83131591796875,0.08734552720987815,-0.04876814782619476,0.05335624383502142,-0.08465757966041565,-0.06339188030084196,0.9793164989293288,-0.1125997895981736,right,0.0003426074981689453,-0.3771912868342786,0.7953402305960655,-9.082512718874215,-0.18459096335741484,-0.06089479476213455,-0.002125158905982971,3.611894027364254,0.0051965415477752686
1745973031869315800,2.87131591796875,0.08393451061755362,-0.04923218488693237,0.05190837302167372,-0.048160821199417114,-0.06402261705087306,0.9791497489722928,-0.11446651309211736,right,0.007164895534515381,-0.3792662579983893,0.763725122083351,-9.077685152587295,-0.18566738641573124,-0.028273779898881912,-0.0010130107402801514,3.6308044795393943,-0.0032529830932617188
1745973031909315800,2.91131591796875,0.08197493850600146,-0.02028791792690754,0.05111654360160661,-0.02580605261027813,-0.064598830734766,0.9790475790670463,-0.11598253110878093,right,0.004920899868011475,-0.380356106313211,0.7456108617871999,-9.075214963081478,-0.1862253781776344,-0.015423767268657684,-0.003987036645412445,3.640730538009107,-0.006439268589019775
1745973031949315800,2.95131591796875,0.0811462754976818,0.01038886234164238,0.050740653972231396,-0.012616920284926891,-0.06460026800384487,0.9789995910637121,-0.11612321151016951,right,0.0069425106048583984,-0.38103278715218225,0.7378904236029833,-9.073372550085187,-0.18658009051783447,-0.021058935672044754,-0.0029867514967918396,3.6468913987264036,-0.0052262842655181885
1745973031989315800,2.99131591796875,0.0810622600836369,0.01839620992541313,0.05064563735702156,-0.005932503379881382,-0.06421141115193883,0.9789449059366027,-0.11531942764425548,right,0.004811704158782959,-0.38189608239262574,0.7368729171235114,-9.070292704248427,-0.1870261382236921,-0.02952926978468895,-0.0015268921852111816,3.6547488342285153,0.000009268522262573242
1745973032029315600,3.031315673828125,0.08141292928864705,0.008629724383354187,0.050762286391789764,0.007118041627109051,-0.06389465394188203,0.9789067115972088,-0.11458900770374347,right,0.003367781639099121,-0.38244529596772026,0.7398902191180735,-9.06803177357912,-0.18730249588436737,-0.007044879719614983,-0.0003019273281097412,3.659746204124391,0.003622382879257202
1745973032069315800,3.07131591796875,0.08166746935872728,-0.01903623528778553,0.05090682507834174,0.003824597457423806,-0.06403194615672383,0.9789006248729345,-0.11482324161314494,right,-0.0023783445358276367,-0.38236383989897055,0.7422226806536316,-9.068140494650601,-0.18724848575245204,0.010731212794780731,-0.0018794387578964233,3.6590050303682684,0.004812836647033691
1745973032109315800,3.11131591796875,0.08087573293457839,-0.038831308484077454,0.050635503027668435,-0.020591849461197853,-0.06463069821649899,0.9789307649794937,-0.11621471522563587,right,-0.0038300156593322754,-0.3817927742792361,0.7352115597825497,-9.070806498989462,-0.18695885132115936,0.02775762975215912,-0.0007873103022575378,3.6538086307689546,0.0005617141723632812
1745973032149315800,3.15131591796875,0.07950695876837593,-0.026892710477113724,0.050099456186113805,-0.019564785063266754,-0.06528762649304064,0.978980480201416,-0.11783847231605969,right,-0.002050340175628662,-0.3810809701862711,0.7230013358984142,-9.074394294348359,-0.18661371167013527,0.024144699797034264,-0.001040823757648468,3.647330082404613,-0.0035645663738250732
1745973032189315800,3.19131591796875,0.07892664940343587,0.0018164385110139847,0.04985495694311633,-0.00034956634044647217,-0.06553261782210737,0.9790478136862358,-0.11847120152582397,right,-0.001766502857208252,-0.38031153982515736,0.7179563274685293,-9.077607411175967,-0.18623989076358,0.015456385910511017,-0.001337200403213501,3.6403245875567194,-0.004805713891983032
1745973032229315800,3.23131591796875,0.07971602558045665,0.040070630609989166,0.050139387632765244,0.03331252932548523,-0.06514702378965859,0.9791205076570535,-0.1175520568781763,right,0.003839552402496338,-0.3796572824081018,0.7253112202759832,-9.079410076683759,-0.1859164992068722,0.005382093600928783,-0.0007819756865501404,3.6343662636741993,-0.006406575441360474
1745973032269315800,3.27131591796875,0.08235727059287841,0.07200747728347778,0.051188433195142984,0.05319271236658096,-0.06418079630916983,0.9791945680274277,-0.11509643261778399,right,0.0014545321464538574,-0.37900996168753204,0.7494830270454287,-9.079805213481187,-0.18557611391495668,0.011000385507941246,-0.0008677467703819275,3.628469314590096,-0.008461475372314453
1745973032309315600,3.311315673828125,0.08498336507945402,0.06372199952602386,0.05218511816037918,0.030786197632551193,-0.06300150665213188,0.9793077171855478,-0.11222004113628044,right,-0.0015162825584411621,-0.378067573341106,0.7736147210001945,-9.081209235060214,-0.18510510699135907,0.013358576223254204,-0.0005244836211204529,3.6198821035087105,-0.0037972629070281982
1745973032349315800,3.35131591796875,0.08670553502848449,0.045337095856666565,0.052784744336555244,0.01984308660030365,-0.0619545198099526,0.9794134549878332,-0.10978228116475969,right,-4.76837158203125e-7,-0.3772789303554552,0.7894999070700257,-9.082704442054032,-0.18472874217413696,0.0022282078862190247,0.003236129879951477,3.6126930687874554,0.0018985569477081299
1745973032389315800,3.39131591796875,0.08827313407046926,0.022230027243494987,0.05341207493054471,0.03597281128168106,-0.06137877104178196,0.9794387208415005,-0.10831869916849667,right,0.0022579431533813477,-0.37704909184744,0.8038101719733327,-9.08228241724968,-0.18460660766959539,-0.0052294740453362465,0.005222335457801819,3.610597557812929,0.0033935606479644775
1745973032429315800,3.43131591796875,0.08986547840261389,-0.01389029435813427,0.05417164198903985,0.03200041130185127,-0.061405974308364523,0.9793919325836085,-0.1080698893879269,right,-0.0029447078704833984,-0.37717233189029675,0.8182313499052077,-9.080548140802978,-0.18462481551517973,-0.006770605221390724,0.0032375752925872803,3.6117213011458515,0.005295753479003906
1745973032469315800,3.47131591796875,0.09044094555927228,-0.037870969623327255,0.054560197272548266,0.014605892822146416,-0.062001059338933476,0.9793197373140605,-0.10916835755013644,right,-0.0016496777534484863,-0.37741015598184424,0.8233791611224412,-9.07921952254772,-0.18469379191207216,0.0013486472889780998,0.001612149178981781,3.613889585095644,0.0026122629642486572
1745973032509315800,3.51131591796875,0.0904113600289653,-0.03163152188062668,0.054688078525744394,0.013700033538043499,-0.06278048183056645,0.9792950848080371,-0.1107747530650456,right,-0.0018944740295410156,-0.3771503155608217,0.8231953289881349,-9.080179307490587,-0.1845234820093793,0.019292186945676804,0.0008309036493301392,3.611520517876744,-0.00026538968086242676
1745973032549315600,3.551315673828125,0.09047969928141446,-0.021316004917025566,0.05483334101112868,0.006349243223667145,-0.06341850871034574,0.9792862193131738,-0.11207739156149371,right,-0.003665745258331299,-0.37679039004292564,0.8239332148086279,-9.081416740331052,-0.18430924901544918,0.010628454387187958,-0.0002663135528564453,3.608238719727099,0.00015488266944885254
1745973032589315800,3.59131591796875,0.09045307799411237,-0.005648382008075714,0.05488106175972968,0.004983555991202593,-0.06375781186061406,0.9792812508070642,-0.11278144618247965,right,-0.0006620287895202637,-0.3766145523843867,0.8237487981524318,-9.082070820325612,-0.1842045945529619,0.0036542904563248158,0.0008602365851402283,3.6066353761836885,-0.0005182623863220215
1745973032629315800,3.63131591796875,0.09045307799411237,0.006587420590221882,0.05488106175972968,0.00019623246043920517,-0.06375781186061406,0.9792812508070642,-0.11278144618247965,right,-0.0009822845458984375,-0.3766145523843867,0.8237487981524318,-9.082070820325612,-0.1842045945529619,0.012471720576286316,0.0013672783970832825,3.6066353761836885,0.0002435743808746338
1745973032669315800,3.67131591796875,0.0902817503982993,-0.009099978022277355,0.05477821375650432,-0.007369335275143385,-0.06371113670548703,0.979348597267982,-0.11274070297975046,right,0.0005475878715515137,-0.37596562850555826,0.8224035940885543,-9.084540425309537,-0.18389310983956436,0.003981403075158596,0.003682181239128113,3.6007167997896667,0.006545513868331909
1745973032709315800,3.71131591796875,0.08958130293852039,-0.03892113268375397,0.054533510150961736,-0.01268388144671917,-0.06416873423164814,0.9793323857969549,-0.11380627661363868,right,-0.0002104043960571289,-0.3759785012077321,0.8160359587527811,-9.085068248575926,-0.18389270538307478,-0.0012198099866509438,0.0006621181964874268,3.600834288689494,0.004500240087509155
1745973032749315800,3.75131591796875,0.08838055524679456,-0.053853027522563934,0.054138138260372975,-0.015139961615204811,-0.06509047064876142,0.9793022542097928,-0.1159160528905848,right,0.0018982887268066406,-0.37592121385501326,0.8051447085127234,-9.086246644705533,-0.18384610814268112,0.014430428855121136,-0.0009181052446365356,3.6003117261201143,0.0004153251647949219
1745973032789315600,3.791315673828125,0.0869849965767228,-0.05675080046057701,0.05368612747518189,-0.01250491477549076,-0.06620093150620028,0.979262068831122,-0.11844775159040807,right,0.0004900693893432617,-0.37586538745952064,0.7924810417726635,-9.087561818957328,-0.18379630418885667,0.006729078013449907,-0.0014126524329185486,3.5998023152932523,-0.0006498098373413086
1745973032829315800,3.83131591796875,0.08557267376107311,-0.042780738323926926,0.0532093367492327,-0.02136322297155857,-0.06716055550679591,0.9791834647690424,-0.12065861754493701,right,-0.0019303560256958008,-0.3763163771480131,0.7795068477787077,-9.087053869435191,-0.18400534021014953,-0.01755608804523945,-0.0012676939368247986,3.6039158880919215,0.0008685290813446045
1745973032869315800,3.87131591796875,0.08405489934244818,-0.03396110236644745,0.05264967989825105,-0.019158504903316498,-0.0678414133578255,0.9790493500768175,-0.12229632516583956,right,0.0015223026275634766,-0.377573143098419,0.7653329956714063,-9.083705728051067,-0.18462909235886787,-0.03450936824083328,0.002433769404888153,3.615375439739227,-0.001421213150024414
1745973032909315800,3.91131591796875,0.08282430554593945,-0.03910038620233536,0.052209873662871754,-0.021021509543061256,-0.06843628108350613,0.9789173838593294,-0.12370741617789231,right,0.0004710555076599121,-0.3787954047035703,0.753787884632498,-9.08023016089499,-0.18523291256261806,-0.024574629962444305,0.003120414912700653,3.626514673390984,-0.0052430033683776855
1745973032949315800,3.95131591796875,0.08086187722503156,-0.030261829495429993,0.05136669370771079,-0.030612831935286522,-0.06884710045266365,0.9789064291894627,-0.12491199013828892,right,-0.000732421875,-0.3790110588116832,0.7359039990261197,-9.080912297940253,-0.18537471345996756,-0.01108311302959919,0.002954043447971344,3.6284795437231656,-0.002043217420578003
1745973032989315800,3.99131591796875,0.07889904745058905,-0.021423272788524628,0.05052347553829467,-0.04020415619015694,-0.06925776432901765,0.9788945260853279,-0.12611690797276354,right,-0.00193864107131958,-0.3792245331475503,0.7180171908102929,-9.081566962456703,-0.18551637266048449,0.0024084066972136497,0.002787962555885315,3.630424248050153,0.0011585652828216553
1745973033029315600,4.031315673828125,0.0763796320696402,-0.015986254438757896,0.049383290811600505,-0.029741209000349045,-0.06952856581171915,0.9789317066614769,-0.12715048873687004,right,0.0035724639892578125,-0.3791180627762457,0.6951642115544527,-9.083732031536101,-0.1855258135542538,0.0005347614642232656,0.00473514199256897,3.629454233974218,-0.0006174147129058838
1745973033069315800,4.07131591796875,0.07484015389496067,-0.001926010474562645,0.04866863091439222,-0.027750222012400627,-0.06962092177446323,0.9789738246064066,-0.1276366074311846,right,0.0008079409599304199,-0.3788937123626225,0.6812400233592838,-9.085603670626877,-0.1854575441237033,0.007747306488454342,0.003234975039958954,3.627410453186929,-0.0029322803020477295
1745973033109315800,4.11131591796875,0.07376392865260555,0.017397943884134293,0.048091217258729106,-0.03201703727245331,-0.06932408101371713,0.9790630060716312,-0.12724698489449157,right,0.00030177831649780273,-0.37837220071494454,0.6716008190069347,-9.088217067995666,-0.18524882356859637,0.011897820048034191,0.0012065544724464417,3.622658290223777,-0.0010938048362731934
1745973033149315800,4.15131591796875,0.07292009162904592,0.026129957288503647,0.04756211764845563,-0.03478706255555153,-0.0687259352874485,0.9791853509220312,-0.12620183247707076,right,-0.0011729598045349121,-0.37767548173205456,0.6641153586223721,-9.091295160266757,-0.1849615442846645,0.015407908707857132,0.0006631761789321899,3.616308336675167,-0.0017047226428985596
1745973033189315800,4.19131591796875,0.07244914464028887,0.036970384418964386,0.04718759717439465,-0.022943168878555298,-0.06797863809243465,0.9792868685805051,-0.12477518136896806,right,-0.002148449420928955,-0.37723463744110375,0.6599491057883947,-9.093196025452018,-0.1847954233063661,0.0032196566462516785,-0.00029187649488449097,3.612289456422627,0.00010517239570617676
1745973033229315800,4.23131591796875,0.07247187064442026,0.05076301470398903,0.047016254890264425,-0.013823053799569607,-0.06701978315588511,0.9793568659163804,-0.12281380949965658,right,0.0007879137992858887,-0.37718897817286384,0.6601677169751375,-9.093345663055777,-0.18481846862818233,-0.009098580107092857,-0.0025993362069129944,3.611872984576225,0.002412080764770508
1745973033269315800,4.27131591796875,0.07262343071352015,0.05032630264759064,0.04687613251239501,-0.018178697675466537,-0.06586286221210376,0.9794065786860805,-0.12041575682801295,right,0.0037319064140319824,-0.37746802210509156,0.6614727351590991,-9.09223974764049,-0.1850064824970124,-0.0094052255153656,-0.0015352889895439148,3.614417116101086,0.004365146160125732
1745973033309315600,4.311315673828125,0.07285123272644664,0.029709208756685257,0.04681504915312657,-0.005080532282590866,-0.06497750318979188,0.9794674483771915,-0.11856633938374629,right,0.005584418773651123,-0.37740771785286853,0.6635597705662251,-9.092306383135915,-0.1850127922394736,0.009720062837004662,-0.00043236464262008667,3.613867373263836,0.005324184894561768
1745973033349315800,4.35131591796875,0.07319861087518059,-0.008359655737876892,0.046932515775481826,0.010545717552304268,-0.06479103457764249,0.9795197303869795,-0.11813238390622238,right,0.0029618144035339355,-0.3769180631842654,0.6668475600652396,-9.093838999530673,-0.18477168091558197,0.015912534669041634,0.0008312687277793884,3.6094027950704097,0.007348179817199707
1745973033389315800,4.39131591796875,0.07326165201498312,-0.033767879009246826,0.047057153444239164,0.006774237845093012,-0.06532299393537229,0.9795052022310855,-0.11921258119424415,right,-0.0019291043281555176,-0.37668485329453705,0.6674824239026754,-9.094636287388205,-0.18462992752887641,0.00889086164534092,-0.0002960488200187683,3.6072763044357297,0.0029643774032592773
1745973033429315800,4.43131591796875,0.07275911516780671,-0.024551311507821083,0.04694338766863073,-0.00385701609775424,-0.06595529261460034,0.979454085958421,-0.12059375821473511,right,-0.002870023250579834,-0.376869847087063,0.6628634588651359,-9.094304863476752,-0.18470465853442375,-0.0019779615104198456,0.0005286633968353271,3.6089632346093654,-0.001924753189086914
1745973033469315800,4.47131591796875,0.07258792673014569,-0.0003294125199317932,0.04691633769281055,0.00400468660518527,-0.06621199282821466,0.9794187358495147,-0.12114466510013665,right,-0.002686142921447754,-0.37709455255416024,0.6612477672968059,-9.093609282428025,-0.18480750860222114,-0.001058965572156012,0.0007336810231208801,3.6110119838327166,-0.005137979984283447
1745973033509315800,4.51131591796875,0.07258792673014569,0.012802074663341045,0.04691633769281055,0.00883418507874012,-0.06621199282821466,0.9794187358495147,-0.12114466510013665,right,0.0004401206970214844,-0.37709455255416024,0.6612477672968059,-9.093609282428025,-0.18480750860222114,-0.005946002434939146,0.0019909441471099854,3.6110119838327166,0.000364452600479126
1745973033549315600,4.551315673828125,0.07324329479953558,0.003999125212430954,0.04716739327358698,0.006950773298740387,-0.06590379282482481,0.9794294006901556,-0.12039197886259163,right,0.0010687708854675293,-0.3770817099145685,0.6672106942892074,-9.093219990849494,-0.18479727100370552,-0.004850796423852444,0.0022779107093811035,3.6108950794547794,0.0038892030715942383
1745973033589315800,4.59131591796875,0.07324329479953558,-0.031123273074626923,0.04716739327358698,0.008444325998425484,-0.06590379282482481,0.9794294006901556,-0.12039197886259163,right,0.0008191466331481934,-0.3770817099145685,0.6672106942892074,-9.093219990849494,-0.18479727100370552,-0.011938158422708511,0.00318310409784317,3.6108950794547794,0.005041271448135376
1745973033629315800,4.63131591796875,0.07319758504680608,-0.029531551524996758,0.04731116316736389,0.004656713455915451,-0.06671403029344161,0.9793269363494685,-0.12204227495838797,right,-0.0002396106719970703,-0.3775980876994791,0.6666585402991623,-9.091389852812886,-0.18501287996748597,-0.007966115139424801,0.0023664236068725586,3.615602818754315,-0.00008746981620788574
1745973033669315800,4.67131591796875,0.07334020684695262,-0.002393338829278946,0.047476750919957976,0.005227362737059593,-0.06714228473048224,0.9792283017110879,-0.12287219625995134,right,-0.0005255937576293945,-0.3783089851948836,0.6677666476715356,-9.088728524649143,-0.18533684049651034,-0.017298409715294838,0.0017652735114097595,3.622082243901491,-0.0029802322387695312
1745973033709315800,4.71131591796875,0.07386828172370406,0.02760394476354122,0.047705232966519934,0.006113424431532621,-0.06692099881748206,0.9791522496240835,-0.12229831723819119,right,0.0017489790916442871,-0.3791805071334995,0.672332859608531,-9.085223731398582,-0.18575984856617653,-0.024138187989592552,0.000573672354221344,3.630023266033828,-0.0038909912109375
1745973033749315800,4.75131591796875,0.07549741633172963,0.053802523761987686,0.048329282023196016,0.030816039070487022,-0.06609297072511544,0.979130525739786,-0.12028430767698557,right,-0.0002447962760925293,-0.37970124813330575,0.686990403579548,-9.082229810279607,-0.186009194561579,-0.012111743912100792,0.0006321370601654053,3.634766661168635,-0.003122001886367798
1745973033789315600,4.791315673828125,0.07708155905227124,0.02746257185935974,0.04892533440264933,0.012677250429987907,-0.06530130076761977,0.9791596659319198,-0.11836763743223061,right,-0.0013987421989440918,-0.3796524752838464,0.7013906848538667,-9.081306850215793,-0.18597985079702298,0.0005077142268419266,0.00016579777002334595,3.634322424532473,-0.0016071796417236328
1745973033829315800,4.83131591796875,0.0774373486754267,0.018057681620121002,0.049008194223651914,0.0018798569217324257,-0.06491853013331784,0.9792300690341346,-0.11753321284432323,right,-0.0013759732246398926,-0.37910705188323657,0.7047749204646796,-9.083031774312257,-0.18572141723530078,0.01183807197958231,-0.00007504969835281372,3.629353988470137,-0.0006196200847625732
1745973033869315800,4.87131591796875,0.0774373486754267,0.015608503483235836,0.049008194223651914,-0.0047265756875276566,-0.06491853013331784,0.9792300690341346,-0.11753321284432323,right,-0.0023788809776306152,-0.37910705188323657,0.7047749204646796,-9.083031774312257,-0.18572141723530078,0.004911279771476984,-0.0006687343120574951,3.629353988470137,0.0009942948818206787
1745973033909315800,4.91131591796875,0.07752612484946296,0.0192351583391428,0.048936806366729126,-0.013937905430793762,-0.06436508643770335,0.9792999473620144,-0.11639630742112733,right,-0.0023615360260009766,-0.3787342013722972,0.7056860439602285,-9.084317722469567,-0.18556369148601518,-0.0012259026989340782,0.000033155083656311035,3.6259570395082235,0.0027890801429748535
1745973033949315800,4.95131591796875,0.07751398207958424,0.026283476501703262,0.04881455813204358,-0.011913660913705826,-0.06375205836686906,0.9793417985128305,-0.11514710598207974,right,0.00037658214569091797,-0.37871851739079226,0.705580172432959,-9.084383188921212,-0.185586912061614,-0.0015244412934407592,0.0009440109133720398,3.6258141239061947,0.0008325576782226562
1745973033989315800,4.99131591796875,0.07755754582004723,0.03514606133103371,0.0486950751969339,-0.015505191870033741,-0.06301832893021406,0.9793927775187176,-0.11364175282326279,right,-0.001286625862121582,-0.3786723253112667,0.7059888993643224,-9.08451938252151,-0.18559959913058027,-0.0004556570202112198,0.0008633360266685486,3.6253932681456207,0.0000040531158447265625
1745973034029315600,5.031315673828125,0.07732924989976718,0.03481859341263771,0.04843486268623102,-0.022286497056484222,-0.062206657885945656,0.9794426750809901,-0.11202572885526582,right,-0.002178013324737549,-0.37873835958884133,0.7038963840644806,-9.084441641110182,-0.18567834599994945,-0.010954667814075947,0.0023244470357894897,3.625994741170108,0.0011474788188934326
1745973034069315800,5.07131591796875,0.07679654922502945,0.03827102109789848,0.04804244493106101,-0.033240824937820435,-0.06139438574556756,0.9794446266403339,-0.11045069993639454,right,0.00030940771102905273,-0.3793650307222011,0.6988825014252216,-9.082547790187597,-0.18603994470939209,-0.02335658110678196,0.0009044855833053589,3.631704058727622,-0.003334730863571167
1745973034109315800,5.11131591796875,0.07648971144228255,0.05171705782413483,0.04772879368593035,-0.027871882542967796,-0.060383578628771875,0.9794055659457283,-0.10841331909911367,right,0.00010484457015991211,-0.3805037792803288,0.695779128582403,-9.078632078048587,-0.1866561750854073,-0.03955479711294174,0.0014515072107315063,3.642075230616331,-0.004568874835968018
1745973034149315800,5.15131591796875,0.07634729876666321,0.05168149247765541,0.04746038462224169,-0.03160648047924042,-0.05916621883246135,0.979334531462654,-0.10591096221200834,right,-0.0021321773529052734,-0.38206548325469214,0.6940515741374343,-9.0730487249583,-0.18748532972472862,-0.05367257446050644,0.0020450204610824585,3.6562905107125636,0.0007967650890350342
1745973034189315800,5.19131591796875,0.07577001075902753,0.03403762727975845,0.047028071861182456,-0.03302449360489845,-0.058138117621969417,0.9792243026360353,-0.10386868668968863,right,0.001202225685119629,-0.38397985914156807,0.6882825622819364,-9.066451810911298,-0.18848859674053034,-0.056190043687820435,0.005282767117023468,3.673703710067272,0.0017993748188018799
1745973034229315800,5.23131591796875,0.07543435937708116,0.022745974361896515,0.046757166540248946,-0.011417252942919731,-0.05742011232826585,0.9791433962219195,-0.10242928810958929,right,0.0034589171409606934,-0.3853333914388157,0.6848639860101043,-9.061716014561057,-0.18919521923595248,-0.01920882984995842,0.005934193730354309,3.686007311323285,0.00009483098983764648
1745973034269315800,5.27131591796875,0.07538493683873095,0.01162001769989729,0.046655889728312444,-0.015891825780272484,-0.05700602337281464,0.9791580784316898,-0.10159000627605666,right,-0.0007702112197875977,-0.3854423353212176,0.684385920169577,-9.061349519336224,-0.18926960332518836,0.008764773607254028,0.0027040988206863403,3.686997199143469,0.0011951327323913574
1745973034309315600,5.311315673828125,0.07502887708525452,0.011213243007659912,0.04642990849910352,-0.018057476729154587,-0.05675011218676554,0.9792241052375652,-0.10114908541195759,right,-0.0001672506332397461,-0.3849741693135242,0.6812888309370726,-9.06331292836368,-0.18906059898329042,0.013885962776839733,0.00034774094820022583,3.682742756569385,0.000218123197555542
1745973034349315800,5.35131591796875,0.07453664560430978,0.008740008808672428,0.04613108139302162,-0.01625453494489193,-0.05643826461415142,0.9792848585560836,-0.10061699960000835,right,0.0026122331619262695,-0.3846177749240104,0.6769251558348536,-9.0649554348737,-0.18891221697702978,0.006264198571443558,-0.00032442063093185425,3.679503043995797,0.0027714669704437256
1745973034389315800,5.39131591796875,0.07425892913327967,0.006192783825099468,0.04594979373818772,-0.0012469794601202011,-0.05619298234947688,0.979319617820482,-0.1001741670583478,right,0.004366815090179443,-0.3844523357596375,0.6744527743719517,-9.065749800121784,-0.18884917010935498,0.003968096803873777,0.0007456988096237183,3.6779993614345785,0.002194225788116455
1745973034429315800,5.43131591796875,0.07442220704195097,0.003397546708583832,0.046006590936771036,0.005064501892775297,-0.05609395710629135,0.9793281212146637,-0.09994207917709425,right,0.0028473734855651855,-0.3843934360025265,0.6759491504095494,-9.065855598583816,-0.18882104661511603,0.009296723641455173,0.0008920207619667053,3.677463647122681,-0.00045812129974365234
1745973034469315800,5.47131591796875,0.07442220704195097,-0.0003752182237803936,0.046006590936771036,0.00916215032339096,-0.05609395710629135,0.9793281212146637,-0.09994207917709425,right,-0.0008227825164794922,-0.3843934360025265,0.6759491504095494,-9.065855598583816,-0.18882104661511603,0.016856033354997635,0.00040287524461746216,3.677463647122681,-0.002533823251724243
1745973034509315800,5.51131591796875,0.07512095981620039,0.004657186567783356,0.04631415735236948,0.015971174463629723,-0.05610271335048085,0.9794381478152345,-0.09986118953471346,right,-0.004506409168243408,-0.383104329900545,0.6826390034370124,-9.070100981068611,-0.18817158590310992,0.024217573925852776,0.0002904757857322693,3.6657413528859615,0.0006142854690551758
1745973034549315600,5.551315673828125,0.07543942096168113,0.009919200092554092,0.04641278695642692,-0.0048986319452524185,-0.055928351080591285,0.9795369465785329,-0.0994719268488925,right,-0.0031920671463012695,-0.38210905864998995,0.6858020705778152,-9.073516342470048,-0.187683921055855,0.01731448620557785,0.00040346384048461914,3.6566868165537714,0.004614055156707764
1745973034589315800,5.59131591796875,0.07527790405710452,-0.0024649454280734062,0.04630246833338551,-0.00537739135324955,-0.05579411143209907,0.9795914464389649,-0.09924178878779155,right,-0.00015550851821899414,-0.38164626797288265,0.6844637346461415,-9.075313747280836,-0.18746692211085808,0.0034316107630729675,0.0017431750893592834,3.6524753363385796,0.005464494228363037
1745973034629315800,5.63131591796875,0.07527790405710452,-0.018545567989349365,0.04630246833338551,0.006531262770295143,-0.05579411143209907,0.9795914464389649,-0.09924178878779155,right,0.0020819902420043945,-0.38164626797288265,0.6844637346461415,-9.075313747280836,-0.18746692211085808,0.011835184879601002,0.0012424588203430176,3.6524753363385796,0.0004488825798034668
1745973034669315800,5.67131591796875,0.07493478354783183,-0.03272319212555885,0.04627633552081571,-0.006969974376261234,-0.05655252296224398,0.9796017264167688,-0.10086987802539467,right,-0.0011899471282958984,-0.38114237039912197,0.6814874222490936,-9.077382370248436,-0.18719190115782058,0.010860958136618137,0.0010386332869529724,3.6478888853311537,-0.000598609447479248
1745973034709315800,5.71131591796875,0.07360542430683545,-0.04590526968240738,0.045813955356504836,-0.023867938667535782,-0.05740949109124889,0.9795693425711632,-0.10287187299057518,right,0.000044405460357666016,-0.3812048687884359,0.6694030167017132,-9.078052816855907,-0.18721431514784947,-0.003301515243947506,0.0005666166543960571,3.6484579173907634,-0.0006140470504760742
1745973034749315800,5.75131591796875,0.07166605259332184,-0.05111375451087952,0.04508903520438974,-0.03025909699499607,-0.058327613748190475,0.9794782812548449,-0.1050980824585662,right,-0.0011992454528808594,-0.38194440854343437,0.6516026446603238,-9.076640027448535,-0.18758231087196256,-0.027326617389917374,0.003309398889541626,3.6551886869505044,-0.003976404666900635
1745973034789315600,5.791315673828125,0.0701400035718443,-0.03861623257398605,0.04453260700686491,-0.014657915569841862,-0.059074378588900855,0.9793643771398199,-0.10689051643333122,right,0.0030965805053710938,-0.3829415416118908,0.6374947704613209,-9.073983375459909,-0.18807560436402987,-0.01968265324831009,0.0028569772839546204,3.664260758939385,-0.002698242664337158
1745973034829315800,5.83131591796875,0.06824769408839142,-0.032044194638729095,0.04379099977807365,-0.0199640691280365,-0.05976414613729715,0.979270852892523,-0.10864206915748764,right,0.0019855499267578125,-0.3838094911783455,0.6201056826345622,-9.071997170078754,-0.18851844954080904,-0.02282704785466194,0.0043187737464904785,3.672154434798658,-0.0022048652172088623
1745973034869315800,5.87131591796875,0.06647971531318428,-0.037813469767570496,0.04309311024001649,-0.026654081419110298,-0.06039464396680854,0.979197556643572,-0.11025531401130415,right,0.002969086170196533,-0.3844676091694703,0.6039049643421546,-9.070666213735938,-0.18885896719672868,-0.012550104409456253,0.004296779632568359,3.6781381853833794,0.00020173192024230957
1745973034909315800,5.91131591796875,0.06503042577354273,-0.033746715635061264,0.042539448697343545,-0.019156640395522118,-0.06102828509405598,0.9791494192642083,-0.11182197067647366,right,0.0016952753067016602,-0.3847947627406954,0.5906800835227594,-9.070330698171258,-0.18902972762898418,-0.0030064089223742485,0.0030870847404003143,3.6811119404971597,-0.0003521442413330078
1745973034949315800,5.95131591796875,0.06404398036293645,-0.02359255962073803,0.04217939937699041,-0.013090137392282486,-0.06154749460111267,0.9791124609380206,-0.11306865922362411,right,0.00046700239181518555,-0.38500000886201063,0.5816840724447742,-9.070154757082461,-0.1891340816432407,-0.003644813783466816,0.0010611526668071747,3.6829774421080943,0.001826941967010498
1745973034989315800,5.99131591796875,0.06332789208034138,-0.01906955987215042,0.0419241633989383,-0.010543761774897575,-0.06193923471218005,0.9790710862110433,-0.11400129764858669,right,0.0006518363952636719,-0.38528588581468265,0.5751221931785345,-9.069517628222703,-0.18927664392688423,-0.005228376016020775,0.002347521483898163,3.6855756419077514,0.0032133162021636963
1745973035029315600,6.031315673828125,0.06269839422851109,-0.02061687782406807,0.04171350872913595,-0.0055931247770786285,-0.062351408163546174,0.9790284067478399,-0.1149595233711375,right,0.003543257713317871,-0.38555686518611904,0.5693502587135881,-9.068881083884834,-0.18940890054808368,0.0006961263716220856,0.002878338098526001,3.688037940368056,0.002736121416091919
1745973035069315800,6.07131591796875,0.06249906738087967,-0.016133060678839684,0.04170339252910518,0.0044030481949448586,-0.06280563576800424,0.9790189209569532,-0.11592946549496885,right,0.0021907687187194824,-0.3853839593302767,0.5675824087908491,-9.069630440947414,-0.18931020527960854,0.01605367287993431,0.0007780417799949646,3.6864667455285787,-0.0001232922077178955
1745973035109315800,6.11131591796875,0.06263605742127326,-0.013522110879421234,0.0418115578128536,0.006492628715932369,-0.06311947289760263,0.9790656251793731,-0.11655848614636925,right,0.00047838687896728516,-0.38466338435174124,0.5689909604145214,-9.072201168218255,-0.18893978305730097,0.020376067608594894,-0.0008883066475391388,3.67991776227653,-0.0009095966815948486
1745973035149315800,6.15131591796875,0.06261000943445752,-0.011189743876457214,0.04182718601699755,0.009587050415575504,-0.06336239851108874,0.979126344988347,-0.11707561254354965,right,-0.00029736757278442383,-0.38386723096286685,0.5689377689225599,-9.07513722167015,-0.18853976694802058,0.011487267911434174,-0.0005099773406982422,3.672679627716541,0.00011479854583740234
1745973035189315800,6.19131591796875,0.0628776490238971,-0.01576235145330429,0.0420110092624856,0.01439310610294342,-0.06368403224608435,0.9791185196651514,-0.11768463617485675,right,0.00046378374099731445,-0.3836889157019724,0.5714077757652849,-9.075638156929612,-0.18843114244740428,-0.0006174426525831223,-0.0008573383092880249,3.6710581639945503,0.0002950727939605713
1745973035229315800,6.23131591796875,0.06316344565974276,-0.019527310505509377,0.042218725035121134,0.011433270759880543,-0.06405756630183052,0.9790855462851284,-0.1183917335375026,right,0.0006094574928283691,-0.3837346172979262,0.5739909606589004,-9.07530731754005,-0.188429512379099,-0.0006812637438997626,-0.00006512179970741272,3.6714737590581175,-0.0003196895122528076
1745973035269315800,6.27131591796875,0.06325292716606633,-0.01702413521707058,0.04235018350882994,0.011447606608271599,-0.06452528609499263,0.9790563627596244,-0.11933055349883954,right,0.0011113286018371582,-0.38370444197600284,0.5748100219568237,-9.075366354250907,-0.18839200651376803,0.005210899747908115,0.0012940466403961182,3.67119932603091,-0.0035806596279144287
1745973035309315600,6.311315673828125,0.06346387097841989,-0.0030246321111917496,0.04250039613395802,0.005174184683710337,-0.06481817608184026,0.9790555873075901,-0.11989286291448747,right,-0.0005586147308349609,-0.3834763657703881,0.5767774861048907,-9.076080055478215,-0.1882615287699919,0.0030637236777693033,0.0014587678015232086,3.669125150105357,-0.004743218421936035
1745973035349315800,6.35131591796875,0.06373558342348304,0.008386136032640934,0.042614714978811474,0.0006628232076764107,-0.06472200649172838,0.9790395140937828,-0.11964025898096105,right,-0.0014154911041259766,-0.3836700606034865,0.5791982835110276,-9.0752137940377,-0.18835296951830927,-0.01673818938434124,0.0021832995116710663,3.6708866068199275,-0.0009761154651641846
1745973035389315800,6.39131591796875,0.06369680043083129,0.008772698231041431,0.04257114279840093,-0.004394336603581905,-0.06450063858088015,0.9789866324354846,-0.11918106093742231,right,0.001211702823638916,-0.38438264625929464,0.5786796664644033,-9.072623193022608,-0.1887130828469556,-0.031018059700727463,0.004027742892503738,3.6773657397061585,0.003241598606109619
1745973035429315800,6.43131591796875,0.06379777579457672,-0.008584798313677311,0.04264744765922078,0.00281870411708951,-0.06448224609694318,0.9788588644509175,-0.11909700255375115,right,0.000898897647857666,-0.38571394993875946,0.5792831487828866,-9.067671123573183,-0.1893637252991053,-0.04160546511411667,0.0027385950088500977,3.689465342822671,0.0054621100425720215
1745973035469315800,6.47131591796875,0.06389600635861246,-0.010595373809337616,0.04276760475730677,0.003838891629129648,-0.06467139567006025,0.9786974077308326,-0.11943336200739697,right,-0.0005900263786315918,-0.3872491162425121,0.5798115200385451,-9.06195099236071,-0.19010522465572707,-0.0312909334897995,0.0031415708363056183,3.7034096970230337,0.0030136406421661377
1745973035509315800,6.51131591796875,0.06469853638410375,0.021094053983688354,0.043096384999004415,0.017830202355980873,-0.06439712729207905,0.9786866046152692,-0.11871341875758079,right,-0.0006292462348937988,-0.38742186408940305,0.5870424211401492,-9.060844492423534,-0.19017939167259126,-0.010741811245679855,0.0024479106068611145,3.704978261514008,-0.0000711977481842041
1745973035549315600,6.551315673828125,0.06550125796325192,0.052783481776714325,0.04342515224870181,0.031821511685848236,-0.0641228300886771,0.9786756713741366,-0.11799324937647351,right,-0.000668942928314209,-0.38759411421929874,0.5942737971657887,-9.05973331631124,-0.19025353085247654,0.00980730727314949,0.0017542093992233276,3.706542442090809,-0.0031555891036987305
1745973035589315800,6.59131591796875,0.06779935184317723,0.07373969256877899,0.04429102120004373,0.037448860704898834,-0.06306851401172715,0.9787553483211877,-0.11540310419970354,right,-0.00021642446517944336,-0.3871020567585824,0.6152157917011529,-9.060162355378269,-0.18999628014659956,0.007971106097102165,0.0011562854051589966,3.702074356766045,-0.002793252468109131
1745973035629315800,6.63131591796875,0.06971237107155798,0.05340064316987991,0.04498060145787275,0.014014694839715958,-0.06201235804518604,0.9788193245506163,-0.112880471356188,right,-0.00017470121383666992,-0.3868147546724016,0.6326210269451141,-9.060029084387422,-0.1898520562182747,-0.00014578364789485931,0.0009917095303535461,3.6994653433114286,-0.000687330961227417
1745973035669315800,6.67131591796875,0.07099524023921355,0.037611424922943115,0.04542635746741369,0.014962011016905308,-0.06120423132960263,0.9788567516198655,-0.11098245535099731,right,0.000559687614440918,-0.3867340500186129,0.6442644837919622,-9.05950827538371,-0.18981588212217632,-0.007148097734898329,0.0011366531252861023,3.6987323528617617,0.004018008708953857
1745973035709315800,6.71131591796875,0.07169938271295714,0.01396246999502182,0.04568150460583968,0.005405660718679428,-0.06077660186088608,0.9788423532412064,-0.10996457734534089,right,-0.0008129477500915527,-0.3870368398460287,0.6505632916752249,-9.057934742456673,-0.18996591325869827,-0.0092605696991086,0.0023648887872695923,3.7014822360917923,0.00542217493057251
1745973035749315800,6.75131591796875,0.07190504663504609,0.005147255025804043,0.04575201436828306,0.001283982302993536,-0.06061487631270496,0.9788258949884693,-0.10958818552177489,right,0.00020682811737060547,-0.3872764523859221,0.652362376986444,-9.05691592080295,-0.19008562750143412,-0.0012483634054660797,0.0009710192680358887,3.7036581188261506,0.0012962818145751953
1745973035789315600,6.791315673828125,0.07190504663504609,0.012242516502737999,0.04575201436828306,-0.005919886752963066,-0.06061487631270496,0.9788258949884693,-0.10958818552177489,right,-0.0017195343971252441,-0.3872764523859221,0.652362376986444,-9.05691592080295,-0.19008562750143412,0.0135044539347291,0.0004439130425453186,3.7036581188261506,-0.002662867307662964
1745973035829315800,6.83131591796875,0.07249462483800061,0.028569424524903297,0.04592767072366378,0.009268628433346748,-0.0601296175868915,0.9788818975736222,-0.10849182428842287,right,-0.0014744400978088379,-0.3869001969112715,0.6578029606051743,-9.057918960365653,-0.18990867618928772,0.0018917107954621315,-0.0003025233745574951,3.7002412961199878,0.000010192394256591797
1745973035869315800,6.87131591796875,0.0730625616816686,0.020760811865329742,0.04609575392992037,0.0013960106298327446,-0.05960943689583836,0.9788968470557903,-0.10731693060948046,right,0.00015205144882202148,-0.3869734032413225,0.6629273909468203,-9.05727364819944,-0.18995457415476324,-0.006902214139699936,0.0016293823719024658,3.700906189769506,0.0015755295753479004
1745973035909315800,6.91131591796875,0.07319483856201459,0.004640912637114525,0.046114000656447066,0.002142988843843341,-0.05935496869818858,0.9788847156556263,-0.10676446352291656,right,0.003003358840942383,-0.3872375547305146,0.6640539107587188,-9.0562104028821,-0.1900927458590679,-0.0030517776031047106,0.0027470365166664124,3.703304775343835,0.0017355680465698242
1745973035949315800,6.95131591796875,0.07319483856201459,-0.0027229865081608295,0.046114000656447066,0.0031234060879796743,-0.05935496869818858,0.9788847156556263,-0.10676446352291656,right,0.0008597373962402344,-0.3872375547305146,0.6640539107587188,-9.0562104028821,-0.1900927458590679,0.0003837363328784704,0.001627504825592041,3.703304775343835,0.0007950663566589355
1745973035989315800,6.99131591796875,0.07319483856201459,-0.004385781940072775,0.046114000656447066,0.002169670071452856,-0.05935496869818858,0.9788847156556263,-0.10676446352291656,right,-0.0003285408020019531,-0.3872375547305146,0.6640539107587188,-9.0562104028821,-0.1900927458590679,-0.002317192032933235,0.002283647656440735,3.703304775343835,-0.0005157291889190674
1745973036029315600,7.031315673828125,0.07342015061499885,-0.004687806591391563,0.046271598762428694,0.0032570650801062584,-0.059576598388323916,0.9788272384655431,-0.10716260472665458,right,-0.0024543404579162598,-0.3876547914085677,0.6659810063637792,-9.054518796533346,-0.19028120763741063,-0.005023217760026455,0.0011019706726074219,3.707093353971839,-0.0025348961353302
1745973036069315800,7.07131591796875,0.07342015061499885,0.0032586613669991493,0.046271598762428694,0.0057646408677101135,-0.059576598388323916,0.9788272384655431,-0.10716260472665458,right,-0.0005323886871337891,-0.3876547914085677,0.6659810063637792,-9.054518796533346,-0.19028120763741063,-0.002342078136280179,0.00263146311044693,3.707093353971839,-0.00041687488555908203
1745973036109315800,7.11131591796875,0.07342015061499885,0.0012266358826309443,0.046271598762428694,0.004980369471013546,-0.059576598388323916,0.9788272384655431,-0.10716260472665458,right,-0.0008051395416259766,-0.3876547914085677,0.6659810063637792,-9.054518796533346,-0.19028120763741063,-0.003195597091689706,0.0029321908950805664,3.707093353971839,0.0012248754501342773
1745973036149315800,7.15131591796875,0.07342015061499885,-0.00413075927644968,0.046271598762428694,-0.003657238557934761,-0.059576598388323916,0.9788272384655431,-0.10716260472665458,right,0.00007319450378417969,-0.3876547914085677,0.6659810063637792,-9.054518796533346,-0.19028120763741063,-0.001461950596421957,0.0033627599477767944,3.707093353971839,0.0009428560733795166
1745973036189315800,7.19131591796875,0.07342015061499885,-0.0011873496696352959,0.046271598762428694,-0.00029113213531672955,-0.059576598388323916,0.9788272384655431,-0.10716260472665458,right,0.0003902912139892578,-0.3876547914085677,0.6659810063637792,-9.054518796533346,-0.19028120763741063,0.0050689708441495895,0.0029443278908729553,3.707093353971839,0.00047898292541503906
1745973036229315800,7.23131591796875,0.07342015061499885,-0.002344005275517702,0.046271598762428694,-0.006471023894846439,-0.059576598388323916,0.9788272384655431,-0.10716260472665458,right,-0.0012597441673278809,-0.3876547914085677,0.6659810063637792,-9.054518796533346,-0.19028120763741063,-0.0024448148906230927,0.0040307193994522095,3.707093353971839,0.002252727746963501
1745973036269315800,7.27131591796875,0.07342015061499885,-0.0036446996964514256,0.046271598762428694,-0.007501866668462753,-0.059576598388323916,0.9788272384655431,-0.10716260472665458,right,0.0009979009628295898,-0.3876547914085677,0.6659810063637792,-9.054518796533346,-0.19028120763741063,-0.005196793004870415,0.0029742643237113953,3.707093353971839,0.0011428594589233398
1745973036309315600,7.311315673828125,0.07342015061499885,0.001948096789419651,0.046271598762428694,-0.007122776471078396,-0.059576598388323916,0.9788272384655431,-0.10716260472665458,right,0.0008720755577087402,-0.3876547914085677,0.6659810063637792,-9.054518796533346,-0.19028120763741063,-0.0008956701494753361,0.0018121004104614258,3.707093353971839,0.0006150007247924805
1745973036349315800,7.35131591796875,0.07351299584722497,0.006855358369648457,0.046302009873290265,-0.00763940904289484,-0.05943517601131182,0.9787663668495643,-0.1068370923965691,right,0.0013660788536071777,-0.3883588668388973,0.6666297525960951,-9.051851623150705,-0.19063081922169564,-0.0075496165081858635,0.0022231191396713257,3.713484516313672,0.0022648870944976807
1745973036389315800,7.39131591796875,0.07351299584722497,0.0063905250281095505,0.046302009873290265,-0.00396205298602581,-0.05943517601131182,0.9787663668495643,-0.1068370923965691,right,0.00042510032653808594,-0.3883588668388973,0.6666297525960951,-9.051851623150705,-0.19063081922169564,0.001915978267788887,0.0038369223475456238,3.713484516313672,0.002412766218185425
1745973036429315800,7.43131591796875,0.07351299584722497,-0.008739392273128033,0.046302009873290265,0.004398040473461151,-0.05943517601131182,0.9787663668495643,-0.1068370923965691,right,0.0007700920104980469,-0.3883588668388973,0.6666297525960951,-9.051851623150705,-0.19063081922169564,0.017296727746725082,0.0020962879061698914,3.713484516313672,0.0027757585048675537
1745973036469315800,7.47131591796875,0.07355536867228082,-0.014047296717762947,0.04632437674375077,0.0018631007988005877,-0.05954904489533627,0.9788529723910506,-0.10708723122888711,right,-0.0005727410316467285,-0.38738047971855816,0.6672800331983715,-9.055442925640941,-0.1901445677581583,0.02204071544110775,0.002628736197948456,3.7046027061998843,0.0009922683238983154
1745973036509315800,7.51131591796875,0.07355536867228082,-0.007377444766461849,0.04632437674375077,-0.004587278701364994,-0.05954904489533627,0.9788529723910506,-0.10708723122888711,right,-0.0036110877990722656,-0.38738047971855816,0.6672800331983715,-9.055442925640941,-0.1901445677581583,0.0033931341022253036,0.0005235001444816589,3.7046027061998843,-0.0005801618099212646
1745973036549315600,7.551315673828125,0.07355536867228082,-0.00045729661360383034,0.04632437674375077,-0.006633899174630642,-0.05954904489533627,0.9788529723910506,-0.10708723122888711,right,0.0012355446815490723,-0.38738047971855816,0.6672800331983715,-9.055442925640941,-0.1901445677581583,-0.00863904133439064,0.0015668869018554688,3.7046027061998843,-0.0011273026466369629
1745973036589315800,7.59131591796875,0.07355536867228082,-0.004750181920826435,0.04632437674375077,0.007757554762065411,-0.05954904489533627,0.9788529723910506,-0.10708723122888711,right,0.0047089457511901855,-0.38738047971855816,0.6672800331983715,-9.055442925640941,-0.1901445677581583,0.0051189931109547615,0.0015713050961494446,3.7046027061998843,-0.001417309045791626
1745973036629315800,7.63131591796875,0.07378762048630276,-0.012393465265631676,0.0465208587586243,0.005398050881922245,-0.06001135740196106,0.9788333957618287,-0.10799021135802683,right,0.0010677576065063477,-0.3872482906839656,0.669419237184152,-9.055775518596171,-0.19005192299937362,0.0015487174969166517,0.002395935356616974,3.703402390499413,0.00022405385971069336
1745973036669315800,7.67131591796875,0.07376990269558255,-0.01090038288384676,0.04658048774518239,0.005889518186450005,-0.06035052150466961,0.9788029032055602,-0.10868394652751694,right,-0.000975191593170166,-0.3873512483671774,0.6692306558094918,-9.05540726980567,-0.1900867453772073,-0.005146448500454426,0.0028011351823806763,3.7043373332619667,-0.0002594590187072754
1745973036709315800,7.71131591796875,0.07377745555849947,-0.0051342337392270565,0.046637348771599384,0.0016387640498578548,-0.06059895807813328,0.9787638959160757,-0.10918371936945771,right,0.0011523962020874023,-0.38759526552565493,0.6692324093751609,-9.054500676354765,-0.19019439180678527,-0.001811180729418993,0.0018173158168792725,3.7065526712238785,-0.002315014600753784
1745973036749315800,7.75131591796875,0.07401269269930814,-0.0032086092978715897,0.046777687033717104,0.003655737265944481,-0.06073842501863254,0.978739772137123,-0.10941988294634397,right,-0.0013269782066345215,-0.3877142215703926,0.6713297469805926,-9.053903294983506,-0.19023998570079595,-0.0033544646576046944,0.0017580538988113403,3.7076328676760193,-0.000783085823059082
1745973036789315600,7.791315673828125,0.07401269269930814,-0.006293075159192085,0.046777687033717104,-0.005643648095428944,-0.06073842501863254,0.978739772137123,-0.10941988294634397,right,-0.003200531005859375,-0.3877142215703926,0.6713297469805926,-9.053903294983506,-0.19023998570079595,-0.0026026656851172447,0.002569131553173065,3.7076328676760193,0.0010739266872406006
1745973036829315800,7.83131591796875,0.07401269269930814,-0.008750388398766518,0.046777687033717104,-0.012765225023031235,-0.06073842501863254,0.978739772137123,-0.10941988294634397,right,0.0007470846176147461,-0.3877142215703926,0.6713297469805926,-9.053903294983506,-0.19023998570079595,0.009164007380604744,0.001896098256111145,3.7076328676760193,0.0008465945720672607
1745973036869315800,7.87131591796875,0.07317999086215386,-0.012280549854040146,0.04643374980104474,-0.009491020813584328,-0.06103934364747737,0.9787827582473427,-0.1102093127258581,right,0.00037026405334472656,-0.3872232186885285,0.6639233431816101,-9.056273531246184,-0.19000646882681652,0.016252558678388596,0.002416469156742096,3.7031747192233797,0.0013843774795532227
1745973036909315800,7.91131591796875,0.07242860139914066,-0.018898114562034607,0.04613005262207653,-0.00926173198968172,-0.061358220764093675,0.9788286736467351,-0.11102071700422703,right,0.0017140507698059082,-0.38667283259045165,0.6572657849885523,-9.05880100389719,-0.18974110754327952,0.016123661771416664,0.002635747194290161,3.698176180283725,0.0020786523818969727
1745973036949315800,7.95131591796875,0.07187801149773096,-0.020064931362867355,0.04594306981334644,-0.0059165083803236485,-0.061789706744639405,0.9788609743354417,-0.11202212502691675,right,0.0003840327262878418,-0.3861512260756136,0.65241644526124,-9.061084730920195,-0.1894795248102003,0.016603607684373856,0.0014112889766693115,3.6934383381068705,0.0008168518543243408
1745973036989315800,7.99131591796875,0.07158626711035936,-0.009877617470920086,0.04586629762907779,-0.0014603454619646072,-0.062144815569847064,0.9788787965698119,-0.11281330168649516,right,-0.00048792362213134766,-0.3857820298456268,0.6498703409750014,-9.062633713927864,-0.18928957392524973,0.005481606349349022,0.0014498233795166016,3.690084059242904,-0.0009718537330627441
1745973037029315600,8.031315673828125,0.07158626711035936,-0.0031387382186949253,0.04586629762907779,-0.0027083258610218763,-0.062144815569847064,0.9788787965698119,-0.11281330168649516,right,0.0013126730918884277,-0.3857820298456268,0.6498703409750014,-9.062633713927864,-0.18928957392524973,-0.0021808044984936714,0.001118004322052002,3.690084059242904,-0.0024977028369903564
1745973037069315800,8.07131591796875,0.07158626711035936,0.0015768865123391151,0.04586629762907779,-0.002563268644735217,-0.062144815569847064,0.9788787965698119,-0.11281330168649516,right,0.0008891820907592773,-0.3857820298456268,0.6498703409750014,-9.062633713927864,-0.18928957392524973,0.0033754389733076096,0.0009636431932449341,3.690084059242904,-0.0029171109199523926
1745973037109315800,8.11131591796875,0.07158626711035936,-0.008032194338738918,0.04586629762907779,-0.007305940613150597,-0.062144815569847064,0.9788787965698119,-0.11281330168649516,right,0.0006883144378662109,-0.3857820298456268,0.6498703409750014,-9.062633713927864,-0.18928957392524973,0.0061889453791081905,0.00015924125909805298,3.690084059242904,-0.0013410747051239014
1745973037149315800,8.15131591796875,0.07080060771877626,-0.014586851000785828,0.04554321475249723,-0.002361621242016554,-0.06245408612634135,0.978927440663165,-0.11361110910370106,right,-0.0006268024444580078,-0.38520730871011705,0.6428999174404889,-9.065255879124999,-0.18901428593094494,0.010216495022177696,0.0017790421843528748,3.6848613561585544,0.0007205307483673096
1745973037189315800,8.19131591796875,0.07053813077623021,-0.02119804359972477,0.04547964031482277,-0.0015602722996845841,-0.06278759672008828,0.9789288608367382,-0.11434780149126574,right,-0.00013399124145507812,-0.38501586388760284,0.6405702323839068,-9.066127401262522,-0.1889119523864822,0.0032718079164624214,0.0030452534556388855,3.683121526753902,0.001573801040649414
1745973037229315800,8.23131591796875,0.07006058082531319,-0.027378087863326073,0.04537711619952178,-0.0028144612442702055,-0.06339013978620417,0.9788717224152246,-0.11566448632274948,right,0.00000286102294921875,-0.38528986931808296,0.6361699515983462,-9.065425390473008,-0.18903133037918143,-0.009421348571777344,0.004031486809253693,3.685611882264912,-0.00006702542304992676
1745973037269315800,8.27131591796875,0.06824404420245937,-0.06965947896242142,0.044716626904348605,-0.05960215628147125,-0.06429468027019994,0.978757678132979,-0.11784345853529034,right,-0.003274679183959961,-0.3861727301486581,0.6194790751688182,-9.06331585097313,-0.189472679774007,-0.01906753145158291,0.002023853361606598,3.6936335684180257,0.0023776888847351074
1745973037309315600,8.311315673828124,0.0654220857645704,-0.035903044044971466,0.04359743658590439,-0.028597956523299217,-0.065232119463947,0.9786276094356261,-0.12028085701646767,right,-0.00043022632598876953,-0.38734503743689364,0.5936168676270172,-9.06070128456056,-0.19008434320115597,-0.019168561324477196,0.0023725219070911407,3.7042809268996115,-0.004503339529037476
1745973037349315800,8.35131591796875,0.06353427609825955,-0.03836435452103615,0.042833541211710006,-0.03838638961315155,-0.06576084686755143,0.9785346481852679,-0.12171037236970282,right,0.000641167163848877,-0.38823980155511434,0.5763002605145797,-9.058494129905105,-0.1905534281843446,-0.021078236401081085,0.0018159300088882446,3.7124037353396413,0.00018003582954406738
1745973037389315800,8.39131591796875,0.06134095894259583,-0.026154210790991783,0.04190392766985186,-0.034878261387348175,-0.06620415047814723,0.9784746160433888,-0.1230315730825796,right,0.003781616687774658,-0.38888776336476266,0.5562831622717902,-9.057333853954077,-0.19091503675350147,-0.015470697544515133,0.0030909478664398193,3.718284610071778,0.0009075403213500977
1745973037429315800,8.43131591796875,0.05975983954283247,-0.018096283078193665,0.0412390029127758,-0.020610645413398743,-0.06656502201366903,0.978439942821095,-0.12407173260933849,right,0.00169450044631958,-0.3892262271443061,0.541886534259282,-9.056945146897435,-0.19111161820741038,-0.0024650581181049347,0.0029909200966358185,3.7213556880801915,0.0009624660015106201
1745973037469315800,8.47131591796875,0.05878305966512828,-0.014207280240952969,0.04083068346398274,-0.02268454059958458,-0.06681831115991065,0.9784296199884972,-0.12477908048638871,right,-0.0017319321632385254,-0.38929653575844086,0.5330242690961807,-9.057208766269683,-0.19116408497291695,-0.001104805851355195,0.00121225044131279,3.7219936937227844,0.0025072991847991943
1745973037509315800,8.51131591796875,0.05798775906682319,-0.00048646703362464905,0.040476308043538134,-0.015515990555286407,-0.06689056495540159,0.978414515305619,-0.12507852972903083,right,0.0015018582344055176,-0.3895146610284194,0.5257738595765084,-9.056819474691151,-0.19129137184244793,0.0003528110682964325,0.0012706704437732697,3.7239725925803184,-0.0011157095432281494
1745973037549315600,8.551315673828125,0.05798775906682319,0.01176467165350914,0.040476308043538134,0.00016414746642112732,-0.06689056495540159,0.978414515305619,-0.12507852972903083,right,0.001393437385559082,-0.3895146610284194,0.5257738595765084,-9.056819474691151,-0.19129137184244793,0.0006516806315630674,0.0006972253322601318,3.7239725925803184,-0.0012063980102539062
1745973037589315800,8.59131591796875,0.05809775756615215,0.009518773294985294,0.04045748297642146,-0.0052353995852172375,-0.06652220740784077,0.978432772792119,-0.12430313734829283,right,-0.0004563331604003906,-0.3895699144558268,0.5267581213735044,-9.056555855318903,-0.19133044099736796,-0.006094326265156269,0.0019514374434947968,3.7244738201007244,0.0007904171943664551
1745973037629315800,8.63131591796875,0.05809775756615215,0.002579921390861273,0.04045748297642146,-0.0014189768116921186,-0.06652220740784077,0.978432772792119,-0.12430313734829283,right,0.0001728534698486328,-0.3895699144558268,0.5267581213735044,-9.056555855318903,-0.19133044099736796,-0.001651776023209095,0.0017668157815933228,3.7244738201007244,0.0012262463569641113
1745973037669315800,8.67131591796875,0.05809775756615215,-0.0016038930043578148,0.04045748297642146,0.0010001235641539097,-0.06652220740784077,0.978432772792119,-0.12430313734829283,right,-0.00013637542724609375,-0.3895699144558268,0.5267581213735044,-9.056555855318903,-0.19133044099736796,-0.005867110099643469,0.0015265010297298431,3.7244738201007244,0.001832723617553711
1745973037709315800,8.71131591796875,0.05796620115143244,-0.0022877496667206287,0.04036877818880166,-0.0049852896481752396,-0.06632584669929512,0.9784046569720938,-0.12392001420710189,right,0.00034862756729125977,-0.39001660934595445,0.5254702369874343,-9.054963617691397,-0.1915612255864323,-0.007763947360217571,0.0009958483278751373,3.728525725840032,0.001219719648361206
1745973037749315800,8.75131591796875,0.05796620115143244,0.0018368670716881752,0.04036877818880166,-0.0040481556206941605,-0.06632584669929512,0.9784046569720938,-0.12392001420710189,right,-0.0003808140754699707,-0.39001660934595445,0.5254702369874343,-9.054963617691397,-0.1915612255864323,-0.0038111875765025616,0.0006522275507450104,3.728525725840032,0.001346886157989502
1745973037789315600,8.791315673828125,0.05796620115143244,-0.002512909471988678,0.04036877818880166,-0.0041112517938017845,-0.06632584669929512,0.9784046569720938,-0.12392001420710189,right,0.0015434026718139648,-0.39001660934595445,0.5254702369874343,-9.054963617691397,-0.1915612255864323,-0.000515930587425828,0.0004483349621295929,3.728525725840032,0.000324934720993042
1745973037829315800,8.83131591796875,0.05796620115143244,-0.0052670505829155445,0.04036877818880166,0.004781886003911495,-0.06632584669929512,0.9784046569720938,-0.12392001420710189,right,0.0017902255058288574,-0.39001660934595445,0.5254702369874343,-9.054963617691397,-0.1915612255864323,0.007839737460017204,0.0006392262876033783,3.728525725840032,0.0008782148361206055
1745973037869315800,8.87131591796875,0.05796620115143244,-0.002376778982579708,0.04036877818880166,0.01566632091999054,-0.06632584669929512,0.9784046569720938,-0.12392001420710189,right,-0.0009873509407043457,-0.39001660934595445,0.5254702369874343,-9.054963617691397,-0.1915612255864323,-0.0028998618945479393,-0.00022843480110168457,3.728525725840032,0.0016570091247558594
1745973037909315800,8.91131591796875,0.058924707314880066,0.014040050096809864,0.040813696857146704,0.008386163972318172,-0.06625533125804246,0.9783668471548633,-0.12358299639847745,right,-0.0004892945289611816,-0.3903189956854266,0.534082801705785,-9.053329879009723,-0.19168433029720697,-0.010441282764077187,0.0012866891920566559,3.7312683025464413,0.0008862614631652832
1745973037949315800,8.95131591796875,0.05979076175621812,0.039441391825675964,0.04113415269547699,0.01650116592645645,-0.06578626882463863,0.978367415071287,-0.12245099100957797,right,0.001380622386932373,-0.39051389372175266,0.5418798122575507,-9.052137454354762,-0.19177434735926555,0.0016474081203341484,0.0004081539809703827,3.7330358967408537,0.000790715217590332
1745973037989315800,8.99131591796875,0.06143555556901305,0.049545690417289734,0.04171924782881241,0.023009583353996277,-0.06488446671229867,0.9784506838289813,-0.12029419482471104,right,-0.001374661922454834,-0.390033819254089,0.5568779498271644,-9.053021835973858,-0.19153026235287007,0.014731349423527718,0.00009569153189659119,3.7286817931845784,0.003968417644500732
1745973038029315600,9.031315673828125,0.06286130189178138,0.012299101799726486,0.04225870584442621,0.012108691036701202,-0.06429167533788638,0.9785301521132769,-0.11881590420512617,right,0.0004271864891052246,-0.38940102220057243,0.5699328078418969,-9.054571403503417,-0.1912054422447648,0.012489802204072475,-0.0000838451087474823,3.722941495966911,0.006379842758178711
1745973038069315800,9.07131591796875,0.06338276837251673,-0.006819862872362137,0.04250339829933377,0.00546621810644865,-0.06430552399551061,0.9785351111978493,-0.11874513769034314,right,0.0010093450546264648,-0.38925972731588737,0.5746876742187887,-9.054798197996616,-0.19112100078082844,0.006938389968127012,-0.0001604519784450531,3.7216596394628283,0.004841983318328857
1745973038109315800,9.11131591796875,0.06362006425998318,-0.012684939429163933,0.04267928549370669,0.023044396191835403,-0.06461911577429179,0.978499116824176,-0.11933729734602258,right,0.0037983059883117676,-0.38938237948695964,0.5768073332538828,-9.054206077322362,-0.19116077777986856,0.005088054109364748,0.0009882822632789612,3.722772276879847,-0.00003075599670410156
1745973038149315800,9.15131591796875,0.06408444497421979,-0.01726284623146057,0.04298074529449099,0.010894558392465115,-0.06505117818409828,0.9784693138355135,-0.12013092611650202,right,-0.0015586614608764648,-0.3893223196211998,0.5810261930579319,-9.054160484614968,-0.1910993189152765,0.009662071242928505,0.0006770007312297821,3.722227502478659,-0.0025671720504760742
1745973038189315800,9.19131591796875,0.06489118556070604,0.01061944104731083,0.043370190081835215,0.027602363377809525,-0.06515839230556646,0.9784940797486218,-0.12020193952517887,right,0.0016230344772338867,-0.38886562893446974,0.5884405244350434,-9.055383888930082,-0.19084791858739422,0.01847396045923233,0.0021104924380779266,3.718083534541726,-0.005429446697235107
1745973038229315800,9.23131591796875,0.06612008514358837,0.018138227984309196,0.0438961798353706,0.024226417765021324,-0.0649817544387846,0.9785585722985812,-0.11961706300482429,right,0.00017952919006347656,-0.3881213593161544,0.5997508768700063,-9.057412764409184,-0.19045629073878206,0.014029793441295624,0.0025519132614135742,3.711328799584508,-0.0028817355632781982
1745973038269315800,9.27131591796875,0.06774538096987101,0.02483208104968071,0.04457222939670722,0.028065811842679977,-0.06460336670879463,0.9786206601978733,-0.11854187973010265,right,-0.002572000026702881,-0.3874700876548804,0.6146345577470957,-9.058835490688681,-0.19010850938138388,0.007469236850738525,0.004399187862873077,3.705416360670328,-0.0016493797302246094
1745973038309315600,9.311315673828124,0.06862485112188026,0.004000594839453697,0.044934965223668105,0.0035322140902280807,-0.06439072817424572,0.9786617847031132,-0.11794623207269034,right,-0.0017414689064025879,-0.38704127623465673,0.6227101660445332,-9.059875939652324,-0.189883481788153,0.004247937351465225,0.004613623023033142,3.7015225681021806,0.00020876526832580566
1745973038349315800,9.35131591796875,0.06902976638578492,-0.000009682029485702515,0.04510949381219901,0.003779246471822262,-0.06433575523191207,0.9786814431075722,-0.1177607318004224,right,-0.00011795759201049805,-0.386806702449664,0.6264384658526628,-9.060489103114604,-0.18975973632736923,-0.00006897095590829849,0.0057508572936058044,3.699391985814273,0.0004936456680297852
1745973038389315800,9.39131591796875,0.06902976638578492,-0.0013436038279905915,0.04510949381219901,0.0014358859043568373,-0.06433575523191207,0.9786814431075722,-0.1177607318004224,right,-0.0014624595642089844,-0.386806702449664,0.6264384658526628,-9.060489103114604,-0.18975973632736923,-0.005098468158394098,0.004687018692493439,3.699391985814273,0.0000883638858795166
1745973038429315800,9.43131591796875,0.06968598674000988,0.00516017060726881,0.04541801718615257,-0.002187408274039626,-0.06429168246500812,0.9786403694194098,-0.1175353752990849,right,-0.002880096435546875,-0.38715196762068915,0.6322950829263776,-9.05880100389719,-0.18991281984833128,-0.00887984223663807,0.003928348422050476,3.702527653491497,-0.0001468360424041748
1745973038469315800,9.47131591796875,0.06968598674000988,0.009063123725354671,0.04541801718615257,-0.007388506084680557,-0.06429168246500812,0.9786403694194098,-0.1175353752990849,right,0.0018790960311889648,-0.38715196762068915,0.6322950829263776,-9.05880100389719,-0.18991281984833128,-0.009570371359586716,0.0020531192421913147,3.702527653491497,0.0011478662490844727
1745973038509315800,9.51131591796875,0.06982486821770903,0.012027651071548462,0.04539806965412374,-0.006312859244644642,-0.06382333112299535,0.9786455031009667,-0.11654561942712194,right,0.0022829771041870117,-0.3873932310432409,0.6334907955169677,-9.057821929731965,-0.19004899560177027,0.003938512876629829,0.0021995753049850464,3.704718441534042,0.0008457005023956299
1745973038549315600,9.551315673828125,0.06982486821770903,0.00937514379620552,0.04539806965412374,0.008171837776899338,-0.06382333112299535,0.9786455031009667,-0.11654561942712194,right,-0.000777900218963623,-0.3873932310432409,0.6334907955169677,-9.057821929731965,-0.19004899560177027,-0.0027580969035625458,0.0023060962557792664,3.704718441534042,0.002826869487762451
1745973038589315800,9.59131591796875,0.07058983300865801,0.0027462048456072807,0.04570118457099547,-0.0009227758273482323,-0.06351638376838335,0.9786421028465974,-0.11576712369249313,right,-0.0016897320747375488,-0.3875043411597742,0.6403904919028282,-9.056924104109406,-0.19009678157314908,-0.0027775766793638468,0.0025092586874961853,3.705727326315641,0.0035432279109954834
1745973038629315800,9.63131591796875,0.07058983300865801,-0.004646102897822857,0.04570118457099547,0.005859076511114836,-0.06351638376838335,0.9786421028465974,-0.11576712369249313,right,0.002352416515350342,-0.3875043411597742,0.6403904919028282,-9.056924104109406,-0.19009678157314908,0.004302154295146465,0.003175295889377594,3.705727326315641,0.0017361938953399658
1745973038669315800,9.67131591796875,0.07058983300865801,-0.003099912079051137,0.04570118457099547,0.0022173826582729816,-0.06351638376838335,0.9786421028465974,-0.11576712369249313,right,-0.00015538930892944336,-0.3875043411597742,0.6403904919028282,-9.056924104109406,-0.19009678157314908,0.006763881538063288,0.0014111027121543884,3.705727326315641,0.0008765161037445068
1745973038709315800,9.71131591796875,0.07058983300865801,0.005384169518947601,0.04570118457099547,-0.00605144863948226,-0.06351638376838335,0.9786421028465974,-0.11576712369249313,right,-0.0015369653701782227,-0.3875043411597742,0.6403904919028282,-9.056924104109406,-0.19009678157314908,-0.0014879428781569004,0.0027431920170783997,3.705727326315641,-0.0004266798496246338
1745973038749315800,9.75131591796875,0.07071401919246727,0.005094341933727264,0.04571785586603313,-0.0033054109662771225,-0.0633008419273022,0.9786537288792582,-0.11530244380353653,right,-0.0007125735282897949,-0.387507279293868,0.6415144544314593,-9.056833503216504,-0.190104900155931,-0.0023444939870387316,0.0026765093207359314,3.705753922061622,-0.0008136630058288574
1745973038789315600,9.791315673828125,0.07071401919246727,0.004804514814168215,0.04571785586603313,-0.0005593730602413416,-0.0633008419273022,0.9786537288792582,-0.11530244380353653,right,0.00012105703353881836,-0.387507279293868,0.6415144544314593,-9.056833503216504,-0.190104900155931,-0.0032010450959205627,0.0027244389057159424,3.705753922061622,-0.0011979639530181885
1745973038829315800,9.83131591796875,0.07071401919246727,0.0011321303900331259,0.04571785586603313,-0.00013181002577766776,-0.0633008419273022,0.9786537288792582,-0.11530244380353653,right,-0.0014451146125793457,-0.387507279293868,0.6415144544314593,-9.056833503216504,-0.190104900155931,-0.0007542904932051897,0.003285057842731476,3.705753922061622,0.0016463994979858398
1745973038869315800,9.87131591796875,0.07071401919246727,-0.004814322106540203,0.04571785586603313,-0.008698374032974243,-0.0633008419273022,0.9786537288792582,-0.11530244380353653,right,-0.0012379884719848633,-0.387507279293868,0.6415144544314593,-9.056833503216504,-0.190104900155931,-0.006132110022008419,0.003832310438156128,3.705753922061622,0.0010071098804473877
1745973038909315800,9.91131591796875,0.07071401919246727,0.00040170736610889435,0.04571785586603313,-0.0019078007899224758,-0.0633008419273022,0.9786537288792582,-0.11530244380353653,right,0.001182258129119873,-0.387507279293868,0.6415144544314593,-9.056833503216504,-0.190104900155931,-0.004409403540194035,0.0030564218759536743,3.705753922061622,-0.000378340482711792
1745973038949315800,9.95131591796875,0.07071401919246727,0.006039594765752554,0.04571785586603313,-0.006619528867304325,-0.0633008419273022,0.9786537288792582,-0.11530244380353653,right,0.0007260441780090332,-0.387507279293868,0.6415144544314593,-9.056833503216504,-0.190104900155931,-0.002754615154117346,0.0021046996116638184,3.705753922061622,0.0013038218021392822
1745973038989315800,9.99131591796875,0.07082213015771138,0.005254182033240795,0.04569298068585304,-0.005802861414849758,-0.0628508486421787,0.9786306880479053,-0.11434922271862168,right,0.0002136826515197754,-0.38802864388090225,0.6423568235397339,-9.054835607397555,-0.19037859314122385,-0.0033647597301751375,0.0032120496034622192,3.710487088063359,0.0017701685428619385
1745973039029315600,10.031315673828125,0.07082213015771138,0.0004859752953052521,0.04569298068585304,0.00007997732609510422,-0.0628508486421787,0.9786306880479053,-0.11434922271862168,right,0.002245187759399414,-0.38802864388090225,0.6423568235397339,-9.054835607397555,-0.19037859314122385,0.0034559390041977167,0.003428526222705841,3.710487088063359,0.003111928701400757
1745973039069315800,10.07131591796875,0.07082213015771138,0.00011092526256106794,0.04569298068585304,0.00001825505751185119,-0.0628508486421787,0.9786306880479053,-0.11434922271862168,right,-0.00022667646408081055,-0.38802864388090225,0.6423568235397339,-9.054835607397555,-0.19037859314122385,0.0007888281252235174,0.0020013004541397095,3.710487088063359,0.0017156600952148438
1745973039109315800,10.11131591796875,0.07082213015771138,0.00025197723880410194,0.04569298068585304,-0.010594796389341354,-0.0628508486421787,0.9786306880479053,-0.11434922271862168,right,-0.0006505846977233887,-0.38802864388090225,0.6423568235397339,-9.054835607397555,-0.19037859314122385,0.002143555087968707,0.0008860677480697632,3.710487088063359,0.0012255311012268066
1745973039149315800,10.15131591796875,0.07082213015771138,0.004265636671334505,0.04569298068585304,-0.012324693612754345,-0.0628508486421787,0.9786306880479053,-0.11434922271862168,right,-0.0014711618423461914,-0.38802864388090225,0.6423568235397339,-9.054835607397555,-0.19037859314122385,0.004516027867794037,0.0011369511485099792,3.710487088063359,0.000683903694152832
1745973039189315800,10.19131591796875,0.07031685366390499,-0.001401357352733612,0.04538326573812748,-0.004430553875863552,-0.06251190479685238,0.9786863317415444,-0.11376120108245734,right,0.0017845630645751953,-0.38776333694027343,0.6378506712269038,-9.056140844777225,-0.1902779037010107,0.002785290591418743,0.0005798935890197754,3.7080785656169053,0.00025898218154907227
1745973039229315800,10.23131591796875,0.07031685366390499,-0.005615155678242445,0.04538326573812748,-0.006341289728879929,-0.06251190479685238,0.9786863317415444,-0.11376120108245734,right,-0.0006342530250549316,-0.38776333694027343,0.6378506712269038,-9.056140844777225,-0.1902779037010107,0.0015060496516525745,0.0018593594431877136,3.7080785656169053,-0.000023573637008666992
1745973039269315800,10.27131591796875,0.06975376405336493,-0.010148086585104465,0.04515306746071369,0.002893202006816864,-0.06268946480078524,0.9786825734069213,-0.11423310784050893,right,-0.0007929205894470215,-0.3877816423427785,0.6327464068904519,-9.056430767634511,-0.1902938036760446,-0.013976255431771278,0.0012127235531806946,3.708244862094521,-0.0003039240837097168
1745973039309315600,10.311315673828124,0.06975376405336493,-0.0019274922087788582,0.04515306746071369,0.003942325711250305,-0.06268946480078524,0.9786825734069213,-0.11423310784050893,right,0.0031195878982543945,-0.3877816423427785,0.6327464068904519,-9.056430767634511,-0.1902938036760446,-0.02038879506289959,0.0028002187609672546,3.708244862094521,-0.0031787455081939697
1745973039349315800,10.35131591796875,0.07049516242647814,0.0030093761160969734,0.04551713903863215,0.00539215886965394,-0.06268432359267984,0.978601314263522,-0.11406117430158963,right,0.00028318166732788086,-0.3884996782713149,0.6392729591149836,-9.053300652915238,-0.1906261002339731,-0.019129155203700066,0.0026092305779457092,3.7147625734254714,-0.00015813112258911133
1745973039389315800,10.39131591796875,0.07123693936117308,0.007946244440972805,0.04588121640219231,0.006841992028057575,-0.06267919984429655,0.9785198874392714,-0.11388868847913412,right,-0.002554178237915039,-0.38921772382445463,0.6457982692304999,-9.050161185845733,-0.19095839209749574,-0.01786951534450054,0.0024183467030525208,3.7212785311907526,0.0028626620769500732
1745973039429315800,10.43131591796875,0.07157869767188477,-0.021375637501478195,0.04608543749406847,-0.0036361441016197205,-0.06281257864757726,0.9784297031904419,-0.11407537425438631,right,-0.0040659308433532715,-0.3900012769732753,0.648682519429922,-9.047028733038902,-0.1913270338441071,-0.015897467732429504,0.002560749650001526,3.7283866096302867,0.009856551885604858
1745973039469315800,10.47131591796875,0.07073794224684649,-0.037110842764377594,0.04582058216560761,-0.014872684143483639,-0.06342819586744883,0.9783597305874656,-0.11548719820494129,right,0.0014336705207824707,-0.3904594628122264,0.6409551400482654,-9.045866119000316,-0.19154544635135867,0.005562903359532356,0.002600260078907013,3.7325422680050133,0.00451737642288208
1745973039509315800,10.51131591796875,0.07005495919967507,-0.02835973910987377,0.045640764981688946,0.0033121490851044655,-0.06416050795395525,0.9783313168460005,-0.11711989042835541,right,0.0007184147834777832,-0.39037712989947726,0.6347982979189604,-9.046607877278328,-0.19148959210351826,0.01029936969280243,0.0018729791045188904,3.7317955412909387,-0.0003100931644439697
1745973039549315600,10.551315673828125,0.06987454213543581,-0.006772872060537338,0.0456162158670425,0.002146836370229721,-0.06451144386096419,0.9783460773440855,-0.11788100446327635,right,0.0003198981285095215,-0.3900175988924543,0.6332597632400692,-9.048060414174198,-0.19130201735842278,0.006511447485536337,0.0031564906239509583,3.728534785929322,-0.0008652210235595703
1745973039589315800,10.59131591796875,0.06987454213543581,0.01767548732459545,0.0456162158670425,0.006031774915754795,-0.06451144386096419,0.9783460773440855,-0.11788100446327635,right,0.001743912696838379,-0.3900175988924543,0.6332597632400692,-9.048060414174198,-0.19130201735842278,0.004412376321852207,0.003076225519180298,3.728534785929322,-0.008257865905761719
1745973039629315800,10.63131591796875,0.07066838698044395,0.029557712376117706,0.04586932980210455,0.00255681318230927,-0.06395126673428686,0.9784155087993931,-0.11659192913803293,right,0.002516031265258789,-0.3895435308995541,0.6405670175135135,-9.049316551715135,-0.19107392323078262,0.0048955632373690605,0.002012908458709717,3.724234458386898,-0.0047331154346466064
1745973039669315800,10.67131591796875,0.07106676393828976,0.01290440559387207,0.04599731617481862,0.004717912524938583,-0.06369845795115361,0.978468425856249,-0.11600809887374201,right,0.0009934306144714355,-0.38909840011614377,0.6442896912984549,-9.050713559031486,-0.1908566677885802,0.0010227048769593239,0.003546200692653656,3.7201957043901084,-0.001835554838180542
1745973039709315800,10.71131591796875,0.07146476632846775,-0.0037489011883735657,0.046125298944355186,0.0068790121003985405,-0.06344570418302495,0.9785212215173967,-0.11542470156785005,right,-0.0005294680595397949,-0.38865308158572104,0.6480101000610738,-9.052108228260279,-0.19063939608068534,-0.0028501530177891254,0.0050797238945961,3.716154904566705,0.0010622739791870117
1745973039749315800,10.75131591796875,0.07146476632846775,-0.009602012112736702,0.046125298944355186,-0.0029694437980651855,-0.06344570418302495,0.9785212215173967,-0.11542470156785005,right,-0.00035005807876586914,-0.38865308158572104,0.6480101000610738,-9.052108228260279,-0.19063939608068534,-0.013831809163093567,0.003310658037662506,3.716154904566705,0.0012486279010772705
1745973039789315600,10.791315673828125,0.07131979443235038,-0.004101318772882223,0.04611321266359435,-0.011418204754590988,-0.0636367378546747,0.978430387738762,-0.1158231016100518,right,-0.0019411444664001465,-0.38949004773978146,0.6464759492963552,-9.049096186962723,-0.19104461700947456,-0.014500780031085014,0.002060309052467346,3.723749305218458,0.00014257431030273438
1745973039829315800,10.83131591796875,0.07131979443235038,0.010465875267982483,0.04611321266359435,-0.009023342281579971,-0.0636367378546747,0.978430387738762,-0.1158231016100518,right,-0.0009455680847167969,-0.38949004773978146,0.6464759492963552,-9.049096186962723,-0.19104461700947456,-0.0021477825939655304,0.0012841001152992249,3.723749305218458,-0.0009684264659881592
1745973039869315800,10.87131591796875,0.07081514039926384,0.014897843822836876,0.04578986051197781,-0.006964446045458317,-0.06317996508199328,0.9784541430429033,-0.11498441935067968,right,0.002395451068878174,-0.3896377770213402,0.6418702090665698,-9.048872899600862,-0.1911522200389516,0.005097672808915377,0.0008850470185279846,3.7250893216505645,0.0017423927783966064
1745973039909315800,10.91131591796875,0.07081514039926384,0.00411633588373661,0.04578986051197781,-0.0024066483601927757,-0.06317996508199328,0.9784541430429033,-0.11498441935067968,right,0.0009293556213378906,-0.3896377770213402,0.6418702090665698,-9.048872899600862,-0.1911522200389516,0.0015522441826760769,0.00004232674837112427,3.7250893216505645,0.0006640255451202393
1745973039949315800,10.95131591796875,0.07081514039926384,-0.00552983395755291,0.04578986051197781,0.00401440542191267,-0.06317996508199328,0.9784541430429033,-0.11498441935067968,right,-0.0017088055610656738,-0.3896377770213402,0.6418702090665698,-9.048872899600862,-0.1911522200389516,-0.010591097176074982,0.0006773918867111206,3.7250893216505645,0.0020644068717956543
1745973039989315800,10.99131591796875,0.07081514039926384,-0.004830269608646631,0.04578986051197781,-0.012300987727940083,-0.06317996508199328,0.9784541430429033,-0.11498441935067968,right,0.0011851787567138672,-0.3896377770213402,0.6418702090665698,-9.048872899600862,-0.1911522200389516,-0.010051708668470383,0.0009723007678985596,3.7250893216505645,0.002957284450531006
1745973040029315600,11.031315673828125,0.07006724735658668,-0.005085786804556847,0.045443539535012276,-0.007356599904596806,-0.06312094977604886,0.9783966399549059,-0.11499188118261407,right,0.002714872360229492,-0.39039870798103243,0.6349038041200489,-9.046520198994875,-0.19154822260141047,-0.002742147073149681,0.0022516176104545593,3.7319910638630387,0.0006909072399139404
1745973040069315800,11.07131591796875,0.07006724735658668,-0.0028521025087684393,0.045443539535012276,-0.0010965727269649506,-0.06312094977604886,0.9783966399549059,-0.11499188118261407,right,-0.0002461075782775879,-0.39039870798103243,0.6349038041200489,-9.046520198994875,-0.19154822260141047,0.004036083351820707,0.0020034685730934143,3.7319910638630387,0.00010254979133605957
1745973040109315800,11.11131591796875,0.07006724735658668,-0.0009087766520678997,0.045443539535012276,-0.00279298797249794,-0.06312094977604886,0.9783966399549059,-0.11499188118261407,right,-0.00044155120849609375,-0.39039870798103243,0.6349038041200489,-9.046520198994875,-0.19154822260141047,-0.0034261257387697697,0.002728573977947235,3.7319910638630387,-0.00029963254928588867
1745973040149315800,11.15131591796875,0.07006724735658668,-0.011593325063586235,0.045443539535012276,-0.01306712906807661,-0.06312094977604886,0.9783966399549059,-0.11499188118261407,right,-0.0006424188613891602,-0.39039870798103243,0.6349038041200489,-9.046520198994875,-0.19154822260141047,-0.01017437782138586,0.0010202452540397644,3.7319910638630387,-0.000023424625396728516
1745973040189315800,11.19131591796875,0.06873019265843042,-0.0072524636052548885,0.04488283696986215,-0.009075917303562164,-0.0634063925904351,0.9783473327860672,-0.11582469546168915,right,0.0012693405151367188,-0.39094250298395955,0.622668153533712,-9.04533478860259,-0.19183793195820528,-0.004009255673736334,0.002452366054058075,3.736922090524435,-0.0010135769844055176
1745973040229315800,11.23131591796875,0.06873019265843042,-0.006391878705471754,0.04488283696986215,0.0022701984271407127,-0.0634063925904351,0.9783473327860672,-0.11582469546168915,right,-0.0014567375183105469,-0.39094250298395955,0.622668153533712,-9.04533478860259,-0.19183793195820528,-0.0063328817486763,0.0009280592203140259,3.736922090524435,-0.0003472268581390381
1745973040269315800,11.27131591796875,0.06816739545679822,-0.007104832213371992,0.044686254586272345,0.0002624641638249159,-0.06366157555818766,0.9782634751589271,-0.11643900454128325,right,0.002101302146911621,-0.391727574014148,0.6173772805839777,-9.042754124459623,-0.19222638412453807,-0.008441545069217682,0.002776399254798889,3.7440389367923137,-0.0026970505714416504
1745973040309315600,11.311315673828124,0.06760389556075147,-0.007817785255610943,0.04448966499632398,-0.0017452698666602373,-0.0639167471602414,0.978179319725366,-0.11705399485702438,right,0.00565868616104126,-0.3925123463838747,0.6120829370355233,-9.040165861532092,-0.19261480375948598,-0.010550208389759064,0.004625096917152405,3.7511508146241304,-0.005046367645263672
1745973040349315800,11.35131591796875,0.06760389556075147,0.010938524268567562,0.04448966499632398,0.007214261218905449,-0.0639167471602414,0.978179319725366,-0.11705399485702438,right,0.000947117805480957,-0.3925123463838747,0.6120829370355233,-9.040165861532092,-0.19261480375948598,-0.004094033967703581,0.003060750663280487,3.7511508146241304,-0.001269012689590454
1745973040389315800,11.39131591796875,0.0684430904333483,0.016851454973220825,0.04480837285704655,-0.005209474824368954,-0.06348335146687986,0.9781535577646826,-0.11599320255526786,right,-0.00211179256439209,-0.3929282391418083,0.6195624426033347,-9.038091977867484,-0.19281531096364507,-0.006220705341547728,0.0035008788108825684,3.7549189349859953,0.002513110637664795
1745973040429315800,11.43131591796875,0.06852893624961025,0.01191706582903862,0.04478480463074578,-0.005768264178186655,-0.06312402922051173,0.9781456786129926,-0.11523464829435219,right,0.0017453432083129883,-0.3932328527504034,0.6202599964134394,-9.036897215124965,-0.19297867976012478,-0.00485337246209383,0.0046201348304748535,3.7576784628272053,0.0023815035820007324
1745973040469315800,11.47131591796875,0.06852893624961025,0.0016111275181174278,0.04478480463074578,0.0010815253481268883,-0.06312402922051173,0.9781456786129926,-0.11523464829435219,right,0.0017399191856384277,-0.3932328527504034,0.6202599964134394,-9.036897215124965,-0.19297867976012478,-0.005118069238960743,0.005669534206390381,3.7576784628272053,0.0046235620975494385
1745973040509315800,11.51131591796875,0.06852893624961025,-0.003650616854429245,0.04478480463074578,-0.005294242408126593,-0.06312402922051173,0.9781456786129926,-0.11523464829435219,right,-0.0004506111145019531,-0.3932328527504034,0.6202599964134394,-9.036897215124965,-0.19297867976012478,-0.003183743916451931,0.003019370138645172,3.7576784628272053,0.00250244140625
1745973040549315600,11.551315673828125,0.06852893624961025,0.002659065183252096,0.04478480463074578,-0.012577725574374199,-0.06312402922051173,0.9781456786129926,-0.11523464829435219,right,-0.0022499561309814453,-0.3932328527504034,0.6202599964134394,-9.036897215124965,-0.19297867976012478,0.0038597164675593376,0.0009194537997245789,3.7576784628272053,0.00105363130569458
1745973040589315800,11.59131591796875,0.06804969650313798,0.008533094078302383,0.04450765704380365,-0.01418857742100954,-0.06282578728187342,0.9781425068198842,-0.11471244004206108,right,0.0012648701667785645,-0.39354085060607413,0.6158503632776439,-9.036038552469014,-0.19315617608662422,0.004337819758802652,0.0006027445197105408,3.7604680935457346,-0.00026148557662963867
1745973040629315800,11.63131591796875,0.06750016472734714,0.012190153822302818,0.044175059621026996,-0.01173849031329155,-0.0624922830283612,0.9782093953352025,-0.11414747466096017,right,0.0020836591720581055,-0.39316526220882053,0.6109798711644485,-9.037784519353508,-0.19300207427029073,0.009079672396183014,0.001984376460313797,3.7570661761477586,0.002963244915008545
1745973040669315800,11.67131591796875,0.06750016472734714,0.00544428126886487,0.044175059621026996,-0.001841067336499691,-0.0624922830283612,0.9782093953352025,-0.11414747466096017,right,-0.002102792263031006,-0.39316526220882053,0.6109798711644485,-9.037784519353508,-0.19300207427029073,-0.004758160561323166,0.0009345225989818573,3.7570661761477586,0.0030884146690368652
1745973040709315800,11.71131591796875,0.06763348849050617,0.006457620300352573,0.044191337821731604,0.0038250829093158245,-0.06225199689581331,0.978218148252986,-0.11362887157497363,right,0.000009894371032714844,-0.3932107106884445,0.612173282200098,-9.037532590419053,-0.19303162000958202,0.002030064817517996,0.001312393695116043,3.757477679558098,0.0012989044189453125
1745973040749315800,11.75131591796875,0.06763348849050617,0.007470959797501564,0.044191337821731604,0.00949123315513134,-0.06225199689581331,0.978218148252986,-0.11362887157497363,right,0.0021483302116394043,-0.3932107106884445,0.612173282200098,-9.037532590419053,-0.19303162000958202,0.008818291127681732,0.0018119625747203827,3.757477679558098,-0.00044858455657958984
1745973040789315600,11.791315673828125,0.06815553533678312,0.0018083015456795692,0.044377294841041665,0.0006337063387036324,-0.061962115458307175,0.9782380513334632,-0.11293549474710113,right,-0.0014470815658569336,-0.3931095525381679,0.6169171157263219,-9.037590458086132,-0.19298124984774082,-0.0014976989477872849,0.000629521906375885,3.7565614414960145,0.0006320178508758545
1745973040829315800,11.83131591796875,0.06815553533678312,-0.0006589535623788834,0.044377294841041665,-0.0025322316214442253,-0.061962115458307175,0.9782380513334632,-0.11293549474710113,right,-0.0005611181259155273,-0.3931095525381679,0.6169171157263219,-9.037590458086132,-0.19298124984774082,-0.008178262040019035,0.002366200089454651,3.7565614414960145,0.0010476410388946533
1745973040869315800,11.87131591796875,0.06815553533678312,0.00012012588558718562,0.044377294841041665,0.0007089809514582157,-0.061962115458307175,0.9782380513334632,-0.11293549474710113,right,0.0009735822677612305,-0.3931095525381679,0.6169171157263219,-9.037590458086132,-0.19298124984774082,-0.004136204719543457,0.0022106915712356567,3.7565614414960145,-0.00012770295143127441
1745973040909315800,11.91131591796875,0.06815553533678312,0.0008992053335532546,0.044377294841041665,0.003950193524360657,-0.061962115458307175,0.9782380513334632,-0.11293549474710113,right,0.0025082826614379883,-0.3931095525381679,0.6169171157263219,-9.037590458086132,-0.19298124984774082,-0.00009414739906787872,0.0020551756024360657,3.7565614414960145,-0.0013030469417572021
1745973040949315800,11.95131591796875,0.06815553533678312,-0.01109448354691267,0.044377294841041665,0.007638918235898018,-0.061962115458307175,0.9782380513334632,-0.11293549474710113,right,-0.0019249320030212402,-0.3931095525381679,0.6169171157263219,-9.037590458086132,-0.19298124984774082,0.0026871166191995144,0.0006905049085617065,3.7565614414960145,0.003838270902633667
1745973040989315800,11.99131591796875,0.06818416796655886,-0.010666375048458576,0.044493318881623015,0.008675333112478256,-0.06244587789117864,0.9781756638615979,-0.11391165423018393,right,0.000050008296966552734,-0.3934283366269019,0.617094225858897,-9.036377575165032,-0.19311471318063966,0.0010695129167288542,0.0015979781746864319,3.759448979631066,0.0018346607685089111
1745973041029315600,12.031315673828125,0.0682124694527452,-0.010238266550004482,0.044609329930203515,0.009711747989058495,-0.06292962022849048,0.9781130624237375,-0.11488793311843049,right,0.0020247697830200195,-0.39374721772280075,0.6172682672515512,-9.035164107722043,-0.19324814867656168,-0.0005480906693264842,0.002505779266357422,3.7623371022880074,-0.00016897916793823242
1745973041069315800,12.07131591796875,0.0682124694527452,-0.0047162799164652824,0.044609329930203515,0.016159191727638245,-0.06292962022849048,0.9781130624237375,-0.11488793311843049,right,0.00016826391220092773,-0.39374721772280075,0.6172682672515512,-9.035164107722043,-0.19324814867656168,-0.00023694170522503555,0.0024470239877700806,3.7623371022880074,0.0006353259086608887
1745973041109315800,12.11131591796875,0.06937065029139801,-0.005221680738031864,0.04521719876835442,0.014373685233294964,-0.06324320721002741,0.9780669399904005,-0.11529867735569922,right,-0.00036400556564331055,-0.39381855240206987,0.6277136003550142,-9.034175096684693,-0.19323732948600467,0.0022705262526869774,0.0026954934000968933,3.762982998976111,0.0008705258369445801
1745973041149315800,12.15131591796875,0.06988958901880359,-0.0041662538424134254,0.04549294619199443,0.008641139604151249,-0.0634198614262127,0.978060078730087,-0.1155605249743851,right,-0.0010235309600830078,-0.39368499345920527,0.6324367564193905,-9.03434928420782,-0.19314958531452797,0.004687486682087183,0.0028313547372817993,3.7617736231863494,0.0003300011157989502
1745973041189315800,12.19131591796875,0.06988958901880359,0.0018966780044138432,0.04549294619199443,0.003177423495799303,-0.0634198614262127,0.978060078730087,-0.1155605249743851,right,-0.002256035804748535,-0.39368499345920527,0.6324367564193905,-9.03434928420782,-0.19314958531452797,-0.0011768457479774952,0.0033373236656188965,3.7617736231863494,-0.0009129047393798828
1745973041229315800,12.23131591796875,0.07022071714852976,0.006818933412432671,0.0456279518141777,-0.008484140038490295,-0.06330315308280622,0.9780516131063599,-0.11525392845007178,right,-0.003049135208129883,-0.39379330949213326,0.6353996978782117,-9.03373319813609,-0.19319908388484322,-0.0013487751130014658,0.0032206252217292786,3.7627544509172437,-0.001694411039352417
1745973041269315800,12.27131591796875,0.07022071714852976,0.006182941608130932,0.0456279518141777,-0.008758981712162495,-0.06330315308280622,0.9780516131063599,-0.11525392845007178,right,0.001552879810333252,-0.39379330949213326,0.6353996978782117,-9.03373319813609,-0.19319908388484322,-0.0003776843077503145,0.0025655701756477356,3.7627544509172437,-0.0007278621196746826
1745973041309315800,12.31131591796875,0.06971370025695005,0.0019265003502368927,0.04533763879022217,-0.011949696578085423,-0.06306192168855071,0.9780946758631672,-0.11486537759745256,right,0.0011264681816101074,-0.39359803278996314,0.6308705300159752,-9.034786506581305,-0.1931283607868302,0.012462621554732323,0.0028587430715560913,3.760985979939997,-0.0017542839050292969
1745973041349315800,12.35131591796875,0.06971370025695005,-0.0008526195306330919,0.04533763879022217,0.0036630751565098763,-0.06306192168855071,0.9780946758631672,-0.11486537759745256,right,-0.0037661194801330566,-0.39359803278996314,0.6308705300159752,-9.034786506581305,-0.1931283607868302,-0.00012193992733955383,0.0022970810532569885,3.760985979939997,0.0001348555088043213
1745973041389315800,12.39131591796875,0.06971370025695005,0.00019518670160323381,0.04533763879022217,-0.0069645484909415245,-0.06306192168855071,0.9780946758631672,-0.11486537759745256,right,-0.0015024542808532715,-0.39359803278996314,0.6308705300159752,-9.034786506581305,-0.1931283607868302,-0.015151364728808403,0.002383016049861908,3.760985979939997,0.0014280378818511963
1745973041429315800,12.43131591796875,0.06955421525338217,0.004202242940664291,0.04525628189853206,-0.0023345649242401123,-0.06294539975172633,0.9780323290278518,-0.11464131818248086,right,0.002271413803100586,-0.39433871253394226,0.6292358414862305,-9.032105889195202,-0.19350095999405503,-0.013541974127292633,0.004062958061695099,3.7676930763632055,-0.0016469955444335938
1745973041469315800,12.47131591796875,0.06942274267961436,0.003554067574441433,0.04517279246076303,-0.006201765965670347,-0.06279687354898154,0.9780103804529227,-0.1143556106632899,right,0.0011819005012512207,-0.3946819208415524,0.6279585880920291,-9.03089826697111,-0.19367952052253484,-0.014080768451094627,0.00424513965845108,3.7708003947287794,0.0001310408115386963
1745973041509315800,12.51131591796875,0.06942274267961436,0.0029058922082185745,0.04517279246076303,-0.010068967007100582,-0.06279687354898154,0.9780103804529227,-0.1143556106632899,right,0.0002154707908630371,-0.3946819208415524,0.6279585880920291,-9.03089826697111,-0.19367952052253484,-0.014619563706219196,0.004297070205211639,3.7708003947287794,0.0022258758544921875
1745973041549315600,12.551315673828125,0.06865975366776238,-0.037298038601875305,0.044826721243159305,-0.03653285279870033,-0.06273336870790862,0.9779174507620951,-0.11435134492572206,right,-0.002377331256866455,-0.39579614243933725,0.6207792710471898,-9.027177200621367,-0.19424882987486747,-0.025356922298669815,0.0033303722739219666,3.7808845663696524,0.004339665174484253
1745973041589315800,12.59131591796875,0.06404793051794479,-0.040738847106695175,0.04299038322575297,-0.04457249119877815,-0.06421473090052,0.9777474883161185,-0.11826738795568736,right,-0.003405928611755371,-0.3972774048521234,0.5787820308603346,-9.024345192065834,-0.1950339932882157,-0.009815548546612263,0.001937955617904663,3.794283853907883,-0.0006457269191741943
1745973041629315800,12.63131591796875,0.05942700088717179,-0.044179655611515045,0.04115378435877086,-0.05261212959885597,-0.0656956780027522,0.9775713383159923,-0.12219317477561198,right,-0.004449605941772461,-0.39874193429430127,0.5367444951957091,-9.021366468515991,-0.1958179483457914,0.00572582520544529,0.0005496591329574585,3.807523274709284,-0.00561484694480896
1745973041669315800,12.67131591796875,0.057215613678692365,-0.029557446017861366,0.04021879475225581,-0.06416065245866776,-0.06623845233817519,0.9775888698143634,-0.12375051022374688,right,-0.007197260856628418,-0.39850194435096664,0.5168456895703449,-9.023443274790049,-0.1957418172493646,0.006820171605795622,-0.0014402084052562714,3.805354406237602,0.0030889511108398438
1745973041709315800,12.71131591796875,0.05552844830766078,-0.01939358003437519,0.039469506690853313,-0.024360239505767822,-0.06648311816182159,0.9776198542907554,-0.12459277264113587,right,0.0031595230102539062,-0.3982480907528244,0.501674533521384,-9.02526698308587,-0.195656837793178,0.003497979138046503,0.002539660781621933,3.8030598655596375,0.005097806453704834
1745973041749315800,12.75131591796875,0.05493789730448428,-0.025448190048336983,0.03925699716493257,-0.005772508680820465,-0.06684566671000383,0.9776325611017057,-0.12545711900978868,right,0.0007587671279907227,-0.39794813845780463,0.4964071875777095,-9.026700230759381,-0.19551277707217127,0.00820162147283554,0.0010751746594905853,3.8003482685133814,0.004082083702087402
1745973041789315600,12.791315673828125,0.05454070954973917,-0.022119535133242607,0.03916669655453165,0.0003266306594014168,-0.06737030907781832,0.9776341785763856,-0.1266146262212391,right,0.0006901025772094727,-0.3976195304141206,0.4928899001717567,-9.028143415305017,-0.1953426684623315,0.011966321617364883,0.0008040778338909149,3.7973774360090493,-0.0010944902896881104
1745973041829315800,12.83131591796875,0.05454070954973917,0.009185845032334328,0.03916669655453165,0.0066929166205227375,-0.06737030907781832,0.9776341785763856,-0.1266146262212391,right,0.0034177303314208984,-0.3976195304141206,0.4928899001717567,-9.028143415305017,-0.1953426684623315,0.014099921099841595,-0.0008086636662483215,3.7973774360090493,-0.006500035524368286
1745973041869315800,12.87131591796875,0.055664719693288026,0.025292718783020973,0.03962575664257521,0.017210643738508224,-0.0671432676616862,0.9777208393071521,-0.12593872132243755,right,-0.0017594695091247559,-0.3967522998812081,0.5032203381912782,-9.030868456354737,-0.19489395289171624,0.013182589784264565,-0.00012928619980812073,3.7895346135541796,-0.004661649465560913
1745973041909315800,12.91131591796875,0.05646317750334455,0.021641036495566368,0.039877638639336556,0.0010126717388629913,-0.06658392811681813,0.9777915868423798,-0.12464226761920501,right,-0.004364967346191406,-0.3963152416983275,0.5105243775943293,-9.032116410589218,-0.19467921624027174,0.0017075072973966599,-0.0008404180407524109,3.785581199753284,-0.0002676844596862793
1745973041949315800,12.95131591796875,0.05671509382975635,0.003695731982588768,0.039913256016198974,-0.001452253432944417,-0.0661949539224268,0.9778344784392266,-0.12379971019405521,right,0.0022407174110412598,-0.39611456921908017,0.5128427375392988,-9.03274594066441,-0.19458946746288455,-0.004527256358414888,0.00018711015582084656,3.783765674763918,0.0032144486904144287
1745973041989315800,12.99131591796875,0.05671509382975635,-0.009899009950459003,0.039913256016198974,-0.004664483480155468,-0.0661949539224268,0.9778344784392266,-0.12379971019405521,right,0.0014131665229797363,-0.39611456921908017,0.5128427375392988,-9.03274594066441,-0.19458946746288455,-0.002682292368263006,0.0033170171082019806,3.783765674763918,0.003631502389907837
1745973042029315600,13.031315673828125,0.056436853113027714,-0.012860691174864769,0.0398768982901009,0.009661324322223663,-0.06659063283864045,0.9777528341196904,-0.12465507099871899,right,-0.00040912628173828125,-0.3967075217532311,0.5102028174897656,-9.030646338036656,-0.19487174810012906,-0.007560793776065111,0.0005316734313964844,3.7891298321455715,-0.00012543797492980957
1745973042069315800,13.07131591796875,0.056436853113027714,-0.004322823137044907,0.0398768982901009,0.00894901156425476,-0.06659063283864045,0.9777528341196904,-0.12465507099871899,right,-0.00009769201278686523,-0.3967075217532311,0.5102028174897656,-9.030646338036656,-0.19487174810012906,-0.004869704134762287,0.0022676773369312286,3.7891298321455715,0.0009989142417907715
