time,seconds_elapsed,roll,rotationRateZ,quaternionY,rotationRateY,quaternionZ,quaternionW,yaw,devicelocation,accelerationZ,pitch,gravityX,gravityZ,quaternionX,rotationRateX,accelerationX,gravityY,accelerationY
1745972867644468500,0.456468505859375,-0.2756345604803805,-0.07695861160755157,-0.13047000240308068,0.05719355493783951,-1.3799853801343356e-17,0.9744208232955126,-0.05112880864489127,right,-0.025920510292053223,-0.3646241166344986,-2.4934914709478617,-8.816101085558532,-0.18297953982532694,0.007229829207062721,0.31160473823547363,3.4970331379532813,0.0021865367889404297
1745972867684468700,0.49646875,0.055129112717105064,-0.0828094631433487,0.015069878653746894,0.04629278928041458,0.058085429524190706,0.9804954751566051,0.1287745359254443,right,-0.010182976722717285,-0.37391298308886395,0.5030225140642375,-9.115192753204703,-0.18715614983321532,0.032598137855529785,0.0014471113681793213,3.5819849190518256,-0.011170268058776855
1745972867724468700,0.53646875,0.06204170411783891,-0.05253532901406288,0.01852145219188162,-0.013479836285114288,0.05797857965143426,0.9808019991669288,0.12969151425175443,right,-0.013967573642730713,-0.3696263453772258,0.5669663957843557,-9.126738814091683,-0.185264066344422,0.006039797328412533,-0.008502047508955002,3.542819322094321,-0.009277284145355225
1745972867764468700,0.57646875,0.059625871829184836,-0.0257248654961586,0.017553657491129325,-0.047204963862895966,0.057644816781610646,0.9811248465748649,0.12843230961133376,right,-0.006599247455596924,-0.36669662552044746,0.5455322703504935,-9.138404117444157,-0.18374694830205254,-0.025145482271909714,-0.0045957788825035095,3.516013732755184,-0.005868196487426758
1745972867804468700,0.61646875,0.05586871532157929,-0.00985051691532135,0.015928600988192362,-0.014286503195762634,0.05750132616486029,0.981491992794126,0.12730211498886862,right,0.006172001361846924,-0.36331361952495905,0.5118553704697638,-9.152212862566113,-0.18197057824991145,-0.028468981385231018,0.0032792165875434875,3.485023258946836,0.0043048858642578125
1745972867844468500,0.656468505859375,0.05490080489641276,-0.04156356677412987,0.015590059134978573,0.002933032810688019,0.057102713530531715,0.9816406947155296,0.12626169610551102,right,0.0054128170013427734,-0.36206496941010824,0.5032349877711385,-9.157042182418703,-0.18132222432584652,-0.010808488354086876,0.0029194094240665436,3.4735748132154343,0.012463897466659546
1745972867884468500,0.696468505859375,0.05384805066102642,-0.14152131974697113,0.01541568048737585,-0.0273770522326231,0.05516650265442545,0.9816825303097733,0.1221575472909716,right,-0.0036745071411132812,-0.3629793884638704,0.4934234590591863,-9.154390791127085,-0.18170941886329528,-0.015367139130830765,0.0016686469316482544,3.4819594874620434,0.017119109630584717
1745972867924021800,0.736021728515625,0.050839851363342806,-0.1850852221250534,0.014540099229531402,-0.04954853281378746,0.051566550932476495,0.9816047081393272,0.11439095122474871,right,-0.00491418968886137,-0.3664076078984761,0.46527368856947865,-9.143858875718712,-0.18325267949331508,-0.03581596165895462,-0.003095981664955616,3.5133676021605726,0.009893061593174934
1745972867964021800,0.776021728515625,0.04832416541814933,-0.14332345128059387,0.013676574271632025,-0.02839643321931362,0.04925812348403534,0.981461463939579,0.10932778591670557,right,0.0015690922737121582,-0.36959179546484405,0.4417265165043995,-9.133779380252957,-0.18471544716073948,-0.03840484842658043,-0.002022732049226761,3.5425033880129453,0.0007317662239074707
1745972868004021800,0.816021728515625,0.04578809692115661,-0.10156166553497314,0.012812947148830335,-0.007244333624839783,0.04694924190769509,0.9813102136246101,0.10424968186208493,right,0.008041858673095703,-0.37276414750769554,0.4180447217416018,-9.123598177978396,-0.186176730236132,-0.04099373519420624,-0.000935778021812439,3.5714947969585653,-0.008414864540100098
1745972868044021500,0.856021484375,0.04514509218503955,-0.04174421355128288,0.012811382540229404,0.022484295070171356,0.045157680360467446,0.9812850075177575,0.10051667341897487,right,0.0021918416023254395,-0.3740163986233834,0.4119759597545489,-9.119390204894541,-0.18675214912291985,0.0020042099058628082,-0.003986939787864685,3.5829292141646145,-0.005374819040298462
1745972868084021800,0.896021728515625,0.0451578274143899,-0.046697698533535004,0.012961446666759423,0.01019645668566227,0.044509345285094454,0.9813796921711491,0.09917527641770321,right,-0.001033008098602295,-0.3733142860703601,0.41220556725934143,-9.121896050235629,-0.1863994403451322,0.012391414493322372,-0.004261970520019531,3.5765187626004216,0.004200011491775513
1745972868124021800,0.936021728515625,0.04444509530754422,-0.05517726019024849,0.012886157042644519,0.009724629111588001,0.04332459802296604,0.9815592871603253,0.09658531142416878,right,0.0018056631088256836,-0.3720302484998603,0.40590770922414954,-9.126767455664277,-0.18573718444936566,0.02882269211113453,-0.003319907933473587,3.564791207666695,0.0017604529857635498
1745972868310325500,1.122325439453125,0.04384565627394413,0.05832763388752937,0.012756843613065318,-0.0479506216943264,0.04277593818993009,0.9817544230352732,0.0952988099415202,right,-0.001055726082995534,-0.37024373482922557,0.400715182082355,-9.133357355448602,-0.18483952058682723,0.009247677400708199,-0.0011642231838777661,3.5484640499830244,-0.0032987066078931093
1745972868350325500,1.162325439453125,0.04242389433028461,0.045361168682575226,0.011846349037513465,-0.04158787056803703,0.04425285525367648,0.9818333892788039,0.09799701914897664,right,-0.0022420287132263184,-0.3688307365275494,0.387941588694416,-9.138917912185192,-0.18413181003740267,0.01081105787307024,0.0007495880126953125,3.5355429013505577,0.011552214622497559
1745972868390325500,1.202325439453125,0.041302989596417185,0.007234249264001846,0.011250950404512855,-0.023730043321847916,0.044546738552648145,0.981801410057963,0.09839516614957491,right,0.002690255641937256,-0.3691559686882913,0.3776499848479405,-9.138197781217098,-0.1842688207442385,-0.002788371406495571,0.0008621253073215485,3.5385175332471728,0.00792965292930603
1745972868545273300,1.3572734375,0.042121361666722174,0.08274589478969574,0.011272370443734641,0.007487298455089331,0.04614353820448968,0.9815140810541878,0.10186997036540256,right,-0.006199914030730724,-0.37138661816212915,0.38479496123176066,-9.129976480838655,-0.18540139519036525,0.005325615406036377,-0.0033935101237148046,3.558910332934558,-0.005491246934980154
1745972868585273300,1.3972734375,0.0435075859068107,0.052209410816431046,0.011786458697625702,0.013595197349786758,0.04701258037340588,0.9815262460819036,0.10387966861044871,right,-0.005140066146850586,-0.37065487684418474,0.39756395150981844,-9.132033997890353,-0.18508630772399132,-0.0012151426635682583,-0.0029589273035526276,3.552222525733709,-0.00001284480094909668
1745972868625273300,1.4372734375,0.04489186604373789,0.02167293056845665,0.012300540870691197,0.01970309391617775,0.04788159604923783,0.9815373964249337,0.10588777399196077,right,-0.004081666469573975,-0.3699206175719391,0.41032179933935403,-9.134078070938587,-0.18477103409237286,-0.007755899801850319,-0.002523191273212433,3.5455098763525483,0.0054680705070495605
1745972868665273000,1.477273193359375,0.04627416114097092,-0.008863549679517746,0.012814615746764874,0.02581099234521389,0.04875052036049699,0.9815473272004717,0.10789412386884525,right,-0.003024458885192871,-0.3691836867614042,0.4230681393941864,-9.136109284505247,-0.1844555370624599,-0.014296657405793667,-0.002086285501718521,3.538770923486352,0.010951697826385498
1745972868705273000,1.517273193359375,0.04586373411887387,-0.02559204027056694,0.012711761741415927,0.020593691617250443,0.04806127823127451,0.9814739321952718,0.10645264194094516,right,-0.0009135007858276367,-0.370400219019469,0.4191207169426605,-9.131974961179495,-0.18503314925211098,-0.013665813952684402,-0.001179482787847519,3.5498946673080325,0.0067084431648254395
1745972868745273300,1.5572734375,0.045451239748270075,-0.042320530861616135,0.012608893546301443,0.015376390889286995,0.047372037180037956,0.9813997738789688,0.10501003053540993,right,0.0011962056159973145,-0.371616198986121,0.4151573662696406,-9.127828362894057,-0.18561060088687387,-0.013034971430897713,-0.0002710595726966858,3.5610081819966433,0.0024662017822265625
1745972868785273300,1.5972734375,0.045399383184961464,0.017163870856165886,0.012619331907776048,-0.007708927150815725,0.046971824943240176,0.9812969247762751,0.10422776481984637,right,-0.002052903175354004,-0.3729422545873247,0.4144693474728614,-9.12312471524775,-0.18625479406866705,-0.004233991727232933,-0.0013786256313323975,3.5731215213775633,-0.0031640827655792236
1745972868825273300,1.6372734375,0.04570217413786003,0.051476575434207916,0.012580728380007093,-0.00613582506775856,0.0478509719076246,0.9812067736180348,0.10609280772539212,right,0.0009765625,-0.3734205323156693,0.4171536181207746,-9.121290485557914,-0.18650827537401626,-0.012306015007197857,-0.0010214969515800476,3.5774890689373016,-0.0026896297931671143
1745972868865273300,1.6772734375,0.046369794885162234,0.04424656555056572,0.012743278421403563,0.011057751253247261,0.04859148874933187,0.981126824491572,0.10774217527690823,right,0.0011948347091674805,-0.3738107251097228,0.4231783583030104,-9.119614661300181,-0.18672615077242435,-0.018008384853601456,-0.0005755685269832611,3.581051437593996,-0.00040596723556518555
1745972868905273000,1.717273193359375,0.04703666810527175,0.024426953867077827,0.012965955418735511,0.009226550348103046,0.04911082349988733,0.9811115842121152,0.10892118919407097,right,0.001905977725982666,-0.37361627814915904,0.4292926033996045,-9.120026164710522,-0.18665468765715207,0.0007568579167127609,0.0001842193305492401,3.579276244615018,0.002586454153060913
1745972868945273000,1.757273193359375,0.04770322120443206,0.0046073440462350845,0.013188627686144762,0.0073953489772975445,0.04963008418859777,0.9810960552586575,0.11009985413154938,right,0.00261688232421875,-0.37342112799494265,0.4354048026695847,-9.120435330033303,-0.18658317102358174,0.019522104412317276,0.000944230705499649,3.5774943296343085,0.005579590797424316
1745972868985273300,1.7972734375,0.04818693880439327,-0.030935892835259438,0.013526391204328842,0.017199533060193062,0.04913580645324999,0.9811588331883847,0.10916819228277679,right,0.0040926337242126465,-0.3729541269592213,0.43989688992444426,-9.12189137406051,-0.18635989981051151,0.009214586578309536,0.0031936727464199066,3.5732299501881,0.006847500801086426
1745972869025273300,1.8372734375,0.048671038680349235,-0.06647913157939911,0.013864160399119647,0.027003716677427292,0.048641473575762866,0.9812211083709477,0.10823637560035858,right,0.00556790828704834,-0.37248745726324745,0.44439379948489366,-9.123342157390713,-0.18613652852098986,-0.001092931255698204,0.005442608147859573,3.5689676165685054,0.008115172386169434
1745972869065273300,1.8772734375,0.049367512262168595,-0.07966876029968262,0.014531670985667535,0.04143363609910011,0.04676381324375435,0.9812505437157177,0.1045614914739425,right,0.0017235279083251953,-0.37306730903489393,0.45064566295389086,-9.12096139973402,-0.18641139997489095,0.0016231592744588852,0.0016489960253238678,3.574263384889066,0.0027301013469696045
1745972869105273300,1.9172734375,0.05006187891797825,-0.09285838901996613,0.01519913048976327,0.055863555520772934,0.04488598152892872,0.9812760970944905,0.10088625650014,right,-0.002122342586517334,-0.3736496011066726,0.4568746204713359,-9.118566613551973,-0.18668552913277944,0.004339249804615974,-0.0021422840654850006,3.5795804882586,-0.0026570558547973633
1745972869145273000,1.957273193359375,0.050201035424020296,-0.04270092025399208,0.015498497813168855,0.026577942073345184,0.043595797714188644,0.9812953685323822,0.09829696703883166,right,-0.003475010395050049,-0.374049878841181,0.45807161170355976,-9.117070822036267,-0.18686504564674647,-0.003195042721927166,-0.0007296353578567505,3.5832346268519757,-0.004343777894973755
1745972869185273000,1.997273193359375,0.050339039276863444,0.007456544786691666,0.015797812295487757,-0.002707669511437416,0.04230551388351333,0.9813129549560353,0.09570727907443248,right,-0.0048277974128723145,-0.374450508923257,0.4592575335524976,-9.115573276954889,-0.18704422246809682,-0.010729335248470306,0.0006841458380222321,3.5868916880548,-0.006030768156051636
1745972869225273000,2.037273193359375,0.05060922561366057,0.03965487331151962,0.015869788919109167,-0.007456712890416384,0.042617948125134024,0.9813082391776711,0.0963911007335761,right,-0.002094447612762451,-0.3743212051135441,0.4617438704755157,-9.115911715129018,-0.18699195724986023,-0.006845141761004925,0.001738421618938446,3.5857115383595226,-0.0018928050994873047
1745972869265273300,2.0772734375,0.050943989371537546,0.050366103649139404,0.01587558191154691,-0.0146980294957757,0.043437227866609605,0.9812795618495729,0.09812043613428928,right,-0.003734111785888672,-0.3741987762938403,0.46481787109337747,-9.116195208245514,-0.18695286421780763,-0.012249557301402092,0.0015676580369472504,3.5845939325064418,0.0018212497234344482
1745972869305273300,2.1172734375,0.05127853057071966,0.061077337712049484,0.015881374769244425,-0.021939346566796303,0.04425645246594593,0.9812503817743102,0.09984961165087008,right,-0.005373716354370117,-0.37407593661290817,0.46789015467818823,-9.116478701362013,-0.18691367577185597,-0.017653973773121834,0.0013970807194709778,3.5834725272610783,0.005535691976547241
1745972869345273300,2.1572734375,0.050919213701355,0.04558989405632019,0.015413731399375907,-0.01949499361217022,0.04556256285837718,0.9810469603633858,0.10249925792431494,right,0.002869725227355957,-0.37566436994986047,0.4643240962270647,-9.110950293329358,-0.18770519791619145,-0.023723909631371498,0.0016053467988967896,3.5979680856034157,0.0033751726150512695
1745972869492018700,2.304018798828125,0.050596834814309266,0.010345041751861572,0.014845020641953218,-0.014346695505082607,0.04741999119863397,0.9807831966814137,0.10629232343362238,right,-0.0020442306995391846,-0.3775828015454746,0.461036964315176,-9.104189128631353,-0.18866683483676522,-0.008050303906202316,-0.0005325318197719753,3.6154628257617354,0.0005530832568183541
1745972869532019000,2.34401904296875,0.05006648126518807,0.013617785647511482,0.01453966041912287,-0.023893265053629875,0.04768253284115806,0.9807638981850745,0.10673055223573452,right,0.00005352497100830078,-0.377720953361757,0.4561834598693996,-9.10393310804367,-0.18872514286839384,-0.0024924338795244694,0.0021825283765792847,3.616722178173065,-0.0010765790939331055
1745972869572019000,2.38401904296875,0.0499423163773783,0.017684783786535263,0.014387400852500546,-0.017624951899051666,0.048173752646579575,0.9807439824647562,0.10770739010814502,right,-0.0012924671173095703,-0.37769293706287876,0.4550581456338986,-9.104090928953886,-0.188715502328322,0.003738925326615572,0.001368645578622818,3.616466742107272,-0.0007036328315734863
1745972869612019000,2.42401904296875,0.0497155777302801,0.022397464141249657,0.014208980754281479,-0.017535675317049026,0.04856208336197011,0.9807373445719461,0.10845199803123201,right,0.0007927417755126953,-0.37758842120794256,0.45301264781355854,-9.104571405947208,-0.18866411201976105,0.0022755847312510014,0.0018470101058483124,3.6155139714270828,0.0011798441410064697
1745972869652018700,2.464018798828125,0.04948878172807785,0.02711014449596405,0.014030555926141754,-0.017446396872401237,0.04895047029748544,0.980730446115197,0.10919672762847221,right,0.0028778910636901855,-0.37748398942820743,0.45096641934085635,-9.10505129841864,-0.18861266819290493,0.0008122440194711089,0.0023254528641700745,3.6145620775297282,0.0030632615089416504
1745972869692018700,2.504018798828125,0.04996646172826701,0.04095110669732094,0.014126543646235078,-0.010809436440467834,0.04975501220277787,0.980756045573543,0.11090213954722415,right,-0.0010818243026733398,-0.3767192799179954,0.45545361122488975,-9.107592799594999,-0.18826166017472853,0.015566849149763584,0.0019206441938877106,3.6075896081686016,-0.000765383243560791
1745972869732018700,2.544018798828125,0.05034846255729573,0.05280907824635506,0.014174121101112287,-0.018915042281150818,0.05057783897003637,0.9807798091155733,0.11262642161466975,right,-0.0027115345001220703,-0.37596645490706965,0.45906924443878233,-9.110127871030569,-0.18791447425350877,0.021748051047325134,-0.0006780810654163361,3.600723814052343,-0.0016512870788574219
1745972869772018700,2.584018798828125,0.05072895873614069,0.06466705352067947,0.014221685582390932,-0.0270206481218338,0.05140062951486143,0.9808028558372754,0.11434990154460656,right,-0.004341602325439453,-0.37521310331184177,0.4626729680191725,-9.112658850812911,-0.18756716501044596,0.02792925387620926,-0.003275591880083084,3.5938507134124635,-0.0025364458560943604
1745972869812019000,2.62401904296875,0.05031456394149148,0.0751480683684349,0.013708212111495121,-0.031629208475351334,0.05336505738101913,0.9808582428182749,0.11821590873412588,right,-0.00024139881134033203,-0.3735440947081825,0.45919772965665906,-9.118827894836663,-0.18676525998617713,0.027338899672031403,-0.0013267211616039276,3.5786171961843967,0.0002684295177459717
1745972869852019000,2.66401904296875,0.049893516388689836,0.08562908321619034,0.013194673368379775,-0.036237768828868866,0.05532923115115137,0.980908993712531,0.12208014107851625,right,0.0038558244705200195,-0.37187658022207104,0.4556551982115954,-9.124967712765931,-0.18596245211100623,0.026748545467853546,0.0006290152668952942,3.5633871860876676,0.0030729472637176514
1745972869892018700,2.704018798828125,0.050566331664636505,0.061212800443172455,0.01334646787095729,-0.021967262029647827,0.05650167729456591,0.98097636886699,0.1245413489755421,right,0.0012044906616210938,-0.3703358229285852,0.46207149499468503,-9.130131379139423,-0.18524233388456482,0.02510032430291176,0.001530040055513382,3.5493060537651178,0.005010128021240234
1745972869932018700,2.744018798828125,0.05123467612711477,0.03679651767015457,0.013498236291596214,-0.007696756161749363,0.057674005041331036,0.9810418914248225,0.1269999603366855,right,-0.0014487504959106445,-0.36879356965620125,0.46845323192104693,-9.135276340812444,-0.18452187360053995,0.02345210313796997,0.002434559166431427,3.53520270961076,0.0069495439529418945
1745972869972018700,2.784018798828125,0.051898543162362885,0.01238023117184639,0.013649977414129265,0.006573749706149101,0.05884620520109063,0.981105477594835,0.12945595866990509,right,-0.004103899002075195,-0.36724971730795797,0.4748002993928268,-9.140403182306885,-0.18380103402588505,0.021803881973028183,0.003342635929584503,3.5210765691027044,0.008891373872756958
1745972870012018700,2.824018798828125,0.05087916048977753,-0.008759774267673492,0.013256114682155245,0.007812309544533491,0.05833078651397623,0.9811293618667393,0.12822225499751835,right,-0.0009089112281799316,-0.36746144643538897,0.46544455162435766,-9.140137809368968,-0.18386667428581063,0.017446810379624367,0.003089185804128647,3.5230142591670153,0.00425449013710022
1745972870052019000,2.86401904296875,0.04985941816619205,-0.029899775981903076,0.01286224600409431,0.009050869382917881,0.05781535917549815,0.9811527806918979,0.12698824702979372,right,0.0022854208946228027,-0.36767195602247194,0.4560867580292746,-9.139866591212153,-0.18393222379439106,0.01308973878622055,0.0028359368443489075,3.5249408433154223,-0.00038126111030578613
1745972870092019000,2.90401904296875,0.04913604045755284,-0.033345796167850494,0.012690033673118871,0.005637437105178833,0.056909209694752015,0.9812151538101037,0.12500525119314237,right,0.0004099607467651367,-0.36766226958098513,0.449476728772372,-9.14022841026187,-0.183894059328613,0.008051661774516106,0.0016181580722332,3.524852288249135,-0.0002905130386352539
1745972870132018700,2.944018798828125,0.048412673176999856,-0.03679181635379791,0.012517810666135097,0.0022240043617784977,0.056002968310440326,0.9812766890163687,0.12302218183438565,right,-0.0014654994010925293,-0.36765127423142496,0.44286673604808746,-9.140589644789696,-0.1838557505931899,0.0030135856941342354,0.0004003681242465973,3.524751750484109,-0.00019854307174682617
1745972870172018700,2.984018798828125,0.04811027879456519,-0.04047216847538948,0.012486359579044566,0.007113209925591946,0.05537219827450439,0.9812991909515091,0.12168641541734924,right,-0.0014794468879699707,-0.3678342807264503,0.4400716254368424,-9.140078772658109,-0.18392872626292428,-0.0022514155134558678,-0.000033095479011535645,3.5264264056980608,0.0015046298503875732
1745972870212018700,3.024018798828125,0.04780760128335436,-0.04415251687169075,0.012454903762032881,0.012002415955066681,0.05474139147714223,0.981321357721873,0.12035047515893843,right,-0.0014933943748474121,-0.36801697888890883,0.43727432286851103,-9.139567900526522,-0.1840016484143604,-0.007516416721045971,-0.0004663392901420593,3.5280981383025645,0.0032081007957458496
1745972870252018700,3.064018798828125,0.04750462255781127,-0.04783286899328232,0.012423444296523228,0.01689162105321884,0.05411052953764107,0.9813430217450729,0.11901429563924626,right,-0.0015072822570800781,-0.3681991803110935,0.4344746822126209,-9.139057612916826,-0.18407445886665116,-0.012781417928636074,-0.0008993484079837799,3.5297651947319504,0.004912078380584717
1745972870292019000,3.10401904296875,0.04721368186103273,-0.07637564837932587,0.012598079938658012,0.01845538802444935,0.05230528105814897,0.9813727827516859,0.11530754125084397,right,-0.0012173056602478027,-0.368977918073764,0.43168585521169006,-9.136434863197803,-0.18442544306638076,-0.009454973042011261,-0.0005358830094337463,3.5368890552625056,0.005777299404144287
1745972870332019000,3.14401904296875,0.04685099014058105,-0.08995942771434784,0.012696397290497253,0.02271193452179432,0.05078834312838434,0.981414465775643,0.11216359006254834,right,0.0004744529724121094,-0.36943588714175263,0.4282962127733975,-9.134972389429807,-0.18462082392969578,-0.008405696600675583,-0.0003149062395095825,3.541077446863055,0.0039196014404296875
1745972870372018700,3.184018798828125,0.04648667040110929,-0.10354320704936981,0.012794682614309464,0.02696848288178444,0.049271240850187914,0.9814538772470033,0.10901881143757736,right,0.002166271209716797,-0.36989280837340377,0.42489290713593364,-9.133510500183702,-0.18481577198408247,-0.007356420159339905,-0.00009256228804588318,3.5452556093305345,0.0020629167556762695
1745972870412018700,3.224018798828125,0.04631881934643196,-0.07696796953678131,0.013232083468979998,0.028976818546652794,0.04642685156664342,0.9815380414986848,0.10321143748339398,right,0.0008037090301513672,-0.37050472773537646,0.42325931458473204,-9.131412651121616,-0.18507413362680633,-0.0038386418018490076,0.0011200979351997375,3.5508500683367252,-0.00483211874961853
1745972870452018700,3.264018798828125,0.046432794215939516,-0.05634771287441254,0.013597084207975063,0.024731215089559555,0.04468346640134517,0.9815627980226276,0.09970010665255045,right,0.000614464282989502,-0.37110006569397047,0.42420185613185163,-9.129251089173556,-0.18534522942741335,-0.017334161326289177,0.0014941729605197906,3.556291674868762,-0.0026666224002838135
1745972870492018700,3.304018798828125,0.0465370826840842,-0.0657736286520958,0.013863957114331022,0.02104964479804039,0.04338637095025615,0.9815325840032777,0.09710757228044611,right,0.0006025433540344238,-0.3720450008431185,0.4249974269563332,-9.12584624916613,-0.18579327075722835,-0.016230396926403046,0.0029972679913043976,3.5649259399622677,-0.0014744102954864502
1745972870532019000,3.34401904296875,0.0466387740279781,-0.07519955188035965,0.014130796911237245,0.017368072643876076,0.0420892225129991,0.9815003406145563,0.09451423986618059,right,0.0005898475646972656,-0.3729901164648167,0.4257681556005031,-9.12243322585225,-0.1862409374589651,-0.01512663159519434,0.004502907395362854,3.573558451490104,-0.00028195977210998535
1745972870572019000,3.38401904296875,0.04659432523131044,-0.07005943357944489,0.014376621668834081,0.012578930705785751,0.04061586133617935,0.9815202842286483,0.09151833095184986,right,-0.0018570423126220703,-0.37344998581338207,0.4252861077046022,-9.120809424042701,-0.18644425045581892,-0.01828186586499214,0.002162046730518341,3.5777579490065574,0.0002525448799133301
1745972870612019000,3.42401904296875,0.046548411941765525,-0.06491931527853012,0.014622414398405942,0.0077897896990180016,0.039142466092897746,0.9815379844002058,0.08852198119291037,right,-0.004303991794586182,-0.3739097031902237,0.42479076193571086,-9.119185037711262,-0.18664713064374722,-0.02143709920346737,-0.00017745420336723328,3.581955108435452,0.0007872879505157471
1745972870652018700,3.464018798828125,0.04652729170915943,-0.039003241807222366,0.014798411789892848,0.01900388114154339,0.03806930680641538,0.9815164923822799,0.08635292697730526,right,0.001061856746673584,-0.37459684805547977,0.42448359568268057,-9.116732968384026,-0.18696786899635767,-0.016880670562386513,-0.00017449259757995605,3.5882273205727335,-0.0002888143062591553
1745972870692018700,3.504018798828125,0.04774111296781843,-0.03246539458632469,0.015474924958852282,0.029775725677609444,0.037422664713129807,0.9814538160064853,0.08529188445132244,right,0.000845491886138916,-0.3753903655154457,0.4354133513022214,-9.113364368733762,-0.1873720184867952,-0.022017786279320717,0.00039851292967796326,3.5954680854812264,-0.00029909610748291016
1745972870732018700,3.544018798828125,0.048954421780827415,-0.025927547365427017,0.016151422721880197,0.04054756835103035,0.03677600531711721,0.9813902087371994,0.08423159931160819,right,0.000626683235168457,-0.37618511219394357,0.4463303570380434,-9.109972388207911,-0.18777597018929607,-0.02715490199625492,0.0009728074073791504,3.6027182027399536,-0.0003103315830230713
1745972870772018700,3.584018798828125,0.050121677752784886,-0.02590777352452278,0.01678419390201545,0.03142436593770981,0.036183130509463736,0.9812811858488942,0.08328811808334532,right,-0.0016297698020935059,-0.3774395158760747,0.4567369655663147,-9.104924457168579,-0.18840473034296645,-0.03639231249690056,0.001849547028541565,3.6141567115992306,0.0029175281524658203
1745972870812019000,3.62401904296875,0.05084579873519421,-0.019629130139946938,0.01720560589205796,0.01606064662337303,0.03560916877333462,0.9811803068456678,0.08229743452112988,right,-0.002023637294769287,-0.37864399304900304,0.4631083272291347,-9.100237176135181,-0.18900002636748367,-0.019721154123544693,0.0014411546289920807,3.6251343249484895,-0.00029924511909484863
1745972870852019000,3.66401904296875,0.05128816959952947,-0.02046920545399189,0.017484125441349436,0.019230462610721588,0.0351389866862463,0.9811144726871035,0.081451765267799,right,-0.0012068748474121094,-0.37946634860007766,0.4669809674113989,-9.0970509473145,-0.18940378145779074,-0.017642151564359665,0.0011565983295440674,3.632626434269547,-0.0003574788570404053
1745972870892018700,3.704018798828125,0.05164047159372953,-0.011848445981740952,0.017710257703880048,0.008043602108955383,0.034742975576873454,0.9810622967303811,0.08073457292810989,right,-0.005077660083770752,-0.38012327784846306,0.4700625668138265,-9.094500678309798,-0.18972575223550311,-0.014296943321824074,-0.0006658434867858887,3.638609600332379,0.0005589425563812256
1745972870932018700,3.744018798828125,0.05139155702057238,-0.01093821506947279,0.01762443573065339,-0.0076475366950035095,0.03448087905380731,0.9810037007175019,0.08017722332578264,right,-0.0014584064483642578,-0.38087406855094635,0.4676583552163094,-9.091886696419119,-0.1900846326940404,-0.016692357137799263,-0.0008378922939300537,3.6454458760932087,-0.00003883242607116699
1745972870972018700,3.784018798828125,0.05097059681509074,-0.011203383095562458,0.01745411285536931,0.0041291238740086555,0.0342611582682361,0.9809630558532653,0.0796664226769387,right,0.004274904727935791,-0.38143819576284166,0.4637261303339153,-9.090027332288026,-0.19034951464632488,-0.012958661653101444,0.0007708407938480377,3.65058119315505,-0.0006843209266662598
1745972871012018700,3.824018798828125,0.05111229715070137,-0.0171761866658926,0.01757121354278117,0.011531759053468704,0.033943044973416825,0.980928750889091,0.07906064906702155,right,0.001347184181213379,-0.38189907860817257,0.46492816306743767,-9.088280780881643,-0.19057258097421018,-0.012625950388610363,0.002999771386384964,3.654775722235441,0.00020742416381835938
1745972871052019000,3.86401904296875,0.05137667263660683,-0.01887747459113598,0.017764124119464944,0.007070470601320267,0.03351102311003544,0.9808799310567543,0.07825235249190478,right,-0.0013383030891418457,-0.3825358765181372,0.46721126903593535,-9.085831049641966,-0.19088209942425804,-0.017511650919914246,0.0027548372745513916,3.660569795466959,0.0001735985279083252
1745972871092019000,3.90401904296875,0.0513971353739707,-0.011363360099494457,0.01782163391323955,0.0015849098563194275,0.0331692470596151,0.9808193049288993,0.07758460873527254,right,-0.0010980963706970215,-0.38329286182553707,0.46725470631886273,-9.083051648056507,-0.19124760073188543,-0.019165074452757835,0.002188626676797867,3.667455755588412,-0.0000022351741790771484
1745972871132018700,3.944018798828125,0.051229883325409495,-0.0071831513196229935,0.017757822991551212,-0.0036454973742365837,0.03300884337475504,0.9807639709438487,0.07724674664208049,right,-0.0015007853507995605,-0.3839519679655185,0.4656116518195718,-9.08071356049776,-0.1915649217113447,-0.018153253942728043,0.001791108399629593,3.6734494430452584,0.0003782808780670166
1745972871172018700,3.984018798828125,0.051229883325409495,-0.002977099735289812,0.017757822991551212,-0.005159742198884487,0.03300884337475504,0.9807639709438487,0.07724674664208049,right,0.0009635686874389648,-0.3839519679655185,0.4656116518195718,-9.08071356049776,-0.1915649217113447,-0.011528982780873775,0.0018984079360961914,3.6734494430452584,0.0006865561008453369
1745972871212018700,4.024018798828125,0.05094497569755011,-0.013964103534817696,0.017658000678296853,0.007393783889710903,0.03273544962082584,0.9807028828643691,0.07665902975206738,right,0.00112992525100708,-0.3847243640363851,0.4628798522355035,-9.07800956223607,-0.19193364028295823,-0.004262027330696583,0.0025811344385147095,3.680471596767008,-0.0032087862491607666
1745972871252018700,4.064018798828125,0.05090856859044944,-0.014112714678049088,0.017694098931121262,-0.005839452147483826,0.0324402817249653,0.9806953169393348,0.07605605430333201,right,-0.000679314136505127,-0.3849100156453249,0.46251456258706747,-9.077343791803717,-0.19201873123655272,-0.009591087698936462,0.0004688575863838196,3.6821591114625334,-0.0007258355617523193
1745972871292019000,4.10401904296875,0.05087201814461082,-0.014261324889957905,0.017730184345083232,-0.01907268539071083,0.03214511382910549,0.980687751014301,0.07545303379003489,right,-0.002488553524017334,-0.38509566625489294,0.46214799429699777,-9.076678021371364,-0.1921037942822071,-0.014920147135853767,-0.0016433000564575195,3.6838463338971135,0.0017570853233337402
1745972871332019000,4.14401904296875,0.04945390717013479,-0.03174265846610069,0.01710353391735137,-0.03507215157151222,0.03180416376172974,0.9806157135841183,0.07451333350876754,right,0.0021581053733825684,-0.386138835058668,0.44908557403031735,-9.07348068663478,-0.19258425368982385,-0.04045621678233147,-0.0009658075869083405,3.6933252331212163,0.0034341812133789062
1745972871372018700,4.184018798828125,0.0478970222103928,-0.039586931467056274,0.016445266904408326,-0.009520994499325752,0.03120920112037705,0.9804822430993347,0.07304936405987704,right,0.007643997669219971,-0.38791266652614564,0.4346443396911025,-9.067610917818545,-0.19341680311164292,-0.04675185680389404,0.0019656717777252197,3.709433779618144,0.0022605955600738525
1745972871412018700,4.224018798828125,0.04640962649165884,-0.07150215655565262,0.015908449741451097,-0.022867195308208466,0.030144625855465693,0.9803345187174529,0.07064618296814211,right,-0.000955045223236084,-0.3899574998299167,0.4208039573218673,-9.060651600199938,-0.19437661698215253,-0.055547695606946945,0.003962751477956772,3.7279891347453,0.004372298717498779
1745972871452018700,4.264018798828125,0.04528667192982386,-0.04360038787126541,0.015552936563419469,0.009075365960597992,0.02907058927323813,0.9802025871356784,0.06828590818412396,right,0.0014334917068481445,-0.39177601031099585,0.41032139748055485,-9.054330580484866,-0.19523246203080286,-0.03414500877261162,0.003675311803817749,3.7444776204705237,-0.0009900033473968506
1745972871492018700,4.304018798828125,0.04393878755093324,-0.04375660791993141,0.015047912147708545,-0.02140122465789318,0.028277853542224632,0.9801091253662942,0.06643838539772239,right,-0.0002466440200805664,-0.3931190528084875,0.3978955946169793,-9.049843205937742,-0.19585699015218397,-0.032361000776290894,0.0043414682149887085,3.7566470739528532,0.0028786063194274902
1745972871532019000,4.34401904296875,0.04280380776357444,-0.02816707454621792,0.014596206990458825,-0.01963958516716957,0.02777185586779317,0.9800468803123561,0.06520430898638364,right,0.000011742115020751953,-0.39402322100772375,0.38747842816207556,-9.046891954916715,-0.19627488080789454,-0.02215498872101307,0.0032469257712364197,3.7648359333664176,0.0022198259830474854
1745972871572019000,4.38401904296875,0.04166720464345696,-0.012577542103827,0.014144492373368537,-0.017877943813800812,0.027265868461703445,0.9799839557385082,0.06396871512241309,right,0.00026875734329223633,-0.3949261093728717,0.3770537359878421,-9.043926675370335,-0.1966926644270098,-0.01194897759705782,0.002153143286705017,3.7730101797327396,0.0015625059604644775
1745972871612019000,4.42401904296875,0.04061472748108161,-0.005631726235151291,0.013672041942413766,-0.019165201112627983,0.027108007820682678,0.9799537401871529,0.0634474760465195,right,0.0033785104751586914,-0.39538227756782335,0.3674650562463328,-9.042598057115077,-0.1968981949751492,-0.005019275471568108,0.001947455108165741,3.777138950100541,0.00036457180976867676
1745972871652018700,4.464018798828125,0.04061472748108161,0.0019546784460544586,0.013672041942413766,-0.0016179122030735016,0.027108007820682678,0.9799537401871529,0.0634474760465195,right,0.0032054781913757324,-0.39538227756782335,0.3674650562463328,-9.042598057115077,-0.1968981949751492,0.006882281042635441,0.002095606178045273,3.777138950100541,0.000291973352432251
1745972871692018700,4.504018798828125,0.04061472748108161,0.00019742385484278202,0.013672041942413766,0.008811981417238712,0.027108007820682678,0.9799537401871529,0.0634474760465195,right,0.001751720905303955,-0.39538227756782335,0.3674650562463328,-9.042598057115077,-0.1968981949751492,0.007774086203426123,0.003583434969186783,3.777138950100541,0.002516627311706543
1745972871732018700,4.544018798828125,0.04061472748108161,0.0018831099150702357,0.013672041942413766,0.007642259355634451,0.027108007820682678,0.9799537401871529,0.0634474760465195,right,0.0002397298812866211,-0.39538227756782335,0.3674650562463328,-9.042598057115077,-0.1968981949751492,0.008269009180366993,0.002539288252592087,3.777138950100541,-0.0013124048709869385
1745972871772018700,4.584018798828125,0.04110717261495861,0.02588590420782566,0.013791384381194791,-0.00689580338075757,0.02770643028124346,0.9799706986556984,0.06475718084818442,right,-0.0013179183006286621,-0.39499072193851026,0.3719787342784926,-9.043892773100733,-0.19672212942764009,0.007551763206720352,0.00022559240460395813,3.7735949938833713,-0.003009021282196045
1745972871812019000,4.62401904296875,0.041598954979346375,0.049888696521520615,0.01391071736012963,-0.021433867514133453,0.028304806790022154,0.979987238168274,0.06606638340319212,right,-0.0028756260871887207,-0.39459850414284053,0.3764878457333892,-9.045186904564499,-0.1965459568435398,0.006834517233073711,-0.0020876526832580566,3.770044607925415,-0.004704952239990234
1745972871852019000,4.66401904296875,0.041045828834392735,0.04491950199007988,0.013451010874299674,-0.03599422052502632,0.029352318940715483,0.9800099320153739,0.06807984501529633,right,0.006126046180725098,-0.3941068490291689,0.3715606915295124,-9.047244421616195,-0.1963109170165364,0.006656465120613575,-0.0010971389710903168,3.7655931814745065,0.00379180908203125
1745972871892018700,4.704018798828125,0.04075872493969456,0.00480203703045845,0.013220149689407974,-0.00516299344599247,0.029888360820619467,0.9800488267446824,0.06910170663995581,right,0.005575239658355713,-0.3935720469764812,0.3690451650446281,-9.04936155990064,-0.19605148637561418,0.009571213275194168,0.001956723630428314,3.7607501253575086,0.007599204778671265
1745972871932018700,4.744018798828125,0.04124985228910009,-0.04021371155977249,0.013549376911124547,0.02597285434603691,0.029397266926888842,0.9800586799515132,0.06819783444890735,right,-0.00040990114212036133,-0.39357426097059883,0.37348917537406084,-9.049171005764602,-0.19605380937033212,-0.0075291357934474945,0.0005817115306854248,3.760770291362703,0.010032504796981812
1745972871972018700,4.784018798828125,0.04204919000814143,-0.036635227501392365,0.014095776729894047,0.021907083690166473,0.02849233768753598,0.9800281913025762,0.0665250547337157,right,-0.004084289073944092,-0.39407976462613276,0.38064244466219094,-9.046969111806154,-0.19630144243871425,-0.005302021745592356,-0.0007712207734584808,3.765347974541783,0.0034775733947753906
1745972872012018700,4.824018798828125,0.04214349384476543,-0.017305899411439896,0.014258067091729401,0.0054954346269369125,0.0278541008184713,0.97999885190388,0.06525462636363334,right,-0.001986086368560791,-0.39455674780074623,0.3814198953080922,-9.045137804725766,-0.19652743535905112,0.0004905308596789837,-0.00039049237966537476,3.7696667145237326,-0.0012483298778533936
1745972872052019000,4.86401904296875,0.04214349384476543,0.0011158809065818787,0.014258067091729401,0.0003013378009200096,0.0278541008184713,0.97999885190388,0.06525462636363334,right,-0.0020624399185180664,-0.39455674780074623,0.3814198953080922,-9.045137804725766,-0.19652743535905112,0.0030289816204458475,0.0028690211474895477,3.7696667145237326,-0.0006431639194488525
1745972872092019000,4.90401904296875,0.04214349384476543,0.007887043058872223,0.014258067091729401,-0.008519722148776054,0.0278541008184713,0.97999885190388,0.06525462636363334,right,-0.0003216266632080078,-0.39455674780074623,0.3814198953080922,-9.045137804725766,-0.19652743535905112,-0.0057374462485313416,0.004268433898687363,3.7696667145237326,0.0029318034648895264
1745972872132018700,4.944018798828125,0.04127237651318732,-0.0067695751786231995,0.01387596471221612,-0.013779722154140472,0.027671245523730615,0.9799692154291744,0.06471875630781873,right,-0.0003827214241027832,-0.39499892624801686,0.37347156665213405,-9.043800418642162,-0.1967281839678153,-0.004036239348351955,0.0036215782165527344,3.7736692281633615,0.0020765066146850586
1745972872172018700,4.984018798828125,0.040400881548732906,-0.021426193416118622,0.013493858818948174,-0.01903972215950489,0.02748846482982785,0.9799394859729178,0.06418255132409445,right,-0.00044459104537963867,-0.39544078134504346,0.36552239774595946,-9.042455433773993,-0.19692891629133272,-0.0023350322153419256,0.0029748044908046722,3.777668526932597,0.0012215673923492432
1745972872212018700,5.024018798828125,0.03925065008527734,-0.01652677170932293,0.013018000086384275,-0.016337908804416656,0.027163891197464877,0.9799579986986126,0.06328931364556863,right,-0.0010129809379577637,-0.3954535030372713,0.3551193694142625,-9.042821928998828,-0.1969135261699329,0.013634378090500832,0.0012400634586811066,3.777783677744865,-0.00382310152053833
1745972872252018700,5.064018798828125,0.03833883059011768,0.020207582041621208,0.012579069492219371,-0.024690013378858566,0.027332274255155144,0.9800779648792207,0.06341949236981899,right,0.0029132962226867676,-0.3942675732819516,0.3470452589541673,-9.047612670406698,-0.19632095672675198,0.03922519087791443,0.0046714358031749725,3.767048640979826,-0.0054714977741241455
1745972872292019000,5.10401904296875,0.038827685120525604,0.06752762943506241,0.012662852855906643,-0.00417785719037056,0.02823169748351742,0.9802105621098047,0.06530972867405155,right,0.0009745955467224121,-0.3926038935344619,0.3517109857428819,-9.053691698059438,-0.19552455906616234,0.049387820065021515,0.002444382756948471,3.7519799589246507,-0.009637027978897095
1745972872332019000,5.14401904296875,0.040253415701446006,0.08516117930412292,0.013074266681243885,0.0035709510557353497,0.02973587768765049,0.9803370784388672,0.06861230274902465,right,-0.001661062240600586,-0.39070899379954194,0.3649041927823797,-9.060268738362193,-0.19463796294394015,0.0366339311003685,0.00028693675994873047,3.7348043677181004,-0.0047540366649627686
1745972872372018700,5.184018798828125,0.04081399282821208,0.07181321829557419,0.013034031121503645,-0.010550674051046371,0.03131979305566699,0.9803273536524468,0.07194231091175708,right,0.0018565654754638672,-0.3902454116306754,0.37005372103266415,-9.061791417884827,-0.1944410874628521,0.011286327615380287,0.0021592117846012115,3.730600486287474,0.0007368624210357666
1745972872412018700,5.224018798828125,0.04137278302358802,0.05846525728702545,0.012993755290058237,-0.02467229962348938,0.03290364678615243,0.9803151340499103,0.07527143726714912,right,0.005374491214752197,-0.3897800931654656,0.37518907462712375,-9.063316435495018,-0.1942437093692958,-0.014061274006962776,0.004032917320728302,3.7263799459829925,0.006229400634765625
1745972872452018700,5.264018798828125,0.04201815215400082,0.04920797049999237,0.013107665731005245,-0.0161435566842556,0.033822317887326085,0.9802451547937711,0.07728318158385254,right,0.0012609362602233887,-0.3901147005103226,0.38098577820714563,-9.061826489198207,-0.1944315468295287,-0.004702812060713768,0.002992570400238037,3.7294147836342453,0.0019301772117614746
1745972872492018700,5.304018798828125,0.04266437748000531,0.03995068743824959,0.013221575902473883,-0.00761481374502182,0.03474100898619105,0.9801741981533654,0.07929553848212689,right,-0.00285261869430542,-0.3904480279038263,0.3867886192670092,-9.060335958379506,-0.1946191934619663,0.0046556489542126656,0.0019515901803970337,3.7324379308477043,-0.0023678839206695557
1745972872532019000,5.34401904296875,0.043087244905658524,0.03764760494232178,0.013244613478905648,-0.013575544580817223,0.035630762538394,0.9801405471146319,0.08119427124557888,right,-0.000719606876373291,-0.39042193378263385,0.3906241057766601,-9.060268738362193,-0.19462640543051904,-0.0042794737964868546,0.0004922710359096527,3.732201199482381,-0.0005974173545837402
1745972872572019000,5.38401904296875,0.04312266594448159,0.0248708613216877,0.01309911723711348,-0.014022676274180412,0.03637815945340065,0.9800599281635837,0.08274260201522234,right,-0.0006878376007080078,-0.3909662490491557,0.3908574030758813,-9.058224080792069,-0.1949038842306693,-0.023031534627079964,-0.0007734633982181549,3.7371369023188947,0.002278655767440796
1745972872612019000,5.42401904296875,0.04336646004189084,0.029626483097672462,0.013063288485027816,-0.0053998809307813644,0.03698316129159776,0.979920007234895,0.08406114292310139,right,0.003810286521911621,-0.39214612210776534,0.39287429585624484,-9.053716832500696,-0.19549491102262212,-0.02773744985461235,0.0001383572816848755,3.74783189933449,0.003951847553253174
1745972872652018700,5.464018798828125,0.04396573620309176,0.036071181297302246,0.013203184565780955,0.009949504397809505,0.037613181234613546,0.9798288154066185,0.08548568778961098,right,0.006117522716522217,-0.3927726909604247,0.3981966233901679,-9.051132076704501,-0.19582230024905375,-0.005749618634581566,0.0034878775477409363,3.7535093604490157,0.00267145037651062
1745972872692018700,5.504018798828125,0.0455191860657908,0.04714003950357437,0.013792835547844981,0.03006681799888611,0.038385063910522446,0.9798311156386766,0.08735611425568025,right,0.0034872889518737793,-0.3922746291660737,0.4123416512617841,-9.052368925023078,-0.19562051384511217,0.02889239601790905,0.00519387423992157,3.7489962669387458,0.000454634428024292
1745972872732018700,5.544018798828125,0.04732447066496239,0.05326393246650696,0.01448547484150404,0.018996432423591614,0.03932804905026275,0.9798865588060462,0.08960372769647196,right,-0.0004311800003051758,-0.39111645769599196,0.42888818731717765,-9.055940938290954,-0.1951043043158399,0.020315784960985184,0.0033648833632469177,3.7384988383218642,-0.0008581578731536865
1745972872772018700,5.584018798828125,0.04912609063687907,0.05938782915472984,0.015178098594492623,0.007926047779619694,0.040270952554780005,0.9799404845415659,0.0918479809923247,right,-0.0043523311614990234,-0.38995463492694665,0.44541583600901063,-9.059485479030013,-0.19458780158473005,0.011739173904061317,0.001537822186946869,3.7279631235212087,-0.00216713547706604
1745972872812019000,5.62401904296875,0.04994495977483922,0.05518321692943573,0.015338197602173653,-0.0161733515560627,0.04145604969519076,0.9799152281535682,0.09441743849294369,right,-0.00025516748428344727,-0.3896061847064453,0.4528990313712507,-9.060414868834615,-0.19445348614492186,-0.0015748878940939903,0.0022486746311187744,3.7248023214027284,-0.0010029077529907227
1745972872852019000,5.66401904296875,0.05044842829833872,0.047830697149038315,0.01536617882881741,0.0009593125432729721,0.04250286144478552,0.9798604075479237,0.09665539227684118,right,0.0049980878829956055,-0.38964775735571405,0.45745278568547215,-9.06003083795309,-0.1945015888662519,-0.005619100295007229,0.0026944205164909363,3.7251793380215763,-0.0017417967319488525
1745972872892018700,5.704018798828125,0.05129926146769155,0.024916227906942368,0.015621275803706897,0.007884589955210686,0.043241336659614514,0.9798221491690134,0.09833013100122624,right,0.0014751553535461426,-0.3896048900279656,0.46516938794478774,-9.059798198240994,-0.19451178700102079,-0.0015977132134139538,0.0019487179815769196,3.7247906309649346,0.0005737841129302979
1745972872932018700,5.744018798828125,0.05129926146769155,0.01285677682608366,0.015621275803706897,-0.001216774806380272,0.043241336659614514,0.9798221491690134,0.09833013100122624,right,-0.00015038251876831055,-0.3896048900279656,0.46516938794478774,-9.059798198240994,-0.19451178700102079,-0.0029398147016763687,0.001089930534362793,3.7247906309649346,-0.00040733814239501953
1745972872972018700,5.784018798828125,0.05196025630716872,0.01672307588160038,0.015806632346949397,-0.004000058863312006,0.04384585287581477,0.9797690311074002,0.0997019990161187,right,-0.000557243824005127,-0.38979173969055164,0.4711216108800843,-9.058793405112624,-0.19462847032138397,-0.005094883032143116,0.0003436729311943054,3.7264854521840807,-0.0006228089332580566
1745972873012018700,5.824018798828125,0.052298241453179926,0.028316356241703033,0.015843124055532527,-0.006611069198697805,0.04443294702199684,0.9797198167064812,0.10097453194367642,right,-0.0001302957534790039,-0.3899837870854776,0.4741458906047046,-9.057918375843762,-0.19474002999555037,-0.004731066524982452,0.00008042529225349426,3.7282276196762916,-0.00014579296112060547
1745972873052019000,5.86401904296875,0.05225651268933432,0.019838888198137283,0.01570712611564326,-0.014384548179805279,0.04501715182081929,0.9796929670075282,0.10215912840595577,right,-0.0005054473876953125,-0.38999142272335174,0.4737664263004437,-9.057910192537307,-0.19475216977208154,0.0006432477384805679,0.0021557696163654327,3.7282968855202197,0.002914994955062866
1745972873092019000,5.90401904296875,0.05188917376943664,0.008288579992949963,0.015484034513627376,-0.006201840937137604,0.045308641587354134,0.9797079746881382,0.10267228899777836,right,0.0023156404495239258,-0.38974510635642184,0.4704867105100304,-9.059000325861573,-0.1946272666589776,0.00495120557025075,0.00419272854924202,3.7260625505968927,0.005261838436126709
1745972873132018700,5.944018798828125,0.05188917376943664,-0.008531571365892887,0.015484034513627376,-0.009099146351218224,0.045308641587354134,0.9797079746881382,0.10267228899777836,right,0.0012794733047485352,-0.38974510635642184,0.4704867105100304,-9.059000325861573,-0.1946272666589776,0.008353556506335735,0.003995418548583984,3.7260625505968927,0.005989253520965576
1745972873172018700,5.984018798828125,0.05188917376943664,-0.01287760678678751,0.015484034513627376,-0.01084517315030098,0.045308641587354134,0.9797079746881382,0.10267228899777836,right,0.0011839866638183594,-0.38974510635642184,0.4704867105100304,-9.059000325861573,-0.1946272666589776,0.012635494582355022,0.0037369728088378906,3.7260625505968927,0.0004641115665435791
1745972873212018700,6.024018798828125,0.05065361511686725,-0.000638086348772049,0.014955381122559378,-0.014684460125863552,0.04519455140084453,0.9798220777424902,0.10215954961652873,right,0.0013175606727600098,-0.3887734902976243,0.45947651006542145,-9.063186087113618,-0.19411969358069517,0.020241178572177887,0.00235956534743309,3.7172470837175844,-0.003898918628692627
1745972873252018700,6.064018798828125,0.05032218006643065,0.021582942456007004,0.014770210024060088,-0.00022432580590248108,0.04548150427084528,0.9798989352717108,0.10264814283803153,right,-0.001942753791809082,-0.38788082617161235,0.45663935041073705,-9.066648210266232,-0.19367867894403862,0.010449566878378391,0.0015918277204036713,3.709144733543694,-0.002775818109512329
1745972873292019000,6.10401904296875,0.05053070314076867,0.025562044233083725,0.014764483533587452,-0.012603326700627804,0.04606022167895134,0.979901688773429,0.10385867706412219,right,-0.001851201057434082,-0.3875458988261316,0.4585926764355972,-9.067793288648128,-0.19352837496006647,-0.0012974096462130547,0.001305069774389267,3.7061040506735443,0.0030953586101531982
1745972873332019000,6.14401904296875,0.05053070314076867,0.005040666088461876,0.014764483533587452,-0.001028004102408886,0.04606022167895134,0.979901688773429,0.10385867706412219,right,0.0006670355796813965,-0.3875458988261316,0.4585926764355972,-9.067793288648128,-0.19352837496006647,0.0020660816226154566,0.002607397735118866,3.7061040506735443,0.0032829344272613525
1745972873372018700,6.184018798828125,0.05053070314076867,-0.015480712056159973,0.014764483533587452,0.010547318495810032,0.04606022167895134,0.979901688773429,0.10385867706412219,right,0.003185272216796875,-0.3875458988261316,0.4585926764355972,-9.067793288648128,-0.19352837496006647,0.005429572891443968,0.003909725695848465,3.7061040506735443,0.0034705400466918945
1745972873412018700,6.224018798828125,0.05053070314076867,-0.02780350111424923,0.014764483533587452,0.005087887868285179,0.04606022167895134,0.979901688773429,0.10385867706412219,right,-0.0003033876419067383,-0.3875458988261316,0.4585926764355972,-9.067793288648128,-0.19352837496006647,0.002619154518470168,0.0027752183377742767,3.7061040506735443,0.0007309615612030029
1745972873452018700,6.264018798828125,0.05006095810506628,-0.01785968616604805,0.01463013374514479,-0.0014530681073665619,0.045625306922541416,0.9799304807187689,0.10287718327762363,right,-0.0017924904823303223,-0.38751562031373366,0.4543386722529307,-9.068119451862573,-0.193495577015709,-0.00713617168366909,0.001584526151418686,3.705829033124447,-0.0012228190898895264
1745972873492018700,6.304018798828125,0.049352607325746575,0.004614688456058502,0.01431806761490278,-0.01934637688100338,0.04546867997095815,0.9799165385050941,0.1024282985972412,right,-0.0006847977638244629,-0.38782209156037806,0.4478591009752825,-9.06730404382646,-0.19362628354291472,-0.0002918662503361702,0.0010524876415729523,3.7086116495802997,-0.0074561238288879395
1745972873532019000,6.34401904296875,0.04914026905667539,0.02210007607936859,0.014160709068048135,-0.007639417424798012,0.04575081147541151,0.9799007305105848,0.10296400172635538,right,-0.0006858706474304199,-0.38787494476436357,0.44592415085732934,-9.067203506061434,-0.19365114820762658,-0.00021816964726895094,0.0010016821324825287,3.7090912497907875,-0.004192620515823364
1745972873572019000,6.38401904296875,0.04905565627645917,0.01863105036318302,0.014036512329546112,-0.014349037781357765,0.04623931875863284,0.9799163887789039,0.10393078187077136,right,-0.001584172248840332,-0.387484472197021,0.4452279122214764,-9.068687022617459,-0.19346480072505198,0.006580526940524578,0.001176144927740097,3.7055464167907832,0.0028818249702453613
1745972873612019000,6.42401904296875,0.04884800108930199,0.006919174455106258,0.013890667055487775,-0.0013569053262472153,0.046533483374541426,0.9799356822367129,0.10447909691435572,right,0.0022816061973571777,-0.3871648664667177,0.4434025599578395,-9.069961864858865,-0.19330728490090723,0.002983760554343462,0.0033158808946609497,3.7026442656084892,0.005073279142379761
1745972873652018700,6.464018798828125,0.04884800108930199,-0.0029871976003050804,0.013890667055487775,0.019567403942346573,0.046533483374541426,0.9799356822367129,0.10447909691435572,right,0.0011143088340759277,-0.3871648664667177,0.4434025599578395,-9.069961864858865,-0.19330728490090723,0.0014849052531644702,0.003223661333322525,3.7026442656084892,0.0026300549507141113
1745972873692018700,6.504018798828125,0.049616547790483925,-0.0036241081543266773,0.014276133007572146,-0.0038349423557519913,0.04643524602155694,0.9799442099000047,0.10442554433580474,right,-0.00018674135208129883,-0.3870316603502283,0.450397569944337,-9.070110917940735,-0.19325953848388078,0.0007859474862925708,0.0003829486668109894,3.7014345975577827,-0.0012775063514709473
1745972873732018700,6.544018798828125,0.049616547790483925,0.00865032896399498,0.014276133007572146,0.00026530027389526367,0.04643524602155694,0.9799442099000047,0.10442554433580474,right,0.0012736320495605469,-0.3870316603502283,0.450397569944337,-9.070110917940735,-0.19325953848388078,-0.003556155366823077,0.0003781914710998535,3.7014345975577827,-0.0022827088832855225
1745972873772018700,6.584018798828125,0.05014739115015577,0.013957465067505836,0.014451767532463067,0.00953864585608244,0.04676403557250106,0.9798933926550284,0.10521191387827206,right,0.002183079719543457,-0.3873320359361292,0.45515656450707465,-9.06875950333178,-0.19342465701064954,-0.0034792842343449593,0.001517128199338913,3.704162268956005,0.0011675357818603516
1745972873812019000,6.62401904296875,0.05080731524886719,0.003935816697776318,0.01472312570316154,0.011387273669242859,0.046958299238533126,0.9798731878878132,0.10573983675372352,right,-0.0013823509216308594,-0.3873640391144275,0.4611351274600252,-9.068338647571206,-0.19345963517757578,-0.003674234263598919,0.0034686103463172913,3.7044527763351796,0.004773944616317749
1745972873852019000,6.66401904296875,0.05080731524886719,-0.014940553344786167,0.01472312570316154,0.004602695349603891,0.046958299238533126,0.9798731878878132,0.10573983675372352,right,-0.00046312808990478516,-0.3873640391144275,0.4611351274600252,-9.068338647571206,-0.19345963517757578,-0.0008580540306866169,0.004144836217164993,3.7044527763351796,0.006116598844528198
1745972873892018700,6.704018798828125,0.05099817115521173,-0.018759431317448616,0.014903137092089163,-0.0009603421203792095,0.04650018291087126,0.9798918471423204,0.10484281300838946,right,-0.0031923651695251465,-0.3873734662326265,0.46286410667710004,-9.06821589797437,-0.19346206417970455,0.001109411008656025,0.0024301372468471527,3.704538408792019,0.0023438632488250732
1745972873932018700,6.744018798828125,0.05065142323968837,-0.01430373452603817,0.014807129793756004,0.004040002357214689,0.04627309118812738,0.9799753511971644,0.10428549287241835,right,-0.0012059211730957031,-0.3866600416738755,0.4598533805537969,-9.071012835216521,-0.193100512917579,0.012362094596028328,0.003621872514486313,3.6980595681667325,0.0017330944538116455
1745972873972018700,6.784018798828125,0.05030518550004284,-0.009848039597272873,0.014711121279256603,0.009040347300469875,0.0460459345938949,0.9800586503692015,0.10372848300139743,right,0.0007801055908203125,-0.3859464379574861,0.4568452117137611,-9.073805096283554,-0.19273892442240348,0.023614779114723206,0.004813335835933685,3.6915772204101085,0.0011226534843444824
1745972874012018700,6.824018798828125,0.050733504370562316,-0.00916349422186613,0.014989143429004212,0.003874866757541895,0.045775703873432445,0.9801373460753966,0.10323497619450493,right,-0.004185497760772705,-0.38520476987488295,0.4608703755766153,-9.076340167719126,-0.1923818064699992,0.014419887214899063,0.002061985433101654,3.6848379752829667,0.0047016143798828125
1745972874052019000,6.86401904296875,0.050733504370562316,-0.00982847809791565,0.014989143429004212,-0.009621899574995041,0.045775703873432445,0.9801373460753966,0.10323497619450493,right,-0.0037271976470947266,-0.38520476987488295,0.4608703755766153,-9.076340167719126,-0.1923818064699992,-0.00016925949603319168,0.0004928074777126312,3.6848379752829667,0.0014445185661315918
1745972874092019000,6.90401904296875,0.05033618686055659,-0.007544299587607384,0.014875009849586904,0.004640303552150726,0.04541564009614958,0.9801662809642344,0.10241953660847836,right,0.003139674663543701,-0.38512675582216815,0.45727859816234556,-9.076809538796544,-0.19232845198676615,0.005269872955977917,0.0015699416399002075,3.684128950230777,-0.0021786093711853027
1745972874132018700,6.944018798828125,0.05033618686055659,-0.013331238180398941,0.014875009849586904,-0.0012801941484212875,0.04541564009614958,0.9801662809642344,0.10241953660847836,right,0.002599656581878662,-0.38512675582216815,0.45727859816234556,-9.076809538796544,-0.19232845198676615,-0.0019920007325708866,0.0016568861901760101,3.684128950230777,-0.0013007819652557373
1745972874172018700,6.984018798828125,0.05038805638526528,-0.009138457477092743,0.01499701955746277,0.007935820147395134,0.0449230634354967,0.9801912214613304,0.10142358763369226,right,0.001337587833404541,-0.3850968409960506,0.457754946969822,-9.076896048036216,-0.19230753292683325,-0.0042327335104346275,0.003385573625564575,3.683857147552073,-0.0039480626583099365
1745972874212018700,7.024018798828125,0.05038805638526528,-0.004524045158177614,0.01499701955746277,0.0013868045061826706,0.0449230634354967,0.9801912214613304,0.10142358763369226,right,-0.0029618144035339355,-0.3850968409960506,0.457754946969822,-9.076896048036216,-0.19230753292683325,-0.004631516523659229,0.0018026940524578094,3.683857147552073,-0.00489768385887146
1745972874252018700,7.064018798828125,0.05083732032726036,-0.005127944517880678,0.01524730609759249,0.005088209640234709,0.04464404060221436,0.980148007434944,0.10096105878675604,right,-0.0032041072845458984,-0.38562548887569864,0.4617338240055367,-9.074743253916502,-0.19257304263979355,-0.0072551304474473,0.002466510981321335,3.688661040702462,-0.0008924305438995361
1745972874292019000,7.10401904296875,0.05128645461512526,-0.005731843877583742,0.015497600746662461,0.008789614774286747,0.04436503668863743,0.980104579335394,0.10049875333502567,right,-0.0034468770027160645,-0.38615435750643246,0.4657094861708581,-9.072585783621669,-0.19283852674239904,-0.00987874437123537,0.0031306669116020203,3.6934661028966307,0.0031127333641052246
1745972874332019000,7.14401904296875,0.05128645461512526,-0.015909556299448013,0.015497600746662461,-0.007118825800716877,0.04436503668863743,0.980104579335394,0.10049875333502567,right,-0.0012304186820983887,-0.38615435750643246,0.4657094861708581,-9.072585783621669,-0.19283852674239904,-0.0065361130982637405,0.0048753246665000916,3.6934661028966307,0.0024778544902801514
1745972874372018700,7.184018798828125,0.05091189483474728,-0.009374860674142838,0.015396174441866051,0.0025048526003956795,0.04391930294178485,0.9800888511481661,0.09953025105092311,right,0.0021885037422180176,-0.3865734117556533,0.46223238464482125,-9.071212741702794,-0.19302805295609654,0.010141758248209953,0.00445200502872467,3.6972728017032144,-0.001350998878479004
1745972874412018700,7.224018798828125,0.05091189483474728,-0.004424415994435549,0.015396174441866051,-0.0008162304293364286,0.04391930294178485,0.9800888511481661,0.09953025105092311,right,-0.001614987850189209,-0.3865734117556533,0.46223238464482125,-9.071212741702794,-0.19302805295609654,0.005185929127037525,0.0026865042746067047,3.6972728017032144,-0.001611173152923584
1745972874452018700,7.264018798828125,0.05091189483474728,-0.0026238251011818647,0.015396174441866051,-0.013043172657489777,0.04391930294178485,0.9800888511481661,0.09953025105092311,right,-0.0022840499877929688,-0.3865734117556533,0.46223238464482125,-9.071212741702794,-0.19302805295609654,-0.005403708666563034,0.0021722279489040375,3.6972728017032144,-0.0016102194786071777
1745972874492018700,7.304018798828125,0.05091189483474728,0.005678324960172176,0.015396174441866051,-0.006248561665415764,0.04391930294178485,0.9800888511481661,0.09953025105092311,right,-0.0010611414909362793,-0.3865734117556533,0.46223238464482125,-9.071212741702794,-0.19302805295609654,-0.002016482874751091,0.0016112886369228363,3.6972728017032144,-0.00263899564743042
1745972874532019000,7.34401904296875,0.05091189483474728,-0.003706473857164383,0.015396174441866051,-0.013849657028913498,0.04391930294178485,0.9800888511481661,0.09953025105092311,right,-0.0018718242645263672,-0.3865734117556533,0.46223238464482125,-9.071212741702794,-0.19302805295609654,0.0012211012654006481,0.00025930255651474,3.6972728017032144,-0.0010203421115875244
1745972874572019000,7.38401904296875,0.05091189483474728,-0.013091272674500942,0.015396174441866051,-0.021450752392411232,0.04391930294178485,0.9800888511481661,0.09953025105092311,right,-0.0026824474334716797,-0.3865734117556533,0.46223238464482125,-9.071212741702794,-0.19302805295609654,0.004458685405552387,-0.0010926872491836548,3.6972728017032144,0.0005983114242553711
1745972874612019000,7.42401904296875,0.0499682337655632,-0.022867660969495773,0.015010049566195003,-0.008493773639202118,0.04367477928191813,0.9801436970442268,0.09883360447340776,right,0.004381954669952393,-0.3862322119378695,0.45373500727135685,-9.072904348051548,-0.1928349821462185,0.0005960362032055855,0.0026615187525749207,3.6941733743831513,-0.0007699429988861084
1745972874652018700,7.464018798828125,0.04747503292030142,-0.04474569857120514,0.01405151379082892,-0.03126318007707596,0.042583359913515945,0.9802251612710254,0.09611462957005153,right,-0.0013953447341918945,-0.3861837157127034,0.43112157239243387,-9.07418620455563,-0.19273768696842059,0.00372210587374866,0.00010309740900993347,3.6937329371392726,0.0031050145626068115
1745972874692018700,7.504018798828125,0.04498204871975667,-0.0666237324476242,0.013092949501192792,-0.0540325865149498,0.04149187836858952,0.9803045123372593,0.09339590791201083,right,-0.007175922393798828,-0.3861289128655028,0.40850755299162117,-9.07543532783389,-0.19263997526694546,0.006848175544291735,-0.0024552717804908752,3.6932349244892597,0.006985872983932495
1745972874732018700,7.544018798828125,0.043906611993451174,-0.0240548774600029,0.012720872189196578,0.011338986456394196,0.04077628079063973,0.9803252095961563,0.09173128537209975,right,0.0028040409088134766,-0.38634278653633336,0.39871257355567064,-9.075079938524961,-0.19271192164807716,-0.011341771110892296,0.002219226211309433,3.6951778752505775,-0.004679054021835327
1745972874772019000,7.58401904296875,0.04336786779971473,0.01152130588889122,0.012483586401135015,0.009775254875421524,0.04048846224887884,0.9802021890353155,0.09108293880467011,right,0.002994358539581299,-0.3878041984002062,0.3935888373337686,-9.069888799622655,-0.19341288465248946,-0.043801553547382355,0.0006429776549339294,3.7084491524949668,-0.005547046661376953
1745972874812019000,7.62401904296875,0.043879740741272356,0.029366593807935715,0.012606021522761423,0.005674303509294987,0.04085668123586155,0.9800210778660977,0.0919868058944549,right,0.0007923245429992676,-0.3894671217556517,0.3979603669488802,-9.063512250328063,-0.19424356590701877,-0.042239245027303696,0.0015432238578796387,3.7235406309038397,0.00020119547843933105
1745972874852019000,7.66401904296875,0.045201468144644374,0.033374570310115814,0.013080144645307509,0.02988763526082039,0.04148402620987852,0.9798993125236403,0.09355586666249069,right,0.0022148489952087402,-0.3903079006454926,0.40979788506310433,-9.059847882601618,-0.19469266201323826,-0.011488625779747963,0.0036470927298069,3.7311671802595257,0.0066762566566467285
1745972874892018700,7.704018798828125,0.04725615488634895,0.012100489810109138,0.013969092892574805,0.0340811163187027,0.041883529670870855,0.9798646526504712,0.09477795240627643,right,-0.0006933808326721191,-0.3902586599005841,0.4284208255337551,-9.059169837209582,-0.19471964219181115,0.005383674055337906,0.004529502242803574,3.730720605535805,0.009734034538269043
1745972874932018700,7.744018798828125,0.048501232853377915,0.002182416617870331,0.014567854968015012,0.017179634422063828,0.04186019089024372,0.9798791691863765,0.09496819566919347,right,-0.003509998321533203,-0.38997434028111716,0.43975127090867605,-9.059688892647623,-0.19460782536476098,0.018065195530653,0.0024273693561553955,3.728141694958508,0.0051641762256622314
1745972874972018700,7.784018798828125,0.048972378267513064,0.008066579699516296,0.014777790744699065,0.010237326845526695,0.04198708555607454,0.9799131203301407,0.09530511292746753,right,-0.0026688575744628906,-0.3895122476214811,0.44410394969284533,-9.061200466254354,-0.19439386418442176,0.010628147050738335,0.0024577639997005463,3.723950088487565,0.0018393993377685547
1745972875012018700,7.824018798828125,0.048972378267513064,0.013950742781162262,0.014777790744699065,0.003295019268989563,0.04198708555607454,0.9799131203301407,0.09530511292746753,right,-0.0019818544387817383,-0.3895122476214811,0.44410394969284533,-9.061200466254354,-0.19439386418442176,0.0031910999678075314,0.002932000905275345,3.723950088487565,-0.001912832260131836
1745972875052019000,7.86401904296875,0.04962557252240757,0.01715000718832016,0.015023776991191295,-0.006556685082614422,0.04240396820967456,0.9799576647187096,0.09626070545331142,right,0.0005974173545837402,-0.3887874005060087,0.4501563815996051,-9.063602266699075,-0.19405977464294097,0.005393827334046364,0.0025434941053390503,3.7173733404457567,-0.0008230805397033691
1745972875092019000,7.90401904296875,0.04962557252240757,-0.00023798644542694092,0.015023776991191295,-0.00795379001647234,0.04240396820967456,0.9799576647187096,0.09626070545331142,right,0.0031928420066833496,-0.3887874005060087,0.4501563815996051,-9.063602266699075,-0.19405977464294097,0.013325100764632225,0.002122655510902405,3.7173733404457567,0.0013979673385620117
1745972875132018700,7.944018798828125,0.04947245937173926,-0.013290619477629662,0.015052589079093593,0.005588524043560028,0.042071703018955235,0.9800900584316252,0.09551111689861261,right,0.007168114185333252,-0.38758162369927246,0.4489899316361174,-9.068141079172491,-0.19346033572702895,0.02665683999657631,0.002673741430044174,3.70642846032232,0.003270268440246582
1745972875172018700,7.984018798828125,0.049320399518495414,-0.02634325437247753,0.015081395220910267,0.01913083717226982,0.04173941998651538,0.9802219029066009,0.09476209627970078,right,0.01114201545715332,-0.3863757190858898,0.4478310439245775,-9.072666447642446,-0.19286080605976996,0.039988577365875244,0.0032240450382232666,3.695476858197152,0.005143254995346069
1745972875212018700,8.024018798828125,0.05059427856224414,-0.03256401792168617,0.015896616287235432,0.053167715668678284,0.040868429201194156,0.9803898955683262,0.09318308177130678,right,-0.004006028175354004,-0.38484813317195876,0.45967312861606474,-9.077716132247447,-0.19212648133992857,0.05193779617547989,-0.0008848942816257477,3.6815965091437097,-0.003458350896835327
1745972875252018700,8.064018798828124,0.051840103838439115,-0.018979676067829132,0.01667147277113608,0.029586315155029297,0.04021511579515125,0.9806019371858499,0.09202130158948836,right,-0.015032589435577393,-0.38274935100335133,0.47138135779481377,-9.084832686254382,-0.19111382792865533,0.05482456088066101,0.00007533654570579529,3.662511869445443,-0.0003980398178100586
1745972875292019000,8.10401904296875,0.05196357738336277,-0.01669863611459732,0.016850838006258896,0.00023611076176166534,0.03979984654569176,0.9807530172363064,0.09114871500449845,right,-0.01580709218978882,-0.38132133479304353,0.47277427345793693,-9.089988753843308,-0.1904090719681594,0.02982955239713192,0.00275488942861557,3.6495173633158204,0.0008791685104370117
1745972875332019000,8.14401904296875,0.05136129061166954,-0.0034748194739222527,0.016637864830007242,-0.017001967877149582,0.03953800958990168,0.9808402050055208,0.09047266575102571,right,-0.009041905403137207,-0.3805896087937186,0.46743638302870094,-9.092935913211107,-0.1900327943122999,0.009543992578983307,0.0038267485797405243,3.6428561518609524,-0.005636543035507202
1745972875372018700,8.184018798828125,0.050644883069004235,0.00629136897623539,0.01627907198428912,-0.020925261080265045,0.0396592085365118,0.9808535386517172,0.09057752464854361,right,0.00014549493789672852,-0.38048756799012085,0.46094081046432256,-9.093639677566289,-0.1899694643454649,-0.013014044612646103,0.0048633478581905365,3.6419270543172955,-0.004979521036148071
1745972875412018700,8.224018798828125,0.050068507324718174,0.0061631272546947,0.015943370100685937,-0.013025058433413506,0.03991766914671865,0.9808039904523285,0.09100936434462296,right,0.00493234395980835,-0.3809741613432053,0.45561066495012487,-9.092133364656567,-0.1901999841131264,-0.017298314720392227,0.005168545991182327,3.64635714571923,-0.0035774409770965576
1745972875452018700,8.264018798828126,0.050068507324718174,-0.004809608217328787,0.015943370100685937,-0.02223224565386772,0.03991766914671865,0.9808039904523285,0.09100936434462296,right,0.002313077449798584,-0.3809741613432053,0.45561066495012487,-9.092133364656567,-0.1901999841131264,-0.01449385192245245,0.0025927163660526276,3.64635714571923,-0.0010816752910614014
1745972875492018700,8.304018798828125,0.04876570384046493,-0.01618947647511959,0.015316764526590492,-0.021799037232995033,0.03984714151213753,0.9807350251378425,0.09064331051150847,right,0.0002943873405456543,-0.38189133700370875,0.4436017723243683,-9.089374421337247,-0.1906207445022356,-0.005460379645228386,0.0010949522256851196,3.6547049950867887,-0.002422511577606201
1745972875532019000,8.34401904296875,0.04812160618014194,-0.014593768864870071,0.015055369781253717,0.003531385213136673,0.03959421306266219,0.9807298646498359,0.09001025738177755,right,-0.0008308291435241699,-0.38213276285940484,0.4377047867076471,-9.088777039965986,-0.1907214566815845,-0.008569401688873768,0.001835465431213379,3.656901920609176,-0.0003752708435058594
1745972875572019000,8.38401904296875,0.04812160618014194,0.006151041015982628,0.015055369781253717,-0.007687586359679699,0.03959421306266219,0.9807298646498359,0.09001025738177755,right,-0.003054797649383545,-0.38213276285940484,0.4377047867076471,-9.088777039965986,-0.1907214566815845,-0.002475850284099579,-0.00014748424291610718,3.656901920609176,-0.0006729364395141602
1745972875612019000,8.42401904296875,0.04812160618014194,0.02243858389556408,0.015055369781253717,-0.015251165255904198,0.03959421306266219,0.9807298646498359,0.09001025738177755,right,0.001507878303527832,-0.38213276285940484,0.4377047867076471,-9.088777039965986,-0.1907214566815845,-0.000986643834039569,0.0005311965942382812,3.656901920609176,-0.0014567673206329346
1745972875652018700,8.464018798828125,0.04802166198645288,0.021075081080198288,0.014846636449722493,0.005335250869393349,0.040423767213808554,0.9806962868383083,0.09168284848423006,right,0.004977583885192871,-0.38214168881550875,0.43679486878849566,-9.08878814588189,-0.19073634052345934,0.006114019080996513,0.0008004419505596161,3.656983169151842,0.00006332993507385254
1745972875692018700,8.504018798828126,0.04802166198645288,-0.0001677200198173523,0.014846636449722493,0.007979229092597961,0.040423767213808554,0.9806962868383083,0.09168284848423006,right,0.0030982494354248047,-0.38214168881550875,0.43679486878849566,-9.08878814588189,-0.19073634052345934,-0.00034274766221642494,0.0024584010243415833,3.656983169151842,0.0035763680934906006
1745972875732018700,8.544018798828125,0.04827315292372026,-0.020576272159814835,0.015027479626344742,0.012481335550546646,0.04001542152483957,0.9806511029057089,0.09091946197860849,right,0.002733767032623291,-0.38276294952249884,0.43897086112070827,-9.086406803703307,-0.19104020004203798,-0.010329650714993477,0.004448704421520233,3.6626354958251115,0.0032883882522583008
1745972875772019000,8.58401904296875,0.04852419193260166,-0.04098482429981232,0.015208320370633742,0.01698344200849533,0.039607048264801416,0.9806056675995279,0.09015602128296035,right,0.0023688673973083496,-0.3833843648651809,0.4411414100928232,-9.084021369871497,-0.19134398509452158,-0.020316554233431816,0.0064395517110824585,3.668287822498381,0.003000408411026001
1745972875812019000,8.62401904296875,0.04895975978408891,-0.04088678956031799,0.015561293011219675,0.018696919083595276,0.03872524962501195,0.9805498733538135,0.08847238226519669,right,-0.0036130547523498535,-0.38428596571904106,0.4449360531354323,-9.080521252796053,-0.19178142557864078,-0.014091400429606438,0.0014233589172363281,3.676486326523125,0.0018658936023712158
1745972875852019000,8.66401904296875,0.04880419648833324,-0.035268016159534454,0.015619652912015863,0.011369148269295692,0.037984217187245525,0.9805335047257253,0.08694672046826296,right,-0.001273810863494873,-0.38477899609895766,0.443434964390099,-9.078778793042897,-0.192008177319207,-0.009288989007472992,0.0010575652122497559,3.6809681481122967,0.0004042685031890869
1745972875892018700,8.704018798828125,0.04864773020736301,-0.029649244621396065,0.015677990514104456,0.004041377920657396,0.037243083116565316,0.9805165960500545,0.08542050120513915,right,0.001065373420715332,-0.385271791197482,0.4419261672623455,-9.077035164245963,-0.19223479411523858,-0.004486576188355684,0.0006925724446773529,3.6854470470920204,-0.001057058572769165
1745972875932018700,8.744018798828124,0.04857989632954125,-0.011556930840015411,0.01573250313967602,0.0033235568553209305,0.03682286264889259,0.9805483130631149,0.0845449679213573,right,-0.0004925727844238281,-0.3851149178233406,0.44133850356750187,-9.077642482489347,-0.19214977299451244,0.01197638176381588,0.0009552948176860809,3.6840213982030745,-0.0030603408813476562
1745972875972018700,8.784018798828125,0.04857989632954125,-0.004691680893301964,0.01573250313967602,0.0034864291083067656,0.03682286264889259,0.9805483130631149,0.0845449679213573,right,-0.0002428293228149414,-0.3851149178233406,0.44133850356750187,-9.077642482489347,-0.19214977299451244,0.014546197839081287,0.00018782168626785278,3.6840213982030745,-0.0008093118667602539
1745972876012018700,8.824018798828124,0.04883943096403733,-0.011899912729859352,0.015953408674846813,0.012521382421255112,0.03643947708472895,0.9806456525225288,0.08378450932952915,right,0.0026012063026428223,-0.3842145045903248,0.4438562220094725,-9.080836894616484,-0.19170721443557795,0.00673532672226429,0.003133624792098999,3.6758366304427383,0.00029847025871276855
1745972876052019000,8.86401904296875,0.049253341334307414,-0.019984621554613113,0.0162358409871557,0.02015940099954605,0.03602295153792875,0.9806778122666185,0.08300858905478238,right,-0.0002848505973815918,-0.38398961434818696,0.44765554122719914,-9.081478115129471,-0.1915982203806862,0.0024282564409077168,0.003603000193834305,3.6737916806116697,0.0011244714260101318
1745972876092019000,8.90401904296875,0.049521857237875166,-0.026402100920677185,0.01647543939174981,0.011332698166370392,0.0354233279677979,0.9806808285600308,0.08184354240162879,right,-0.002145826816558838,-0.38415346300928277,0.4500642098041251,-9.080756230595707,-0.19167381066044362,0.0004999837838113308,0.00231773778796196,3.6752816269084807,-0.0011912286281585693
1745972876132018700,8.944018798828125,0.04947447401107062,-0.018597953021526337,0.016541155150361198,0.00152631476521492,0.034948650090045594,0.9806806981017749,0.08087230026839624,right,-0.0030896663665771484,-0.3843394929056339,0.4496001359563321,-9.080094551816583,-0.19175613466469194,-0.002789535792544484,0.002716999500989914,3.676972940996289,-0.0005970001220703125
1745972876172018700,8.984018798828124,0.04947447401107062,-0.007983681745827198,0.016541155150361198,-0.0013358753640204668,0.034948650090045594,0.9806806981017749,0.08087230026839624,right,-0.002696990966796875,-0.3843394929056339,0.4496001359563321,-9.080094551816583,-0.19175613466469194,-0.0008252444677054882,0.0005185455083847046,3.676972940996289,-0.0023528337478637695
1745972876212018700,9.024018798828125,0.04947447401107062,0.0022316379472613335,0.016541155150361198,-0.015306923538446426,0.034948650090045594,0.9806806981017749,0.08087230026839624,right,0.0003933906555175781,-0.3843394929056339,0.4496001359563321,-9.080094551816583,-0.19175613466469194,0.0017308809328824282,0.0002519190311431885,3.676972940996289,-0.0018104314804077148
1745972876252018700,9.064018798828124,0.04947447401107062,0.003732714569196105,0.016541155150361198,-0.0031873416155576706,0.034948650090045594,0.9806806981017749,0.08087230026839624,right,0.00382840633392334,-0.3843394929056339,0.4496001359563321,-9.080094551816583,-0.19175613466469194,0.010780739597976208,0.0003132335841655731,3.676972940996289,-0.003858804702758789
1745972876292019000,9.10401904296875,0.04947447401107062,0.008742391131818295,0.016541155150361198,0.016136903315782547,0.034948650090045594,0.9806806981017749,0.08087230026839624,right,-0.0010254383087158203,-0.3843394929056339,0.4496001359563321,-9.080094551816583,-0.19175613466469194,-0.001162894070148468,0.003142930567264557,3.676972940996289,-0.00032702088356018066
1745972876332019000,9.14401904296875,0.049256345663921675,0.005940866190940142,0.016397997080996367,0.008257770910859108,0.03509819184598301,0.980636227570017,0.08114878916406133,right,0.00015622377395629883,-0.38477503567661187,0.44754060961063946,-9.078591746038198,-0.1919680816256635,-0.005958057940006256,0.003703385591506958,3.680932200016081,0.0005382895469665527
1745972876372018700,9.184018798828125,0.04903830899231549,0.003139341017231345,0.016254835497873776,0.0003786366432905197,0.03524773360192077,0.9805917570382592,0.08142523690318987,right,0.0013376474380493164,-0.3852106728054863,0.44548247150443493,-9.077086602172255,-0.19218001230138887,-0.010753221809864044,0.004263687878847122,3.6848914590358732,0.0014035999774932861
1745972876412018700,9.224018798828125,0.04903830899231549,0.000337815610691905,0.016254835497873776,-0.007500496692955494,0.03524773360192077,0.9805917570382592,0.08142523690318987,right,0.002672553062438965,-0.3852106728054863,0.44548247150443493,-9.077086602172255,-0.19218001230138887,-0.015548385679721832,0.0046141259372234344,3.6848914590358732,0.002672642469406128
1745972876452018700,9.264018798828126,0.04841434298802908,0.0035434269811958075,0.015892648667601345,-0.01343601569533348,0.03546997945640189,0.9804988629697945,0.08178715092225901,right,0.0013823509216308594,-0.3861708801264818,0.4396471529470756,-9.073824385505914,-0.19264248386102065,-0.011718534864485264,0.0058630481362342834,3.69361632502228,-0.0012800097465515137
1745972876492018700,9.304018798828125,0.04801596543724061,0.003929830156266689,0.01567775681158084,-0.008034538477659225,0.03554329443055703,0.9804529164078006,0.08187443130138214,right,-0.000803530216217041,-0.38667047558378115,0.43594369531925764,-9.072154990988968,-0.192880901319646,-0.005693263374269009,0.0038708895444869995,3.6981542607128617,-0.004984349012374878
1745972876532019000,9.34401904296875,0.04801596543724061,0.021952226758003235,0.01567775681158084,-0.023387134075164795,0.03554329443055703,0.9804529164078006,0.08187443130138214,right,-0.0012972354888916016,-0.38667047558378115,0.43594369531925764,-9.072154990988968,-0.192880901319646,-0.008359369821846485,0.0012575313448905945,3.6981542607128617,-0.0051597654819488525
1745972876572019000,9.38401904296875,0.04730433448397671,0.04716074466705322,0.01511319184987962,-0.030580993741750717,0.036653031164961436,0.9803795765817439,0.08401156920586278,right,-0.003787100315093994,-0.38709030944984846,0.42941407435480505,-9.070911128407717,-0.19309026218186454,-0.010233066976070404,-0.003378886729478836,3.7019670969992875,-0.006255745887756348
1745972876612019000,9.42401904296875,0.04690091097010081,0.06624878197908401,0.014651060140834187,-0.048856813460588455,0.03799463066737863,0.9803048886414275,0.08667845693991184,right,-0.005041718482971191,-0.3873838170429433,0.425703675529547,-9.069998105216026,-0.19324636299865122,-0.015039987862110138,-0.0019139237701892853,3.7046325168162584,-0.0037138760089874268
1745972876652018700,9.464018798828125,0.0463887346992545,0.07122822105884552,0.014085709643840885,-0.03859769180417061,0.03959639757327352,0.9802178617568779,0.08985518105442868,right,0.0015169382095336914,-0.3876870890489997,0.4210060557652265,-9.069092096287012,-0.1934078480556527,-0.016775712370872498,-0.000054467469453811646,3.7073859071776267,0.0004232823848724365
1745972876692018700,9.504018798828126,0.0461137595284403,0.05449574813246727,0.013661293346812957,-0.025265265256166458,0.04101430912621897,0.9801106360083012,0.09271137940121803,right,0.0029867887496948242,-0.38822564937568316,0.41842016745787114,-9.06721168936789,-0.19368595116071768,-0.027879701927304268,0.0011643953621387482,3.7122748482629655,0.0037920773029327393
1745972876732018700,9.544018798828125,0.04616298719722738,0.051214076578617096,0.01340810254461061,-0.026672082021832466,0.04224978152303926,0.9799493483764907,0.09527865818147845,right,-0.001143813133239746,-0.3893467149180462,0.41867421528417614,-9.063027681681513,-0.19425345002960814,-0.03987755626440048,0.0036255940794944763,3.7224484517529604,0.0034810900688171387
1745972876772019000,9.58401904296875,0.046055636955851964,0.06575267016887665,0.013063982634220296,-0.023756060749292374,0.04354789294519767,0.9797742792548122,0.097947102716987,right,-0.0001671910285949707,-0.3905792403547506,0.41748975473996247,-9.0584830239892,-0.19487239147044913,-0.027559872716665268,0.0044016651809215546,3.7336277251541614,0.0023019611835479736
1745972876812019000,9.62401904296875,0.04650970461110364,0.08724077045917511,0.012924947017361466,-0.021418606862425804,0.045226774578096915,0.9796334267259588,0.10148515318570324,right,0.0006844997406005859,-0.3911950656610045,0.42149588510878383,-9.055993545261025,-0.195206986268616,-0.016146168112754822,0.0030857473611831665,3.739211370505392,0.0038036108016967773
1745972876852019000,9.66401904296875,0.04749432465840513,0.09887640178203583,0.01297039144687767,-0.015848075971007347,0.047250714952226144,0.9794830081234579,0.10582913510901318,right,-0.0009733438491821289,-0.3916472899814041,0.4303320659825578,-9.053884590283035,-0.19547925251974407,-0.015463463962078094,0.005372136831283569,3.7433109147787094,0.004696369171142578
1745972876892018700,9.704018798828125,0.048483807080064216,0.0931539461016655,0.01303308809824238,-0.0068381596356630325,0.04920526918331828,0.9793385887240019,0.1100311728173227,right,0.0006904006004333496,-0.392026184047076,0.43922173060923814,-9.052036916589737,-0.19571589797258712,-0.001790064387023449,0.007696360349655151,3.7467449808806177,0.002061307430267334
1745972876932018700,9.744018798828124,0.049073442225039655,0.07707289606332779,0.012986340297804794,-0.021331576630473137,0.05084747917410337,0.9792603970629362,0.11349831721673093,right,-0.0013011693954467773,-0.39189837740097466,0.4445825635226443,-9.0522543587327,-0.19569064670778008,0.0008717847522348166,0.004237275570631027,3.7455867507562037,-0.0006120204925537109
1745972876972018700,9.784018798828125,0.04966256824310102,0.06099184602499008,0.012939563848356709,-0.03582499548792839,0.05248952535544933,0.9791795521937228,0.1169651438897213,right,-0.0032925009727478027,-0.3917687180033987,0.4499394874459132,-9.052475892528891,-0.19566488350539515,0.0035336343571543694,0.0007785893976688385,3.744411569496989,-0.003283560276031494
1745972877012018700,9.824018798828124,0.04884424151489159,0.04416827857494354,0.012278874327540882,-0.041961804032325745,0.053822256442900084,0.9790897251038764,0.11953387688329102,right,-0.0031957626342773438,-0.39204527666461386,0.4424808785356581,-9.0518066149652,-0.1957946535149425,-0.028788581490516663,0.0014138035476207733,3.7469179993599653,0.0030332207679748535
1745972877052019000,9.86401904296875,0.0478142552481327,0.018419954925775528,0.011580474142538866,-0.034257255494594574,0.054640464675831064,0.978916752223365,0.12105069143930201,right,0.0024164319038391113,-0.39347422061573323,0.43290107622034846,-9.04690013822317,-0.19647481586702673,-0.0355004146695137,0.000057194381952285767,3.7598639901727435,0.0015296638011932373
1745972877092019000,9.90401904296875,0.0468697495340739,0.009819502010941505,0.01100743871550709,-0.025074735283851624,0.0550866005771728,0.9787927295809676,0.12181242026471478,right,0.005150854587554932,-0.39459217272029784,0.4241588207077235,-9.043100745940208,-0.19700006280405988,-0.026153838261961937,0.0020812712609767914,3.7699873247802254,-0.000618666410446167
1745972877132018700,9.944018798828125,0.04630533249455317,-0.01035197451710701,0.010679367415909474,-0.040093615651130676,0.05525634991539184,0.9787098333799071,0.12207432915788845,right,0.0002624988555908203,-0.3954020717179093,0.4189132116718218,-9.040285688519477,-0.19738203349785957,-0.03337722644209862,0.002350926399230957,3.7773181060597296,0.0022476911544799805
1745972877172018700,9.984018798828124,0.045740948726527765,-0.030523451045155525,0.010351293683978625,-0.05511249601840973,0.05542607168254177,0.9786266858052649,0.12233580826164861,right,-0.004626750946044922,-0.39621208390763596,0.4136708905715495,-9.037461278748511,-0.19776392972556422,-0.04060061275959015,0.0026202425360679626,3.78464742603451,0.005114197731018066
1745972877212018700,10.024018798828125,0.041270183929319124,-0.04757196456193924,0.008323075701129676,-0.08121815323829651,0.05469499804474502,0.9784927531199542,0.12001181219597512,right,-0.0006437301635742188,-0.39844746161302264,0.37291254452988504,-9.030744537714122,-0.19872316426946113,-0.06710229814052582,0.0014843642711639404,3.8048613620236513,0.0048576295375823975
1745972877252018700,10.064018798828124,0.03867484629478105,-0.02158523164689541,0.007115315736039928,-0.042668089270591736,0.054342055837827176,0.9783566084025863,0.11882044470627295,right,0.0023459196090698242,-0.40026410138916985,0.349205651858449,-9.024760202607512,-0.19953608971912598,-0.0369911715388298,0.005612310022115707,3.8212747366860507,0.0027481019496917725
1745972877292019000,10.10401904296875,0.037238032194166826,-0.020441140979528427,0.006466242902186766,-0.03915296122431755,0.054076758496216716,0.9782970490639097,0.11801186433397096,right,0.0023203492164611816,-0.40113807385433736,0.336113932432048,-9.02191182743907,-0.19992172756430962,-0.03054839000105858,0.004661053419113159,3.829166366718709,0.0026195943355560303
1745972877332019000,10.14401904296875,0.03579991481576955,-0.019297050312161446,0.005817162906080725,-0.035637833178043365,0.05381143412252956,0.9782368566960994,0.11720163541786975,right,0.0022926926612854004,-0.4020109756328157,0.3230192538635805,-9.019042409482598,-0.20030723742509965,-0.024105608463287354,0.0037100836634635925,3.8370457217916845,0.0024923384189605713
1745972877372018700,10.184018798828125,0.03436051769541089,-0.018152959644794464,0.005168085072825219,-0.03212270513176918,0.053546091907122166,0.9781761150903497,0.11638979109577695,right,0.0022628307342529297,-0.4028828646184957,0.3099219084139913,-9.016150779694318,-0.20069263092419176,-0.01766282506287098,0.0027593933045864105,3.844912801904976,0.0023663341999053955
1745972877412018700,10.224018798828125,0.033322798307002924,-0.001850377768278122,0.0046788803390428076,-0.015431541949510574,0.05344335225787002,0.978116533992332,0.11598771741668792,right,0.0012404322624206543,-0.4036151107618857,0.30047161422986535,-9.013651364094018,-0.20102187436012778,-0.014147693291306496,0.0015999097377061844,3.8515178992584347,-0.0008292496204376221
1745972877452018700,10.264018798828126,0.032817216407530256,0.009550480172038078,0.004371690324138526,-0.022573748603463173,0.05369612040069026,0.978050650310393,0.11641650679384472,right,0.0005433559417724609,-0.40417385615302676,0.2958437900324352,-9.011649961143732,-0.20128241860503743,-0.011639637872576714,0.002096252515912056,3.856556185686588,-0.0028722286224365234
1745972877612884000,10.424884033203124,0.03008718843694098,0.011590090580284595,0.0025562483516073467,-0.016788866370916367,0.055713885977605314,0.9775926637901146,0.12008018728374205,right,0.0034076469019055367,-0.40779228498550096,0.2708190927607007,-8.998416385561228,-0.2029825246062231,-0.01536609511822462,0.0007418750319629908,3.889156725040078,-0.0004851074190810323
1745972877772493300,10.584493408203125,0.029229595923498778,0.007317665033042431,0.0018351868421853986,-0.006011540535837412,0.056769285872596144,0.9772373055800248,0.1221420028536302,right,0.0024191420525312424,-0.4107464686373551,0.26276509350687266,-8.987121669086813,-0.20440387457985082,-0.009262246079742908,0.0013735664542764425,3.915734643103182,0.003366682445630431
1745972877812396300,10.624396240234375,0.029261445999765254,-0.001789472415111959,0.0018291025961876001,0.0006526084034703672,0.05678960475741835,0.977185978224494,0.12220364595388039,right,0.0005269699613563716,-0.41123562289033,0.26299526726724576,-8.985198007547854,-0.2046437402020907,-0.006779597606509924,0.0008006285643205047,3.920132001279294,0.0009943062905222178
1745972877852396500,10.664396484375,0.028823528972535893,-0.00012439931742846966,0.001606880482356809,-0.006437559146434069,0.05683239548455634,0.9771605514546272,0.12220643936773067,right,0.0006039142608642578,-0.4114899744415098,0.2590317156648263,-8.984315379494427,-0.20475551164136813,-0.006214261520653963,0.0005620419979095459,3.9224183586508032,0.0001868605613708496
1745972877892396500,10.704396484375,0.028823528972535893,0.0015406737802550197,0.001606880482356809,-0.013527726754546165,0.05683239548455634,0.9771605514546272,0.12220643936773067,right,0.0007709264755249023,-0.4114899744415098,0.2590317156648263,-8.984315379494427,-0.20475551164136813,-0.005648925434798002,-0.00008071400225162506,3.9224183586508032,-0.00038740038871765137
1745972877932339000,10.7443388671875,0.027746398552116067,0.003423885442316532,0.0010288152903899725,-0.006715969182550907,0.05708092375362612,0.9770846177023801,0.12250728326296663,right,0.002261724788695574,-0.41215944841990276,0.2492813790882006,-8.98196209436655,-0.20505200693508502,-0.02011842653155327,0.002725074300542474,3.9284348424613476,0.002361859893426299
1745972877972339000,10.7843388671875,0.028538891882057608,0.02866889163851738,0.0012579260615360253,-0.0006643389351665974,0.05770494919262393,0.9770129935894305,0.123958858637463,right,0.0011284351348876953,-0.4124494947403487,0.2563669169023633,-8.980622370195388,-0.2052172244829272,-0.008435419760644436,0.0013596359640359879,3.9310406410455703,0.0011778473854064941
1745972878012339000,10.8243388671875,0.0296985455915976,0.039884477853775024,0.0016354599346657635,0.01431635394692421,0.05849936285668726,0.9769663526120549,0.12582638063748222,right,0.0026154518127441406,-0.41236609911290845,0.26679089669054373,-8.980646920114754,-0.20521154827365615,0.002588021568953991,0.0007732957601547241,3.930291576243937,0.001345604658126831
1745972878171801900,10.9838017578125,0.03486813286380001,0.013832413591444492,0.003576600992651071,0.0014893515035510063,0.06084646500879922,0.9768413749594764,0.13170057256859702,right,0,-0.4118046569129117,0.3132902523359284,-8.981351268991828,-0.20509932510652545,-0.008571751415729523,0,3.925246567814052,0
1745972878211712000,11.0237119140625,0.03505169695814368,0.012039369903504848,0.0035855298695142055,-0.0004782285541296005,0.06112940393226379,0.9767745564796105,0.1323329902613861,right,0.0008983087609522045,-0.41226947584752915,0.3148748911788687,-8.979469108507036,-0.20533297227005087,-0.014477281831204891,0.0025157309137284756,3.9294232689768074,0.0022938838228583336
1745972878251711700,11.063711669921876,0.034521485952938635,-0.015059747733175755,0.003342524818024401,-0.020123429596424103,0.06099054000546381,0.976719615950011,0.13195783719981957,right,0.0002924203872680664,-0.41293284349989295,0.3100238344185054,-8.977028145095705,-0.20563992975443227,-0.018802400678396225,0.002171505242586136,3.935382761903107,0.0014501214027404785
1745972878291711700,11.103711669921875,0.032647648245773854,-0.015394202433526516,0.002512553686819799,-0.028550801798701286,0.060615425883862255,0.9766615863926577,0.13082338942165356,right,0.00014585256576538086,-0.4138680464186976,0.29308152224486694,-8.973910889858008,-0.2060377963738684,-0.024409253150224686,0.0017507970333099365,3.9437814646750686,0.0010652244091033936
1745972878331711700,11.143711669921874,0.03077190879435428,-0.015728658065199852,0.0016825822861353153,-0.03697817400097847,0.06024029445953331,0.9766026259418131,0.12968666209529825,right,-0.000003993511199951172,-0.4148013448967889,0.2761349357549101,-8.970762070438266,-0.20643547216550945,-0.030016105622053146,0.0013305339962244034,3.9521594169199465,0.000682443380355835
1745972878371712000,11.1837119140625,0.029026921263314423,-0.010188684798777103,0.0008656292587071528,-0.03533799946308136,0.06007878678381981,0.976518284502064,0.12901610619458848,right,0.0019006729125976562,-0.4158328048691497,0.2603622153499163,-8.967150309681893,-0.20688599595626225,-0.030642133206129074,0.0016771163791418076,3.961414736521244,0.0014068186283111572
1745972878411712000,11.2237119140625,0.027682760666330377,-0.009608537890017033,0.00022661074001458994,-0.01834835670888424,0.05998124264666322,0.976438036135426,0.1285568247535376,right,0.004828751087188721,-0.41675282949671144,0.24820770370839162,-8.963845422917604,-0.2072945352738557,-0.022024452686309814,0.0026261676102876663,3.9696667242988943,0.0020239949226379395
1745972878451712000,11.2637119140625,0.0269304648967794,-0.01322515681385994,-0.00010672702110883045,-0.008489668369293213,0.05979067252054096,0.9763871556412561,0.1280243518969622,right,0.0024260282516479492,-0.4174026564112953,0.2413946626926772,-8.961448883169888,-0.20758912573946228,-0.015722695738077164,0.00308866985142231,3.975492946234345,0.001966327428817749
1745972878491711700,11.303711669921874,0.02657047853995821,-0.007353250868618488,-0.0002567342263928849,-0.009257368743419647,0.05958661844809083,0.9763266029945437,0.12754925940779796,right,0.000976860523223877,-0.418126944849643,0.23809207748332992,-8.958654868537186,-0.20793189274115068,-0.012494766153395176,0.0020063165575265884,3.981984938602149,0.00007036328315734863
1745972878531711700,11.343711669921875,0.026210024928990838,-0.0014813444577157497,-0.0004067391340849226,-0.010025070048868656,0.05938259248570287,0.9762659200658617,0.12707382237917042,right,-0.00047284364700317383,-0.41885113710432637,0.23478724551796912,-8.955855008685589,-0.2082746387950384,-0.009266836568713188,0.0009241960942745209,3.988474008360505,-0.0018253326416015625
1745972878571711700,11.383711669921874,0.026269305682563044,0.0009172584395855665,-0.00041175460261344267,-0.005411676596850157,0.059457603788917415,0.9762118587250826,0.12725273855588753,right,-0.0011565089225769043,-0.4193231948105388,0.23526867235936222,-8.953957650631665,-0.20850669291739451,-0.009749136865139008,0.0010629259049892426,3.9927027319714425,0.00016227364540100098
1745972878611712000,11.4237119140625,0.02632869254776015,0.003315861104056239,-0.0004167677735514724,-0.0007982826791703701,0.059532605901775434,0.9761577135931098,0.12743170842602278,right,-0.001840353012084961,-0.41979521516602836,0.23575079332049934,-8.952058539012073,-0.20873872609195024,-0.010231437161564827,0.0012015905231237411,3.996929994277656,0.002150028944015503
1745972878651712000,11.4637119140625,0.02632869254776015,-0.0035733284894376993,-0.0004167677735514724,0.0013676604721695185,0.059532605901775434,0.9761577135931098,0.12743170842602278,right,0.0004163384437561035,-0.41979521516602836,0.23575079332049934,-8.952058539012073,-0.20873872609195024,-0.008634683676064014,0.0017088335007429123,3.996929994277656,0.0033195018768310547
1745972878691712000,11.5037119140625,0.026350815841010414,-0.002621033228933811,-0.0003829610077040755,-0.0008511580526828766,0.05936677969812862,0.9761321876907451,0.1271057594469859,right,-0.00013065338134765625,-0.4201347366232595,0.2359130712101236,-8.950696603009105,-0.20890511075133886,-0.006587137933820486,0.0007545407861471176,3.9999703848868604,0.00207558274269104
1745972878731711700,11.543711669921874,0.026372807428334488,-0.0016687377355992794,-0.00034915424185820524,-0.003069976344704628,0.059200916194063126,0.9761067082791559,0.12677971069218247,right,-0.0006777644157409668,-0.4204743368059969,0.23607407045811413,-8.949332913440465,-0.2090714954107277,-0.004539592657238245,-0.00019961781799793243,4.003010775496065,0.0008316636085510254
1745972878771711700,11.583711669921875,0.026372807428334488,0.0024317074567079544,-0.00034915424185820524,0.00036291894502937794,0.059200916194063126,0.9761067082791559,0.12677971069218247,right,0.0015307068824768066,-0.4204743368059969,0.23607407045811413,-8.949332913440465,-0.2090714954107277,-0.005484447814524174,0.00010325200855731964,4.003010775496065,0.0011160075664520264
1745972878811711700,11.623711669921875,0.026619370076879614,0.0005113885272294283,-0.0002458860191562208,0.008814336732029915,0.05918019738938332,0.976058906816313,0.1268022759279705,right,0.0015563368797302246,-0.4209287854155431,0.23823219834007323,-8.947454844608902,-0.20930050160557864,-0.005691318307071924,0.0012734681367874146,4.007078755587339,0.00206640362739563
1745972878851712000,11.6637119140625,0.027208869480632024,0.007591279223561287,0.000012575369208584738,0.015341430902481079,0.05920877761478842,0.9760241419859818,0.12699485328470336,right,-0.0002480149269104004,-0.4212085242720909,0.2434761634081602,-8.94619227732718,-0.2094544165050551,-0.003093669656664133,0.0021593179553747177,4.009582555101812,0.0022686123847961426
1745972878891712000,11.7037119140625,0.02792959170494087,0.019396834075450897,0.0003007660251040559,0.0096051637083292,0.05940624962704827,0.9759929854201423,0.12755803619457542,right,-0.00012135505676269531,-0.42134789953251967,0.24990822401596233,-8.945455779746174,-0.2095438057956156,0.0025827293284237385,0.0010579880326986313,4.010829924814403,0.0011112987995147705
1745972878931712000,11.7437119140625,0.028906943595095783,0.03212050721049309,0.0006618711731289882,0.016703175380825996,0.0598917992490392,0.9759870898997874,0.12875469936163356,right,0.0014903545379638672,-0.4210579305408422,0.2586845461949706,-8.946369387459754,-0.20943181262903565,0.01282321847975254,0.0002438705414533615,4.008234647624194,-0.0010368525981903076
1745972878971712000,11.7837119140625,0.030601369677088226,0.04069044440984726,0.0013309965885324635,0.040007852017879486,0.06057766572419474,0.9760119260123452,0.13050181952124712,right,0.0018846988677978516,-0.42030358888915686,0.27393558081341907,-8.948937776643037,-0.20911573126065044,0.014817937277257442,0.001735243946313858,4.001482250754535,0.000029474496841430664
1745972879011711700,11.823711669921876,0.032034755568660145,0.02558647096157074,0.0019184843784483521,0.02621559053659439,0.06096733430537614,0.975987333557165,0.13160452501964998,right,0.001267850399017334,-0.42020572144797963,0.2867751155770384,-8.948927255249023,-0.2091124557313297,0.00612021517008543,0.0023479368537664413,4.000606052441895,0.0006653070449829102
1745972879051711700,11.863711669921875,0.03346797419471765,0.01048249751329422,0.002505983656317927,0.01242333184927702,0.06135694774441811,0.9759622383548212,0.1327069769782918,right,0.0006496906280517578,-0.4201064002928104,0.2996138648893684,-8.948903874373435,-0.2091090754630052,-0.0025775060057640076,0.0029606930911540985,3.9997167023867366,0.001302480697631836
1745972879091711700,11.903711669921876,0.03442593396865484,0.005557503085583448,0.0029244377403203807,0.01606355421245098,0.06148372758560525,0.9759456617626531,0.13317237670608903,right,0.00120466947555542,-0.4201165092550289,0.30818503815140574,-8.948572450461983,-0.20914404370291703,0.0018979962915182114,0.0028774887323379517,3.999807011018693,-0.000008314847946166992
1745972879131712000,11.9437119140625,0.03515964601160998,0.004808653146028519,0.003251911681111754,0.011283299885690212,0.061554614390459284,0.9759382683818404,0.133473985524059,right,-0.0002745985984802246,-0.4200879222627814,0.3147546623326838,-8.948458468693495,-0.20915312263816185,0.00012378289829939604,0.0024559572339057922,3.9995512826919555,-0.00039830803871154785
1745972879171712000,11.9837119140625,0.03515964601160998,0.006643985398113728,0.003251911681111754,0.0061086006462574005,0.061554614390459284,0.9759382683818404,0.133473985524059,right,0.0001259446144104004,-0.4200879222627814,0.3147546623326838,-8.948458468693495,-0.20915312263816185,-0.004776937887072563,0.0024888701736927032,3.9995512826919555,0.0005947649478912354
1745972879211712000,12.0237119140625,0.035668379849413415,0.007212745025753975,0.0034350129820705424,0.001522660255432129,0.06176608166208625,0.9758974784660838,0.13402350494110396,right,0.0008739233016967773,-0.42030969943654983,0.3192753546275198,-8.947410420945285,-0.20927790071618002,-0.0043786633759737015,0.0026690736413002014,4.00153690355122,0.001149505376815796
1745972879251711700,12.063711669921876,0.035995528358078184,-0.0007132077589631081,0.0035584758636019666,0.004578159190714359,0.06185833134051409,0.9758641253849232,0.1342904112375699,right,0.00018489360809326172,-0.4205473243849679,0.32216822652481497,-8.946354774412512,-0.2094043524752955,-0.0041208285838365555,0.0022570230066776276,4.003664270968735,0.0023790597915649414
1745972879291711700,12.103711669921875,0.03609544741228341,-0.004431713372468948,0.003628019307199455,0.006410287693142891,0.061702113041465334,0.9758442448102828,0.13400061294138893,right,0.0012819170951843262,-0.420823279300835,0.32302224953826514,-8.945217879337072,-0.20954151090250597,-0.005944320932030678,0.0018897801637649536,4.00613446047455,0.0009575188159942627
1745972879331711700,12.143711669921874,0.036195315250448674,-0.008150218985974789,0.0036975604532079797,0.008242416195571423,0.0615459412331918,0.9758244015360604,0.1337109301416423,right,0.00237882137298584,-0.4210993658362592,0.32387557843197134,-8.944080399739741,-0.20967869027751654,-0.0077678132802248,0.0015226192772388458,4.0086055267632,-0.0004641115665435791
1745972879371712000,12.1837119140625,0.036195315250448674,-0.0019103088416159153,0.0036975604532079797,0.013827946968376637,0.0615459412331918,0.9758244015360604,0.1337109301416423,right,0.002291262149810791,-0.4210993658362592,0.32387557843197134,-8.944080399739741,-0.20967869027751654,-0.0013022180646657944,0.0015798546373844147,4.0086055267632,-0.0010228753089904785
1745972879411712000,12.2237119140625,0.0369963819204595,0.0015846462920308113,0.0040969437508249626,0.011511977761983871,0.061403968025794356,0.9758157208233502,0.13359548216282202,right,-0.00011456012725830078,-0.42120274137800534,0.3310249387299642,-8.943404107913375,-0.2097534894065093,0.0003413246013224125,0.0016593001782894135,4.009530824914575,-0.0005693137645721436
1745972879451712000,12.2637119140625,0.03760680636153129,0.0028858226723968983,0.004393017101273795,0.007688827347010374,0.06135525288658663,0.9758176720166251,0.1336255212030833,right,-0.00135725736618042,-0.4211624652418357,0.33649021839853377,-8.943361437815428,-0.20975264773193122,-0.0001895164605230093,0.0021715983748435974,4.009170174908638,-0.0001920163631439209
1745972879491711700,12.303711669921874,0.03760680636153129,0.005089595913887024,0.004393017101273795,0.00559849850833416,0.06135525288658663,0.9758176720166251,0.1336255212030833,right,-0.0009692907333374023,-0.4211624652418357,0.33649021839853377,-8.943361437815428,-0.20975264773193122,-0.0011772050056606531,0.0033135078847408295,4.009170174908638,0.0005247890949249268
1745972879531711700,12.343711669921875,0.03760680636153129,0.0024498545099049807,0.004393017101273795,0.005412495695054531,0.06135525288658663,0.9758176720166251,0.1336255212030833,right,-0.0003813505172729492,-0.4211624652418357,0.33649021839853377,-8.943361437815428,-0.20975264773193122,-0.0014737369492650032,0.003930855542421341,4.009170174908638,0.0013208985328674316
1745972879571711700,12.383711669921874,0.038158429868387876,-0.006785258650779724,0.004651099916676081,0.0018455388490110636,0.06132042862149981,0.9757982142189492,0.13367806972165677,right,-0.00006985664367675781,-0.42132260950077405,0.34139903322812165,-8.94253258577585,-0.20984777645699187,-0.0007265537860803306,0.0030269399285316467,4.010603422582149,0.0021497011184692383
1745972879728373000,12.540373046875,0.03862287160186263,0.004594406113028526,0.005114757998343165,-0.003527304157614708,0.060195191082072635,0.9758794445364422,0.13146680159134716,right,-0.0035668506752699614,-0.4211751473145662,0.34557511333636937,-8.94296396293044,-0.2097845974923023,-0.01055500004440546,0.0010466666426509619,4.009283864416182,-0.0018298093928024173
1745972879768284700,12.58028466796875,0.03846479213506313,0.017160335555672646,0.004957920514849582,-0.015316910110414028,0.060520254882009794,0.9758236511831396,0.13211085197244782,right,0.002413783222436905,-0.4215296272671146,0.34410672128424047,-8.941597935274244,-0.20995431395538436,-0.0065665533766150475,0.0026846681721508503,4.012456064711511,-0.0005635996931232512
1745972879808284400,12.620284423828124,0.03864538991677409,0.0024132300168275833,0.005018617305186453,-0.007291635498404503,0.06068114656571179,0.9758432311732564,0.13246949806558678,right,0.0018404722213745117,-0.42123196612271474,0.345767676766403,-8.942728400608896,-0.20981551944129334,-0.004439155571162701,0.003459405153989792,4.009792398460209,0.0015194118022918701
1745972879848284400,12.660284423828125,0.03864538991677409,-0.006320163607597351,0.005018617305186453,-0.0033516064286231995,0.06068114656571179,0.9758432311732564,0.13246949806558678,right,-0.00020945072174072266,-0.42123196612271474,0.345767676766403,-8.942728400608896,-0.20981551944129334,-0.0035866629332304,0.00240354984998703,4.009792398460209,-0.00017830729484558105
1745972879888284700,12.70028466796875,0.038568046014011065,0.005395357497036457,0.0049476909730358865,-0.0058281030505895615,0.060817049360199917,0.9758197604072881,0.13273645217823546,right,0.00008845329284667969,-0.4213825390226781,0.3450527334300801,-8.942152062025666,-0.2098872499827057,-0.005831967107951641,0.0017075873911380768,4.011139721415937,-0.00032645463943481445
1745972879928284700,12.74028466796875,0.038568046014011065,0.017110876739025116,0.0049476909730358865,-0.008304599672555923,0.060817049360199917,0.9758197604072881,0.13273645217823546,right,0.0004450678825378418,-0.4213825390226781,0.3450527334300801,-8.942152062025666,-0.2098872499827057,-0.008077271282672882,0.0009387098252773285,4.011139721415937,-0.00033721327781677246
1745972879968284700,12.78028466796875,0.03856372327446297,0.018194500356912613,0.004846122640510973,-0.01114993542432785,0.06125818949022443,0.9757793041510341,0.1336437763656938,right,-0.0007753372192382812,-0.42150485714224184,0.344995158023946,-8.941662817203998,-0.2099490053248847,-0.005266135558485985,0.0015418827533721924,4.01223453091532,0.0023900270462036133
1745972880008284700,12.82028466796875,0.03839845863652513,0.006967348046600819,0.004698139275993172,-0.0076162321493029594,0.061580247754447245,0.9757556401561959,0.1342699011058406,right,0.0017083287239074707,-0.42155161630588606,0.34351021669581533,-8.941532468822597,-0.209968220337923,-0.0022696196101605892,0.0022063255310058594,4.01265275632739,0.004230678081512451
1745972880048284400,12.860284423828125,0.03839845863652513,-0.003044305369257927,0.004698139275993172,-0.001486881636083126,0.061580247754447245,0.9757556401561959,0.1342699011058406,right,0.00040477514266967773,-0.42155161630588606,0.34351021669581533,-8.941532468822597,-0.209968220337923,-0.0008918945677578449,0.0013320855796337128,4.01265275632739,0.0025241971015930176
1745972880088284400,12.900284423828126,0.03839845863652513,-0.0037945664953440428,0.004698139275993172,-0.0057660783641040325,0.061580247754447245,0.9757556401561959,0.1342699011058406,right,-0.00021731853485107422,-0.42155161630588606,0.34351021669581533,-8.941532468822597,-0.209968220337923,-0.0023104087449610233,0.001001708209514618,4.01265275632739,0.0010833144187927246
1745972880128284700,12.94028466796875,0.03839845863652513,0.0029450685251504183,0.004698139275993172,-0.0032738083973526955,0.061580247754447245,0.9757556401561959,0.1342699011058406,right,0.0014942288398742676,-0.42155161630588606,0.34351021669581533,-8.941532468822597,-0.209968220337923,-0.00018146703951060772,0.002005830407142639,4.01265275632739,-0.0006188750267028809
1745972880168284700,12.98028466796875,0.03839845863652513,0.004593494348227978,0.004698139275993172,0.0024859588593244553,0.061580247754447245,0.9757556401561959,0.1342699011058406,right,0.0015420913696289062,-0.42155161630588606,0.34351021669581533,-8.941532468822597,-0.209968220337923,0.001184916589409113,0.002213597297668457,4.01265275632739,0.0012116432189941406
1745972880208284700,13.02028466796875,0.03851533608646284,-0.001025123056024313,0.0047252427970888525,0.002736099064350128,0.06169918475868036,0.9757425525490503,0.1345403221048596,right,-0.0005098581314086914,-0.4215954847253599,0.3445485102349892,-8.941316195723413,-0.20999383448699635,-0.0015356128569692373,0.00199088454246521,4.013045262776315,0.00200536847114563
1745972880248284700,13.06028466796875,0.03851533608646284,-0.00588320242241025,0.0047252427970888525,-0.003221882041543722,0.06169918475868036,0.9757425525490503,0.1345403221048596,right,-0.0020946860313415527,-0.4215954847253599,0.3445485102349892,-8.941316195723413,-0.20999383448699635,-0.0012039606226608157,0.001967385411262512,4.013045262776315,0.000314563512802124
1745972880288284400,13.100284423828125,0.03851533608646284,-0.007212695199996233,0.0047252427970888525,-0.00547350849956274,0.06169918475868036,0.9757425525490503,0.1345403221048596,right,0.0010018348693847656,-0.4215954847253599,0.3445485102349892,-8.941316195723413,-0.20999383448699635,0.0010289145866408944,0.001924268901348114,4.013045262776315,-0.0008088946342468262
1745972880328284400,13.140284423828126,0.03851533608646284,-0.00221080519258976,0.0047252427970888525,-0.007750390097498894,0.06169918475868036,0.9757425525490503,0.1345403221048596,right,0.00138777494430542,-0.4215954847253599,0.3445485102349892,-8.941316195723413,-0.20999383448699635,0.011960693635046482,0.001950681209564209,4.013045262776315,-0.002625197172164917
1745972880368284400,13.180284423828125,0.03851533608646284,-0.0044781542383134365,0.0047252427970888525,-0.007918090559542179,0.06169918475868036,0.9757425525490503,0.1345403221048596,right,0.00011801719665527344,-0.4215954847253599,0.3445485102349892,-8.941316195723413,-0.20999383448699635,0.006933419965207577,0.0023784227669239044,4.013045262776315,-0.0005339086055755615
1745972880408284700,13.22028466796875,0.03851533608646284,-0.006745503284037113,0.0047252427970888525,-0.008085791021585464,0.06169918475868036,0.9757425525490503,0.1345403221048596,right,-0.0011518001556396484,-0.4215954847253599,0.3445485102349892,-8.941316195723413,-0.20999383448699635,0.0019061467610299587,0.0028061643242836,4.013045262776315,0.001557379961013794
1745972880448284700,13.26028466796875,0.038133738403122557,-0.009920506738126278,0.004631650042739868,-0.0027858465909957886,0.06137748832524136,0.9758066260801048,0.1337859338469594,right,0.0005858540534973145,-0.42120965452410947,0.3411955100126564,-8.942993773546814,-0.209792198462911,0.011112526059150696,0.003433365374803543,4.009592784234881,-0.000036388635635375977
1745972880488284700,13.30028466796875,0.03788106919842698,-0.011005603708326817,0.00460055801923081,-0.003794534597545862,0.06109503657547988,0.9758976013017621,0.1331302037286724,right,-0.0008050799369812012,-0.4205311079151415,0.33903884343542157,-8.945796556007862,-0.20945203998152656,0.013722103089094162,0.0036849677562713623,4.003519017279148,0.0013950169086456299
1745972880528284700,13.34028466796875,0.037753421771837985,-0.008588161319494247,0.004607587637275403,-0.0017843481618911028,0.06088387811197577,0.9759701994556758,0.13265160497432527,right,-0.0009799599647521973,-0.4199725753032172,0.337981260673888,-8.9480726842463,-0.20917465899820625,0.013601313345134258,0.0030388422310352325,3.998518432512879,0.0014674663543701172
1745972880568284400,13.380284423828124,0.03760123071082717,-0.009284446947276592,0.004602560803873944,-0.0052940016612410545,0.06067686975214803,0.9760439112046468,0.1321760556879852,right,-0.0009878277778625488,-0.4194030350757205,0.33670499366037543,-8.950398496845365,-0.20889113268848214,0.017923109233379364,0.00270182266831398,3.993417894503474,0.0000063478946685791016
1745972880726220500,13.538220458984375,0.03663214226570232,-0.006320067681372166,0.004323513556374373,-0.009311486966907978,0.06013739940775566,0.9762443566973806,0.13081409481997497,right,0.0012059984728693962,-0.41787729394041545,0.3282538665814325,-8.956798427015542,-0.20811455828882425,-0.010481610894203186,0.0015608510002493858,3.979747388808429,-0.000936846830882132
1745972880766133200,13.57813330078125,0.03670721368892022,-0.007119411136955023,0.004371728997483935,0.006821133196353912,0.060036238986161415,0.9762266204074455,0.1306300689682509,right,0.0018868132028728724,-0.41810134162100354,0.32889355272445825,-8.955882481214404,-0.2082257290472167,-0.0014029380399733782,0.0018840396078303456,3.9817555137604472,-0.001557905925437808
1745972880806133200,13.61813330078125,0.03676170110497827,-0.013231691904366016,0.004435120369937823,0.0030365537386387587,0.0597833450238655,0.9761970339675379,0.1301374490316918,right,0.0005213618278503418,-0.41853143145431615,0.3293185732034966,-8.954152880942821,-0.20843608341338543,-0.010586027055978775,0.0014551319181919098,3.9856095588400957,-0.0009695887565612793
1745972880846133200,13.65813330078125,0.036647465958708894,-0.012713153846561909,0.004420465507949405,-0.0022754233796149492,0.059506086689239616,0.9761567639746226,0.1295629808814694,right,-0.0005029439926147461,-0.41909067212715206,0.3282139729624614,-8.951961508378385,-0.208704222319113,-0.014468826353549957,0.001297973096370697,3.9906197882175443,-0.0010214447975158691
1745972880886133500,13.698133544921875,0.03642096428173624,-0.010928753763437271,0.004338921621782805,-0.0051639508455991745,0.059287848700322096,0.9761076037535537,0.12908715756467054,right,-0.00014191865921020508,-0.41970823307076316,0.32609650588445366,-8.949570813849569,-0.20899771482135399,-0.01711420901119709,0.001966577023267746,3.9961511188596486,0.00029730796813964844
1745972880926133500,13.738133544921874,0.03614119803422515,-0.011136665008962154,0.004225825399235212,-0.005772129166871309,0.05912929769736198,0.9760718671798035,0.12871693844321577,right,-0.001067042350769043,-0.4201655801979893,0.3235266553964466,-8.947834783837198,-0.20921173472235582,-0.011556798592209816,0.0022721439599990845,4.000246571479738,0.0020447373390197754
1745972880966133200,13.77813330078125,0.03544899089019397,-0.020014293491840363,0.00397994594673527,-0.008264259435236454,0.05877464304943308,0.9761002511834334,0.12784152955323239,right,-0.0003051161766052246,-0.4201540963562953,0.31733444969281555,-8.948102494862676,-0.20918393946013908,-0.0034665660932660103,0.0018876083195209503,4.000143695627153,0.001484513282775879
1745972881006133200,13.81813330078125,0.03475678465353039,-0.028891924768686295,0.0037340617643115766,-0.010756389237940311,0.05841997002079152,0.9761284676046752,0.12696611681705178,right,0.0004565715789794922,-0.4201420366255981,0.31114209785871205,-8.948367867800593,-0.2091560906796277,0.00462366733700037,0.0015031062066555023,4.000035851338506,0.0009248554706573486
1745972881046133200,13.85813330078125,0.03353967403874848,-0.04634014144539833,0.0033443712656846744,-0.022266920655965805,0.05767671629534332,0.9762348774706764,0.12516738412398562,right,-0.003935039043426514,-0.4196388943162267,0.30031817723382265,-8.950750379022955,-0.20887211622531332,0.037184927612543106,0.0005293358117341995,3.9955300643518563,-0.007312595844268799
1745972881086133200,13.89813330078125,0.03080334164080385,-0.16579383611679077,0.0025401005612583063,-0.03925523906946182,0.055768166922343945,0.9765563572847505,0.12062078309762532,right,-0.010216295719146729,-0.4178128745477302,0.2760491023686714,-8.958816196578741,-0.20789673314864432,0.047732092440128326,0.0023737382143735886,3.9791701734423635,0.00002327561378479004
1745972881126133500,13.938133544921875,0.02602700692055544,-0.16567450761795044,0.0010360646116627547,-0.026835208758711815,0.05277218965726352,0.9770331900516854,0.11340190799269312,right,0.0028347373008728027,-0.41512069300980436,0.23353375659184528,-8.970708878946304,-0.206446275569632,0.07822980731725693,0.0016009565442800522,3.9550256200060248,-0.0035512447357177734
1745972881166133500,13.978133544921874,0.022278699442019614,-0.13174140453338623,-0.00008043088747710542,-0.026354527100920677,0.05018584007403063,0.9774911275410931,0.10725082464678676,right,0.006238222122192383,-0.41219833596886923,0.20016384030105544,-8.983038199165463,-0.2049207499724808,0.05882089212536812,0.00021324306726455688,3.9287840942904353,0.002447664737701416
1745972881206133200,14.01813330078125,0.02105754725083752,-0.07836432754993439,-0.00013809362838127293,0.050181858241558075,0.04808795030122612,0.9778664886323354,0.10264786596317559,right,0.00876682996749878,-0.40961574836374054,0.1894070483619347,-8.993390081831812,-0.20362882701246732,0.08591710776090622,-0.000921132043004036,3.9055657157883044,-0.010199129581451416
1745972881246133200,14.05813330078125,0.02326500060221352,-0.018831729888916016,0.0013137740676098316,0.0906403437256813,0.046763139797461425,0.9784382937313496,0.10028520879628357,right,-0.0033310651779174805,-0.4044844276173411,0.2097225084967911,-9.012866935718058,-0.20117145819713644,0.17805266380310059,-0.0023260805755853653,3.859356337799132,-0.0159778892993927
1745972881286133200,14.09813330078125,0.0263812666694017,0.016391463577747345,0.0030841666327837106,0.0845457911491394,0.04627004721941903,0.9791845081796936,0.099744528819909,right,-0.001584172248840332,-0.3970452614622684,0.23855867208177223,-9.040620035040378,-0.19760349443317163,0.19411040842533112,0.0013217907398939133,3.7921839590191837,-0.008908271789550781
1745972881326133200,14.13813330078125,0.029897708618412365,0.09345744550228119,0.004803944435297147,0.05743151903152466,0.04700727994430658,0.9798612859011978,0.10177142557682264,right,-0.00423043966293335,-0.3895253282192689,0.2711927666449919,-9.06797390591204,-0.19400755508499054,0.15881572663784027,0.004400959238409996,3.7240687464311715,-0.0031416118144989014
1745972881366133200,14.17813330078125,0.033471422260575645,0.15799874067306519,0.0061842225140541175,0.04205171763896942,0.04924670682879167,0.9801725383215766,0.10692376736305818,right,0.0019603967666625977,-0.38487278434091754,0.3041738480149768,-9.08416516225636,-0.19182864287625592,0.0755872130393982,0.005968770012259483,3.6818206732884047,-0.001399606466293335
1745972881406133500,14.218133544921875,0.03720312214284463,0.17136864364147186,0.007351604734449921,0.01876799203455448,0.05244941763426433,0.9800802789089273,0.11415736373747201,right,0.0002586245536804199,-0.3837733663729787,0.3382213895726949,-9.087006523162126,-0.19140941574833858,-0.02588413655757904,0.005559638142585754,3.6718253489747643,0.005365490913391113
1745972881446133200,14.25813330078125,0.03986570161166313,0.13779562711715698,0.007916317807687959,-0.013684188947081566,0.0556283931768368,0.979690051985478,0.12122861366864894,right,-0.0001170039176940918,-0.38576539020342754,0.3621227819029242,-9.078747228860854,-0.19248390469436033,-0.07665841281414032,0.005758386105298996,3.68993237581253,0.012532353401184082
