time,seconds_elapsed,roll,rotationRateZ,quaternionY,rotationRateY,quaternionZ,quaternionW,yaw,devicelocation,accelerationZ,pitch,gravityX,gravityZ,quaternionX,rotationRateX,accelerationX,gravityY,accelerationY
1745973170284314600,0.505314697265625,0.6856002112740323,-0.3564552068710327,0.3074641950291799,0.17427591979503632,4.2828703341703305e-17,0.9196021948567119,0.16916623372704342,left,-0.07137113809585571,-0.46648651057821167,5.54555732037723,-6.779692288342118,-0.24453561727077885,0.06888721883296967,-0.8122968077659607,4.410550250640512,0.14416760206222534
1745973170324315000,0.54531494140625,-0.011512398885467921,-0.34979769587516785,0.036159494451679736,0.12337770313024521,-0.1256775102225032,0.9423200055575203,-0.268931960924682,left,0.021037042140960693,-0.6307642750140301,-0.09117208951865323,-7.919100807908177,-0.3081083215686085,-0.011778488755226135,-0.237344428896904,5.783590415948629,-0.007003843784332275
1745973170364315000,0.58531494140625,-0.22088320805704623,-0.31488046050071716,-0.03736019516351126,0.13385465741157532,-0.16081026569142115,0.9297731834391635,-0.4163955554126496,left,-0.000865936279296875,-0.6433086637708246,-1.7190908602669834,-7.655817535746097,-0.3290382265222359,-0.05144968256354332,-0.07092410326004028,5.882479829245805,-0.003845036029815674
1745973170404315000,0.62531494140625,-0.3032957217078251,-0.2836627960205078,-0.06507649807991117,0.1373768150806427,-0.1797216896432703,0.9228439367793421,-0.4851679584184883,left,-0.00718313455581665,-0.6357850881710976,-2.356629177609086,-7.530344651427865,-0.3344014494401823,-0.013695012778043747,-0.009870946407318115,5.8232806213021275,-0.017267465591430664
1745973170444314600,0.665314697265625,-0.309423015570868,-0.24229006469249725,-0.06657011667615999,0.1297025829553604,-0.18463635359451736,0.9221781943350355,-0.49695846725357085,left,0.0036177635192871094,-0.6311536688986997,-2.410912264199555,-7.541372241398692,-0.33326481414234715,-0.005214594304561615,-0.011364191770553589,5.786673768916725,0.0042060017585754395
1745973170484314600,0.705314697265625,-0.31112024452101344,-0.2160802036523819,-0.06666782858650358,0.14987583458423615,-0.1887712169755683,0.9219969173662035,-0.5053394847842071,left,-0.02066129446029663,-0.6260836932121133,-2.4326580859310925,-7.565102076554298,-0.33142502278992453,0.08016475290060043,-0.002731502056121826,5.746458662906289,-0.005463838577270508
1745973170524314600,0.745314697265625,-0.30958779374235323,-0.1224115788936615,-0.06543831279908487,0.18246382474899292,-0.19627291589504778,0.9222457757947794,-0.5183576313949875,left,-0.002535700798034668,-0.6146773899736303,-2.4408736872211096,-7.6307573287695645,-0.3265845969162259,0.23475006222724915,0.012894824147224426,5.6554456820726395,-0.004511773586273193
1745973170564315000,0.78531494140625,-0.30453696649691653,-0.04008565843105316,-0.06398701850473461,0.17366810142993927,-0.1978807372092082,0.9231866520498437,-0.5185626893485471,left,-0.012300491333007812,-0.6082994234736102,-2.4130678347982464,-7.677242601090669,-0.323226269411703,0.18888705968856812,0.02199915051460266,5.604232796707749,-0.003735482692718506
1745973170604315000,0.82531494140625,-0.2942871308951824,0.049495451152324677,-0.06075616468675472,0.15811575949192047,-0.19865891937263727,0.9246799095435287,-0.5151369449325008,left,-0.01694852113723755,-0.6015844158241305,-2.3451148270346223,-7.737413284415006,-0.3190774131017296,0.1396092027425766,0.015997648239135742,5.550067491278052,-0.02052021026611328
1745973170644315000,0.86531494140625,-0.2881544487913869,0.03041764721274376,-0.058793635986926905,0.12449522316455841,-0.19838929667127084,0.9254997042886772,-0.5118762301351923,left,-0.02359902858734131,-0.5990594801632405,-2.301595126520842,-7.765061169797182,-0.3172308066226505,0.11760025471448898,0.017577648162841797,5.529636113145947,-0.03073418140411377
1745973170684314600,0.905314697265625,-0.2833085034731034,0.02049250155687332,-0.057286706211623926,0.10807594656944275,-0.19841897691596458,0.9262022847895073,-0.5096700120844992,left,-0.010801970958709717,-0.5962872996306884,-2.2682154194884,-7.790811112603545,-0.3154321220703049,0.1095082089304924,0.015411898493766785,5.507163000053167,-0.025718390941619873
1745973170724314600,0.945314697265625,-0.27847909836000934,0.010567355901002884,-0.05577943009707168,0.09165666997432709,-0.19844751583601766,0.9268993315696451,-0.5074843141018293,left,0.001975417137145996,-0.593506396834367,-2.234765423698723,-7.816368747708201,-0.31363156893431415,0.10141616314649582,0.013238966464996338,5.484576489713787,-0.020690977573394775
1745973170764314600,0.985314697265625,-0.27386211979016223,-0.033880412578582764,-0.05522003691520505,-0.028171373531222343,-0.19905779605850954,0.9283486839814143,-0.5053124279740528,left,0.0050397515296936035,-0.5844962557994409,-2.211929322512448,-7.8738605672121045,-0.3090235933171909,0.07783542573451996,0.011915162205696106,5.4111061798334115,-0.025343358516693115
1745973170804314600,1.025314697265625,-0.27362260837655467,-0.02135108783841133,-0.05549698773783363,-0.04035273194313049,-0.1991721801761436,0.9286855389710228,-0.5049620195252957,left,-0.0038924813270568848,-0.5820672140235074,-2.2135886340267956,-7.887022246602177,-0.3078861466071372,0.057465311139822006,0.010877445340156555,5.391224252277612,-0.024160027503967285
1745973170844315000,1.06531494140625,-0.27386266224456784,-0.004583533853292465,-0.05584228422097628,-0.037812817841768265,-0.19907652040092452,0.9288706445292798,-0.5045675903277017,left,-0.00937730073928833,-0.580807207318543,-2.217317153030634,-7.893023532843589,-0.3073262868086278,0.02814672514796257,0.01000317931175232,5.380898088574409,-0.02676701545715332
1745973170884315000,1.10531494140625,-0.2733293429776994,0.06617395579814911,-0.05617060338752579,-0.04243077337741852,-0.1978055753180116,0.9292825956259892,-0.501494124929907,left,-0.007422029972076416,-0.5800470498330697,-2.214210857578367,-7.898141021987795,-0.30684154170951067,-0.055868588387966156,0.002981230616569519,5.374664747142791,-0.021499931812286377
1745973170924314600,1.145314697265625,-0.2731615700027262,0.08036649227142334,-0.05624114710075853,-0.06008215993642807,-0.19686066923238557,0.9293485983904864,-0.4996208694222806,left,-0.012313246726989746,-0.5810664492008347,-2.211406467682123,-7.893232791680097,-0.3072361709115559,-0.08940857648849487,-0.0003103911876678467,5.383023410165309,-0.018393754959106445
1745973170964314600,1.185314697265625,-0.2707703063043797,0.12480565160512924,-0.0555164041736996,-0.018038395792245865,-0.19301604223642865,0.9294378277512958,-0.4918243202816145,left,-0.0232122540473938,-0.5870949316520372,-2.1838057824425396,-7.8670859585106365,-0.30952896213555864,-0.0896957740187645,-0.010249346494674683,5.432341860085725,0.0005338191986083984
1745973171004314600,1.225314697265625,-0.2691222033416507,0.12060841172933578,-0.05515419007367585,0.00005856901407241821,-0.19132496903217627,0.9296741853877049,-0.4879446676379344,left,-0.0131569504737854,-0.5885663212103296,-2.1687093355976046,-7.862960403013229,-0.3099332572557778,-0.0566784031689167,-0.005713343620300293,5.444349108743667,0.005276620388031006
1745973171044314600,1.265314697265625,-0.26642562262173614,0.08350396156311035,-0.0544899987232726,0.012704374268651009,-0.1895030878908679,0.9300696756655132,-0.48332495795468317,left,-0.0011976957321166992,-0.5895180886806166,-2.146133200521767,-7.863776980093121,-0.3099835311945435,-0.011462684720754623,-0.00884409248828888,5.452109805873036,-0.002948284149169922
1745973171084315000,1.30531494140625,-0.2656975376451225,0.05879712849855423,-0.054370529450344304,0.0022865142673254013,-0.1887585416139177,0.9302053434777384,-0.4815652706310354,left,0.0007353425025939941,-0.5899244470393742,-2.139825186418742,-7.8631994724661105,-0.3100519949883307,-0.005481297615915537,-0.004498809576034546,5.4554217069,-0.0037255287170410156
1745973171124315000,1.34531494140625,-0.2649681968585094,0.03409029170870781,-0.054250996422958137,-0.00813134666532278,-0.18801379585946681,0.9303403616273384,-0.479804426537497,left,0.002668619155883789,-0.5903295501397271,-2.1335107425749302,-7.862624887448549,-0.3101202122615352,0.000500089954584837,-0.0001541823148727417,5.45872250201106,-0.004501700401306152
1745973171164314600,1.385314697265625,-0.26703714538123563,-0.005776116158813238,-0.0550401002233908,-0.04928755760192871,-0.18777087748776342,0.9301380217203263,-0.4801581520655289,left,0.003830254077911377,-0.591229545952935,-2.1484762565165756,-7.8534514009118075,-0.310734602924134,-0.032606612890958786,0.009797811508178711,5.46605240650773,0.0010199546813964844
1745973171204314600,1.425314697265625,-0.2688885233374065,0.0342383086681366,-0.0558941770283552,-0.08570194989442825,-0.18705037240837719,0.9300400792156429,-0.47941974299577755,left,0.002686619758605957,-0.592154998995011,-2.16166760039255,-7.8445806967139236,-0.31130941137784457,-0.022220712155103683,0.011122718453407288,5.473585140100121,-0.002139866352081299
1745973171244314600,1.465314697265625,-0.2717456344554718,0.05387338250875473,-0.05751669778663166,-0.10759393125772476,-0.18514208045045305,0.9300781492662153,-0.4765234160056569,left,0.00830388069152832,-0.5933544568340533,-2.182307652839273,-7.832042117658257,-0.3120397811574627,-0.006995992735028267,0.01431998610496521,5.48334139496088,-0.01583307981491089
1745973171284314600,1.505314697265625,-0.27392986091460725,0.012292016297578812,-0.058710891052792764,-0.10838276147842407,-0.18397530096484652,0.9300911384273352,-0.4748741325961737,left,-0.0038505196571350098,-0.5939583030359517,-2.1985132299698886,-7.824067485517263,-0.31246856058113764,-0.006023493129760027,-0.0014100819826126099,5.488249625268578,-0.019573211669921875
1745973171324315000,1.54531494140625,-0.2753133853624819,0.018122613430023193,-0.05942701216659223,-0.05489480867981911,-0.18344456609828264,0.9300832454572003,-0.4742401657718267,left,-0.01891958713531494,-0.5941598397844113,-2.209035208506137,-7.819954204979538,-0.31266873535244016,-0.013076387345790863,-0.002962082624435425,5.48988745560348,-0.004340410232543945
1745973171364315000,1.58531494140625,-0.2750705591726304,0.06288768351078033,-0.05963532848753233,0.004691917449235916,-0.18228273314172588,0.9302535608173501,-0.4717660992287303,left,-0.004747450351715088,-0.5946627332430177,-2.2063861553020776,-7.8178323905199765,-0.31280202598343476,-0.019637830555438995,-0.01040579378604889,5.493973263612389,0.0016454458236694336
1745973171404315000,1.62531494140625,-0.2740986964567552,0.04732822999358177,-0.059366944179752766,0.010242108255624771,-0.1816760295262635,0.9303671161049797,-0.47022694992098085,left,-0.0015270709991455078,-0.5951016356752541,-2.1981343136548994,-7.817650604212283,-0.31286790577903173,-0.020059527829289436,-0.007005661725997925,5.497538262617588,-0.007501721382141113
1745973171444314600,1.665314697265625,-0.273646673201893,0.0323478989303112,-0.05927075963232651,0.015629006549715996,-0.1812972519538535,0.9304351917778284,-0.46930846152948835,left,-0.014180958271026611,-0.5953299218426894,-2.1942611254833637,-7.81743491563499,-0.31290368480142977,-0.02482304908335209,-0.0009562671184539795,5.499391781529784,-0.007613182067871094
1745973171484314600,1.705314697265625,-0.27200074587285,0.03882204368710518,-0.05866453846853254,0.05398843437433243,-0.18112969427243097,0.9305814264074629,-0.46837355198801756,left,-0.014326751232147217,-0.5952268413997055,-2.1815435365989804,-7.821582098442316,-0.3126799878879083,-0.015538829378783703,0.0012253373861312866,5.4985547461837525,-0.0008203387260437012
1745973171524314600,1.745314697265625,-0.2693843577133808,0.03246506676077843,-0.05756476042624305,0.04515118524432182,-0.18094755791009012,0.9306996651208921,-0.4672070151403728,left,-0.0034943222999572754,-0.5957281674509282,-2.1603379592239857,-7.824604661133885,-0.3126379347059308,-0.030131440609693527,0.0005883276462554932,5.50262477210164,-0.0008029341697692871
1745973171564315000,1.78531494140625,-0.26706464367505944,0.04443148896098137,-0.05652107671540129,0.02595910057425499,-0.18053717501111863,0.930713162298931,-0.4658323857083539,left,-0.0014078617095947266,-0.5971217393676579,-2.1401554412864146,-7.822190585729479,-0.3130249691583098,-0.03416070714592934,0.00287821888923645,5.513931763535738,0.005480468273162842
1745973171604315000,1.82531494140625,-0.26522975539522087,0.039565518498420715,-0.055841007437705203,-0.0015039239078760147,-0.17968746042601605,0.9307946968085123,-0.46365607478487114,left,0.0041501522064208984,-0.5984255405853712,-2.123912747015804,-7.819161008775234,-0.3133935852229755,-0.000011641532182693481,-0.003828883171081543,5.524500503823161,-0.002504289150238037
1745973171644315000,1.86531494140625,-0.2650071557459705,0.024364149197936058,-0.05593014537714241,-0.011794090270996094,-0.1791824573750158,0.930915026130742,-0.46248203440160074,left,-0.0004023313522338867,-0.5983565894049492,-2.1222719940714536,-7.8200009667307135,-0.3133093416826574,0.015005429275333881,-0.004001453518867493,5.5239417008966205,-0.0019162893295288086
1745973171684314600,1.905314697265625,-0.2652176906830208,0.018934912979602814,-0.05618466466034331,-0.013645131140947342,-0.17878652454369656,0.9310104567751945,-0.4616582961348617,left,-0.0016318559646606445,-0.5981407954181098,-2.1242307269237934,-7.820704146564006,-0.3132065532935879,0.013114607892930508,-0.0035762935876846313,5.5221933959245675,0.0014501214027404785
1745973171724314600,1.945314697265625,-0.26529689547421637,0.01113242469727993,-0.05640350202546473,-0.003335709683597088,-0.1784095519765863,0.931132516099178,-0.4607991248758598,left,-0.003136575222015381,-0.5977677247349445,-2.125390126091987,-7.822523178684711,-0.31301910780656755,0.010679436847567558,-0.0026912838220596313,5.519169664189219,-0.0023326873779296875
1745973171764314600,1.985314697265625,-0.26521156165885285,0.0025749243795871735,-0.05643595522810041,0.0011573308147490025,-0.17832073996758954,0.9311892501937151,-0.4605312062894677,left,-0.0015216469764709473,-0.597529653320617,-2.1250670316174625,-7.823972792971134,-0.3128951982369252,0.012358221225440502,-0.001902654767036438,5.517239572909474,-0.004468858242034912
1745973171804314600,2.025314697265625,-0.26521156165885285,-0.005982575938105583,-0.05643595522810041,0.005650371313095093,-0.17832073996758954,0.9311892501937151,-0.4605312062894677,left,-0.00005453824996948242,-0.597529653320617,-2.1250670316174625,-7.823972792971134,-0.3128951982369252,0.014037005603313446,-0.0010810494422912598,5.517239572909474,-0.0068018436431884766
1745973171844315000,2.06531494140625,-0.2654033004420237,-0.010185826569795609,-0.05666885064874757,0.005523523315787315,-0.17865914394239388,0.9313580333377971,-0.460979917396399,left,-0.0013934969902038574,-0.5958480015171495,-2.1289977951951324,-7.8325073970824475,-0.31215688271439557,0.015585403889417648,-0.0008609592914581299,5.503598001047968,-0.003289639949798584
1745973171884315000,2.10531494140625,-0.2654033004420237,0.0024318965151906013,-0.05666885064874757,-0.0023034969344735146,-0.17865914394239388,0.9313580333377971,-0.460979917396399,left,0.0016674995422363281,-0.5958480015171495,-2.1289977951951324,-7.8325073970824475,-0.31215688271439557,-0.0009118057787418365,0.00028774142265319824,5.503598001047968,0.0015050172805786133
1745973171924314600,2.145314697265625,-0.2654623495230491,0.0015171440318226814,-0.05672520962137329,0.004076563287526369,-0.1785979780723156,0.9313767157528066,-0.46085367012110084,left,-0.0020009875297546387,-0.5957759121133822,-2.1295641969062387,-7.83276400219202,-0.3121256747224142,-0.0028291072230786085,-0.0003678649663925171,5.5030128946363925,-0.0021229982376098633
1745973171964314600,2.185314697265625,-0.26527246692788153,0.004524742253124714,-0.05669004222137966,0.009410629980266094,-0.17877403379389584,0.9314476037017954,-0.4610370617499338,left,-0.005993664264678955,-0.5951319404474634,-2.1290055401101706,-7.83658677535057,-0.31181970335331927,0.01635962352156639,0.0005239993333816528,5.4977843463331455,0.0016921162605285645
1745973172004314600,2.225314697265625,-0.26436185448593674,0.017022019252181053,-0.056514350196302195,0.00531093729659915,-0.1786215659158561,0.9316669733248287,-0.4602131042455982,left,-0.0019078850746154785,-0.5941862653212213,-2.1232260799258946,-7.843536740618943,-0.3112829240010959,0.025898974388837814,-0.0002352893352508545,5.490102559658885,-0.0001157522201538086
1745973172044314600,2.265314697265625,-0.2636800800548386,0.012037661857903004,-0.056451131243876775,0.0016123801469802856,-0.17839137644608816,0.9318808848197495,-0.4593095325212244,left,-0.00011754035949707031,-0.5932877167638441,-2.1191629221402106,-7.849742024999856,-0.31078580329484007,0.022381089627742767,0.0027286261320114136,5.482798958647251,-0.0006377100944519043
1745973172084315000,2.30531494140625,-0.2633160028127276,0.0064413114450871944,-0.056482458374143854,-0.002992244902998209,-0.17821046446429306,0.9320483309661878,-0.4586441101194849,left,0.0006825923919677734,-0.5925159737074966,-2.1174057032093403,-7.854596479293703,-0.3103816592720184,0.022373463958501816,0.0035000890493392944,5.476522362595796,-0.001404106616973877
1745973172124315000,2.34531494140625,-0.2631871578939266,0.0025252974592149258,-0.056589073114552836,-0.0023718969896435738,-0.1781257782633477,0.9321927879895008,-0.458250876015497,left,0.0005762577056884766,-0.591679696205804,-2.117584420777112,-7.859288436502218,-0.30997660469768124,0.020358992740511894,0.0037810802459716797,5.469717358756065,0.0008355975151062012
1745973172164314600,2.385314697265625,-0.26281121807907126,0.013815682381391525,-0.05662638419371206,-0.0016656791558489203,-0.17790871945397832,0.932367127624752,-0.4575054488145078,left,-0.0007480382919311523,-0.5909104831972285,-2.1157221340365706,-7.864144644361734,-0.30957011869216056,0.022532382979989052,0.0027997493743896484,5.463454206708073,0.002682626247406006
1745973172204314600,2.425314697265625,-0.2623104443060404,0.010624394752085209,-0.05662511932088541,-0.006106650456786156,-0.17759645688020428,0.9325500282427106,-0.4565378962582838,left,0.0022774338722229004,-0.5902553030106751,-2.1127114079132676,-7.868658906915783,-0.30919841836590917,0.020329724997282028,0.001405179500579834,5.458117521855235,-0.002001166343688965
1745973172244314600,2.465314697265625,-0.26210370228420293,0.004286218900233507,-0.05670329972349241,-0.005945471115410328,-0.1773668422918463,0.9326864324281795,-0.4558645115138158,left,-0.0000966191291809082,-0.5896944716932013,-2.1118774413071573,-7.872050302919745,-0.3089042959429289,0.01662108115851879,0.0013891011476516724,5.453547729721665,-0.0026916861534118652
1745973172284314600,2.505314697265625,-0.26237750361901657,-0.012817583978176117,-0.05687760172149588,-0.007370298728346825,-0.17739053097908328,0.9327290484709707,-0.45591837439431876,left,-0.001508176326751709,-0.5892574564334054,-2.114650705412775,-7.873772888928651,-0.308730041600962,0.00613030232489109,-0.0006665289402008057,5.4499850688040254,-0.004555225372314453
1745973172324315000,2.54531494140625,-0.26300287955730156,-0.012644389644265175,-0.057086176893171955,-0.0063516804948449135,-0.17763646671796232,0.9326737790163656,-0.4566139497534346,left,-0.0018259286880493164,-0.5890642393707552,-2.119848127925396,-7.873465430414676,-0.3087169406628717,-0.0020556701347231865,-0.0020907074213027954,5.44840978231132,-0.00019866228103637695
1745973172364315000,2.58531494140625,-0.26300287955730156,0.008059997111558914,-0.057086176893171955,-0.0061403913423419,-0.17763646671796232,0.9326737790163656,-0.4566139497534346,left,0.0013325214385986328,-0.5890642393707552,-2.119848127925396,-7.873465430414676,-0.3087169406628717,-0.009713965468108654,-0.0031309276819229126,5.44840978231132,0.0017545223236083984
1745973172404315000,2.62531494140625,-0.26313149038016503,0.02676966041326523,-0.05712104687298313,-0.007967391982674599,-0.17731391469586255,0.9326127424611803,-0.4561254038211855,left,0.0007382035255432129,-0.5898633019055275,-2.119727570285648,-7.868986823695898,-0.309080133867379,-0.018742892891168594,-0.0015332698822021484,5.454923694249987,-0.0006028413772583008
1745973172444314600,2.665314697265625,-0.2629437193481644,0.03884126991033554,-0.057048931910277455,-0.01472522784024477,-0.17667889945324808,0.9325557808545742,-0.45496382144881,left,0.0013931989669799805,-0.5911700956897316,-2.116395357123017,-7.862494539067149,-0.30962845268890565,-0.02984735369682312,-0.001688629388809204,5.46556842238307,-0.002556145191192627
1745973172484314600,2.705314697265625,-0.26311624790511884,0.026635529473423958,-0.05710819097177757,-0.021591953933238983,-0.17599850708189244,0.932454528524817,-0.45386788401768396,left,0.0017140507698059082,-0.5926931325613362,-2.115584333001077,-7.854082100030779,-0.310309366826287,-0.03133726865053177,-0.0028640180826187134,5.477963209053874,-0.006818950176239014
1745973172524314600,2.745314697265625,-0.26384808258479914,0.0179907213896513,-0.057366428045726836,-0.02413039095699787,-0.1755421791320025,0.9323157906305322,-0.4533860995157611,left,-0.0014021992683410645,-0.5939521054379989,-2.1195311709307134,-7.845867229393124,-0.31093600259134385,-0.03029913455247879,-0.0036088377237319946,5.488199356386065,-0.000102996826171875
1745973172564315000,2.78531494140625,-0.2644844473020743,0.014174981974065304,-0.057577730659956874,-0.015792671591043472,-0.17516187124264251,0.9321845207628561,-0.4530133226989842,left,-0.002302408218383789,-0.5950963353607226,-2.12288062748909,-7.838450231134891,-0.3115045170968012,-0.023520369082689285,-0.0034024864435195923,5.497495007997751,-0.0009751319885253906
1745973172604315000,2.82531494140625,-0.2647287449841747,0.010121621191501617,-0.05766074408015863,-0.003095753490924835,-0.17494112143210577,0.932126688874563,-0.4527398135124363,left,-0.0022509098052978516,-0.5956830349416982,-2.1239513254605233,-7.8348174275904885,-0.31178634592750715,-0.008560788817703724,-0.0018879175186157227,5.502258861398697,-0.000055909156799316406
1745973172644315000,2.86531494140625,-0.2647287449841747,0.008102351799607277,-0.05766074408015863,0.0032294918783009052,-0.17494112143210577,0.932126688874563,-0.4527398135124363,left,0.0019561052322387695,-0.5956830349416982,-2.1239513254605233,-7.8348174275904885,-0.31178634592750715,-0.0011083497665822506,0.0001798868179321289,5.502258861398697,-0.0017055869102478027
1745973172684314600,2.905314697265625,-0.2647287449841747,-0.0024836761876940727,-0.05766074408015863,0.0165928415954113,-0.17494112143210577,0.932126688874563,-0.4527398135124363,left,-0.005948066711425781,-0.5956830349416982,-2.1239513254605233,-7.8348174275904885,-0.31178634592750715,-0.001748362323269248,0.0010030418634414673,5.502258861398697,-0.0025293827056884766
1745973172724314600,2.945314697265625,-0.263835638924064,-0.0008014896884560585,-0.05721271029509714,0.018056590110063553,-0.17509358594942248,0.9321245202275541,-0.45280346246165354,left,0.00028192996978759766,-0.5958577399627482,-2.116702377245575,-7.835783057752251,-0.3117899105148871,-0.0039481669664382935,-0.000280722975730896,5.503676911503076,0.0011756420135498047
1745973172764314600,2.985314697265625,-0.26304349149381556,0.017196103930473328,-0.056902142280641256,0.012647120282053947,-0.1750511088241403,0.9321812181844717,-0.4524433769782213,left,0.000485837459564209,-0.5958377262668744,-2.110523396349698,-7.8375640959501265,-0.3117011340470655,0.0045699914917349815,0.0007897019386291504,5.503514414417744,0.003550231456756592
1745973172804314600,3.025314697265625,-0.26304349149381556,0.03519369661808014,-0.056902142280641256,0.007237652316689491,-0.1750511088241403,0.9321812181844717,-0.4524433769782213,left,0.0005081295967102051,-0.5958377262668744,-2.110523396349698,-7.8375640959501265,-0.3117011340470655,0.013088149949908257,0.002490222454071045,5.503514414417744,0.00590825080871582
1745973172844315000,3.06531494140625,-0.2604574172361307,0.061658743768930435,-0.056164956973599064,0.008603382855653763,-0.1740872192434853,0.9325211510151882,-0.4494965763934106,left,0.0000018477439880371094,-0.5957625230032872,-2.0903543224155903,-7.843395870843529,-0.3113576970835121,0.013220539316534996,0.000009149312973022461,5.502904173564911,0.000021457672119140625
1745973172884315000,3.10531494140625,-0.2586518158484114,0.05046031251549721,-0.05575022157765844,-0.008154282346367836,-0.1728862923260161,0.9327838140511433,-0.4464051242850272,left,0.004583239555358887,-0.5961984626363269,-2.0755749786958098,-7.8448367173016065,-0.31131423284938087,0.015770617872476578,-0.0035941004753112793,5.5064422845631835,-0.00532299280166626
1745973172924314600,3.145314697265625,-0.2572998710579818,0.02452254481613636,-0.055465070357376516,0.016981417313218117,-0.17220806319587775,0.9330322020086539,-0.444437162626559,left,-0.0028284788131713867,-0.5958792694310269,-2.0654145269483326,-7.849335197764635,-0.31099664450417114,0.018256500363349915,-0.0005182623863220215,5.503851683548093,0.00012958049774169922
1745973172964314600,3.185314697265625,-0.25613104723585267,0.015103058889508247,-0.05505168341039305,0.0151752270758152,-0.17198661942373128,0.9331366218605779,-0.44357615264948047,left,0.0050109028816223145,-0.5958951443663275,-2.0562164904922247,-7.851659841319918,-0.31087952961787857,0.002646840177476406,0.0008651018142700195,5.503980278363824,-0.0010173320770263672
1745973173004314600,3.225314697265625,-0.25613104723585267,-0.010253135114908218,-0.05505168341039305,0.021329838782548904,-0.17198661942373128,0.9331366218605779,-0.44357615264948047,left,-0.00303494930267334,-0.5958951443663275,-2.0562164904922247,-7.851659841319918,-0.31087952961787857,-0.015889007598161697,0.002978309988975525,5.503980278363824,-0.000014543533325195312
1745973173044314600,3.265314697265625,-0.25546865795899376,-0.004858360160142183,-0.054450330825719415,0.005540642887353897,-0.17255639442752974,0.9329386127850371,-0.4447517655887629,left,0.001103520393371582,-0.5967875135368158,-2.049773159571737,-7.848264353662729,-0.31126361502195904,-0.02028961107134819,0.004584789276123047,5.511221335533261,0.0049498677253723145
1745973173084315000,3.30531494140625,-0.2555331508975714,0.035281334072351456,-0.054611460494309975,-0.03828437626361847,-0.17216031723893618,0.9330102776771048,-0.44392131891534936,left,0.008909642696380615,-0.5967727718412319,-2.0502998137943447,-7.848210577648878,-0.3112397890627624,0.01993989199399948,0.0011339187622070312,5.511101508545876,0.004725158214569092
1745973173124315000,3.34531494140625,-0.2559248874360683,0.03523731976747513,-0.05520391054322619,-0.04544832184910774,-0.17104590002958198,0.9332489592636545,-0.4415884809659623,left,-0.0010455846786499023,-0.5963906359166133,-2.0539071906365454,-7.8494439188361165,-0.31103419112595004,0.014341874048113823,0.0006940364837646484,5.508001204442977,-0.0015795230865478516
1745973173164314600,3.385314697265625,-0.25658914888323103,0.0073057617992162704,-0.0556377076340805,-0.01720888912677765,-0.17035961905367583,0.9332698341052921,-0.4404298753780353,left,-0.0027053356170654297,-0.5968530855901715,-2.0584740601606666,-7.845613546893,-0.3112707801220785,-0.006348956376314163,-0.001722186803817749,5.511752665930986,-0.006594538688659668
1745973173204314600,3.425314697265625,-0.25658914888323103,0.001780638936907053,-0.0556377076340805,-0.004724385216832161,-0.17035961905367583,0.9332698341052921,-0.4404298753780353,left,-0.0007292628288269043,-0.5968530855901715,-2.0584740601606666,-7.845613546893,-0.3112707801220785,0.00017701834440231323,-0.004868373274803162,5.511752665930986,0.0044525861740112305
1745973173244314600,3.465314697265625,-0.25658914888323103,-0.004200939554721117,-0.0556377076340805,-0.009059274569153786,-0.17035961905367583,0.9332698341052921,-0.4404298753780353,left,0.002713501453399658,-0.5968530855901715,-2.0584740601606666,-7.845613546893,-0.3112707801220785,0.01406217273324728,-0.0049593448638916016,5.511752665930986,0.0006158351898193359
1745973173284314600,3.505314697265625,-0.25790085282015834,-0.012005014345049858,-0.05632693302163553,-0.0024692672304809093,-0.17042659039252447,0.9333433298053068,-0.44079495759197584,left,-0.0010578036308288574,-0.595755216547845,-2.0703055138602853,-7.8487524294406175,-0.3108894775363042,0.01993456669151783,-0.0024792999029159546,5.502844552332163,0.0015153884887695312
1745973173324315000,3.54531494140625,-0.2584515055266953,-0.018651805818080902,-0.05663380726066087,-0.010799743235111237,-0.17065911408042597,0.9334177966034007,-0.441275704908019,left,0.0029873251914978027,-0.5947350388563519,-2.0760608625166115,-7.853034636804461,-0.3104823266227816,0.028507322072982788,-0.0038468241691589355,5.494560708111524,-0.0036719441413879395
1745973173364315000,3.58531494140625,-0.258869694369071,-0.0014585796743631363,-0.05694191711941882,-0.01280477736145258,-0.170715261471084,0.9335291332692724,-0.4413375000049707,left,0.005236268043518066,-0.593732365771663,-2.0807539887689055,-7.857487524560093,-0.3100600736309979,0.0170469731092453,-0.0018078237771987915,5.486413642013073,0.0004636049270629883
1745973173404315000,3.62531494140625,-0.258869694369071,-0.0037697218358516693,-0.05694191711941882,0.015769973397254944,-0.170715261471084,0.9335291332692724,-0.4413375000049707,left,-0.005843400955200195,-0.593732365771663,-2.0807539887689055,-7.857487524560093,-0.3100600736309979,-0.009705102071166039,0.00007730722427368164,5.486413642013073,-0.002291560173034668
1745973173444314600,3.665314697265625,-0.2579693080281062,-0.00923437625169754,-0.056306468423533956,0.05265112966299057,-0.17113440607475716,0.9333874425365195,-0.4420939661325945,left,-0.012435197830200195,-0.5945329433048635,-2.0725572383098303,-7.855108520469069,-0.3103715685127226,-0.03391588479280472,0.003916695713996887,5.492918786123394,-0.000652313232421875
1745973173484314600,3.705314697265625,-0.2567781948031537,0.004680466838181019,-0.05559556573163731,-0.0000032782554626464844,-0.1714409190763873,0.9332896316313924,-0.4425018922685557,left,0.01493072509765625,-0.5952826384434883,-2.062153040934354,-7.853586425468325,-0.3106246382851404,-0.004509067162871361,-0.0019550472497940063,5.49900775064826,-0.001462101936340332
1745973173524314600,3.745314697265625,-0.25685871071592226,0.02656031772494316,-0.05581038541985328,-0.019320489838719368,-0.17107024447083777,0.9334083189506935,-0.44165974785738127,left,0.0005035400390625,-0.5949023663833093,-2.0633163856253027,-7.85544228246808,-0.3104337498841616,0.007045998238027096,0.00035659968852996826,5.495919721505046,0.001216888427734375
1745973173564315000,3.78531494140625,-0.2566379575955419,0.01599782146513462,-0.05586321083661445,-0.00745805911719799,-0.17052602043397164,0.93348554611216,-0.44046728649460287,left,-0.0029183030128479004,-0.5951421106537039,-2.0612477626577017,-7.85462278277874,-0.3104915239676546,-0.000551918987184763,-0.002612665295600891,5.497866763919592,-0.0032907724380493164
1745973173604315000,3.82531494140625,-0.2566379575955419,0.0016103638336062431,-0.05586321083661445,0.004162278026342392,-0.17052602043397164,0.93348554611216,-0.44046728649460287,left,0.00017118453979492188,-0.5951421106537039,-2.0612477626577017,-7.85462278277874,-0.3104915239676546,-0.0007207035087049007,-0.0028986483812332153,5.497866763919592,0.00032329559326171875
1745973173644315000,3.86531494140625,-0.2566379575955419,0.006440387573093176,-0.05586321083661445,0.011043993756175041,-0.17052602043397164,0.93348554611216,-0.44046728649460287,left,0.0043561458587646484,-0.5951421106537039,-2.0612477626577017,-7.85462278277874,-0.3104915239676546,-0.007505364716053009,-0.001396864652633667,5.497866763919592,0.0030063986778259277
1745973173684314600,3.905314697265625,-0.25602345669932564,0.009423695504665375,-0.05559296178760124,0.004674232564866543,-0.1703685594716592,0.9334843545434738,-0.4400123974034207,left,-0.0028854012489318848,-0.5955860160377026,-2.055802502863854,-7.853526219713688,-0.3106300332403772,-0.0004512281157076359,-0.001448512077331543,5.501470925891399,0.0033840537071228027
1745973173724314600,3.945314697265625,-0.25602345669932564,0.012166382744908333,-0.05559296178760124,0.012077531777322292,-0.1703685594716592,0.9334843545434738,-0.4400123974034207,left,-0.0008410811424255371,-0.5955860160377026,-2.055802502863854,-7.853526219713688,-0.3106300332403772,0.0019440343603491783,0.00043480098247528076,5.501470925891399,-0.0003859996795654297
1745973173764314600,3.985314697265625,-0.25486179904397976,0.0031535346060991287,-0.055152119973212725,0.010680624283850193,-0.17015554178040163,0.9335599545407214,-0.43920744387229316,left,-0.0005388855934143066,-0.5957803666182363,-2.046408359313756,-7.854874127191304,-0.3105980061042645,0.003027985105291009,0.0012025386095046997,5.5030485504716635,0.00028502941131591797
1745973173804314600,4.025314697265625,-0.25486179904397976,0.0025099993217736483,-0.055152119973212725,-0.011680983938276768,-0.17015554178040163,0.9335599545407214,-0.43920744387229316,left,0.005690276622772217,-0.5957803666182363,-2.046408359313756,-7.854874127191304,-0.3105980061042645,0.011601468548178673,-0.0009457021951675415,5.5030485504716635,-0.0004818439483642578
1745973173844315000,4.06531494140625,-0.25486179904397976,0.0030064263846725225,-0.055152119973212725,-0.00599580816924572,-0.17015554178040163,0.9335599545407214,-0.43920744387229316,left,-0.0005505084991455078,-0.5957803666182363,-2.046408359313756,-7.854874127191304,-0.3105980061042645,0.00022415164858102798,-0.0003454834222793579,5.5030485504716635,-0.0009906888008117676
1745973173884315000,4.10531494140625,-0.2550280322267553,-0.002733254572376609,-0.0553293685362228,0.007636581547558308,-0.16998799421771374,0.933631562211637,-0.43883635085574557,left,-0.0014736056327819824,-0.595434277868624,-2.0481945120781657,-7.8563763484477995,-0.3104431278981434,0.0011637916322797537,-0.0011033415794372559,5.50023933826983,-0.0010688304901123047
1745973173924314600,4.145314697265625,-0.2550280322267553,0.002455087611451745,-0.0553293685362228,0.0030020680278539658,-0.16998799421771374,0.933631562211637,-0.43883635085574557,left,0.003068268299102783,-0.595434277868624,-2.0481945120781657,-7.8563763484477995,-0.3104431278981434,0.0004910785355605185,0.00016705691814422607,5.50023933826983,0.0018715262413024902
1745973173964314600,4.185314697265625,-0.2550280322267553,0.004714286886155605,-0.0553293685362228,0.00653922650963068,-0.16998799421771374,0.933631562211637,-0.43883635085574557,left,0.0013355612754821777,-0.595434277868624,-2.0481945120781657,-7.8563763484477995,-0.3104431278981434,-0.002578649902716279,0.0005580633878707886,5.50023933826983,0.0013589262962341309
1745973174004314600,4.225314697265625,-0.2550280322267553,-0.010075448080897331,-0.0553293685362228,-0.005122605711221695,-0.16998799421771374,0.933631562211637,-0.43883635085574557,left,0.0012431740760803223,-0.595434277868624,-2.0481945120781657,-7.8563763484477995,-0.3104431278981434,-0.00020788377150893211,-0.0011692643165588379,5.50023933826983,-0.0006670951843261719
1745973174044314600,4.265314697265625,-0.2552761730423951,-0.027409618720412254,-0.05533483153660371,0.005321082659065723,-0.17044155929773777,0.9335858903031298,-0.43982208599446565,left,-0.0034444332122802734,-0.5950836205141334,-2.0506307993143795,-7.857733608275652,-0.31033069303097494,0.016281114891171455,-0.0010916143655776978,5.497392132145166,0.000998079776763916
1745973174084315000,4.30531494140625,-0.25561510607798404,-0.01393603254109621,-0.05547702866332734,-0.00015116529539227486,-0.17088112517216403,0.9336273107009443,-0.44068692615807264,left,0.001442253589630127,-0.5941136185723116,-2.054641203999519,-7.86219351029396,-0.30993868028668176,0.014683758839964867,-0.0014648884534835815,5.489512192550301,0.002582073211669922
1745973174124315000,4.34531494140625,-0.25561510607798404,0.012614726088941097,-0.05547702866332734,0.004415412899106741,-0.17088112517216403,0.9336273107009443,-0.44068692615807264,left,0.003813624382019043,-0.5941136185723116,-2.054641203999519,-7.86219351029396,-0.30993868028668176,0.003977574408054352,-0.00012233853340148926,5.489512192550301,-0.0015207529067993164
1745973174164314600,4.385314697265625,-0.2550493670108457,0.02004539594054222,-0.055433261734278615,-0.007762966211885214,-0.1705086660353064,0.9337917107251839,-0.43961447848800833,left,0.001708388328552246,-0.5936680248953615,-2.050809809143096,-7.865721099898218,-0.30965625460608087,0.011920224875211716,-0.003908008337020874,5.4858904949218035,-0.0022131800651550293
1745973174204314600,4.425314697265625,-0.25409931590502827,0.022296292707324028,-0.055186756562604314,0.0043127392418682575,-0.17001649604472885,0.9339203164251162,-0.4382644832662208,left,-0.00018662214279174805,-0.5937659933475576,-2.0432009415745735,-7.867145579743385,-0.30958299922679144,0.0026652002707123756,-0.0019572824239730835,5.486686613735556,0.000436246395111084
1745973174244314600,4.465314697265625,-0.2540957129104058,0.0037338342517614365,-0.05528612522293745,-0.011665118858218193,-0.1697368390792684,0.9339792300000385,-0.4376539264331652,left,0.004309713840484619,-0.5937119321727371,-2.043247118803859,-7.867440178775787,-0.30954101766346476,0.01141787227243185,-0.002280890941619873,5.486247637796402,-0.0013042688369750977
1745973174284314600,4.505314697265625,-0.25463003140231705,-0.01451418362557888,-0.05564421537891544,-0.009049216285347939,-0.16975037276790195,0.9340815636297543,-0.4376794547959231,left,-0.000500798225402832,-0.592782655383568,-2.0487338796518744,-7.871277564981579,-0.30916055009510585,0.029739927500486374,-0.0002922862768173218,5.478691523328423,0.0020066499710083008
1745973174324315000,4.54531494140625,-0.2552207656572813,-0.0170728862285614,-0.05603221020014405,-0.006394536700099707,-0.16998595923598744,0.9342162120156435,-0.4380961406657035,left,-0.0008108019828796387,-0.5913262262232916,-2.0553958217591046,-7.877779201960563,-0.3085538011471143,0.03977888450026512,0.0002446025609970093,5.466839757493138,0.0034440159797668457
1745973174364315000,4.58531494140625,-0.25554486533790505,0.0031888186931610107,-0.05633642571380105,-0.008970002643764019,-0.17008266385830212,0.9343721709493757,-0.4381512555055328,left,-0.000050187110900878906,-0.5899951468052047,-2.0597861656725405,-7.88414522986114,-0.30797186966720547,0.028274603188037872,0.001238510012626648,5.4559980454832315,0.0038971900939941406
1745973174404315000,4.62531494140625,-0.2555185807706758,0.019529802724719048,-0.056483542349725455,-0.006338451057672501,-0.1696878440521657,0.9344722416915107,-0.43726159146835086,left,0.0015544891357421875,-0.5898100577740826,-2.0598343887284396,-7.885176910996437,-0.30785950482881225,-0.0012828297913074493,0.0015930384397506714,5.45448939448595,-0.0002332925796508789
1745973174444314600,4.665314697265625,-0.2555185807706758,0.005185193382203579,-0.056483542349725455,-0.003912441898137331,-0.1696878440521657,0.9344722416915107,-0.43726159146835086,left,0.0012386441230773926,-0.5898100577740826,-2.0598343887284396,-7.885176910996437,-0.30785950482881225,-0.0018923761090263724,0.0003461092710494995,5.45448939448595,-0.004485487937927246
1745973174484314600,4.705314697265625,-0.2555185807706758,-0.00021295435726642609,-0.056483542349725455,-0.008870372548699379,-0.1696878440521657,0.9344722416915107,-0.43726159146835086,left,0.0022714734077453613,-0.5898100577740826,-2.0598343887284396,-7.885176910996437,-0.30785950482881225,-0.0067710913717746735,-0.005141526460647583,5.45448939448595,0.0004929304122924805
1745973174524314600,4.745314697265625,-0.25633498415145856,-0.00030725679243914783,-0.056856357207252996,-0.002519959583878517,-0.16924583848675964,0.9343986005015532,-0.43673013040780795,left,-0.003849506378173828,-0.5905579920990853,-2.065236101641506,-7.879543873545527,-0.30825709606050455,-0.0030056072864681482,-0.004774436354637146,5.460583619707823,0.002181112766265869
1745973174564315000,4.78531494140625,-0.2563570447269743,-0.010844369418919086,-0.05680074459502746,0.011792514473199844,-0.1694386611966128,0.9343613290669059,-0.43715167283820966,left,-0.0004360675811767578,-0.5905658380167401,-2.0653991832487284,-7.879456779783964,-0.30827452826060087,-0.00787764135748148,-0.0012075603008270264,5.4606473325937985,0.000447690486907959
1745973174604315000,4.82531494140625,-0.25679330815959395,-0.029170416295528412,-0.05679763671157476,-0.00623030960559845,-0.16984072135031564,0.9342142040034509,-0.4382233843668707,left,0.007016599178314209,-0.590909626234189,-2.068359494359046,-7.876738752996921,-0.3084997738138052,-0.019338982179760933,-0.0029326826333999634,5.4634477769672865,-0.007757723331451416
1745973174644315000,4.86531494140625,-0.2581631844246836,-0.03270234167575836,-0.05706134555321822,-0.004794016480445862,-0.17053538923127332,0.9339373030056611,-0.4402622761954268,left,0.0004666447639465332,-0.5914143283122806,-2.0784435198694466,-7.871231387752294,-0.3089059858135331,-0.024683639407157898,-0.004337921738624573,5.4675569658517835,0.0014269351959228516
1745973174684314600,4.905314697265625,-0.2588823827308167,0.01877085119485855,-0.057231805454600215,-0.006652161478996277,-0.17064352338388242,0.9337886923265136,-0.4408515509360594,left,-0.0012436509132385254,-0.5920233484563256,-2.0832510662816466,-7.866513711580634,-0.30926356469261146,-0.015394384041428566,-0.00630931556224823,5.472514295998216,0.007459104061126709
1745973174724314600,4.945314697265625,-0.25853313051780263,0.02138596400618553,-0.057131971595364796,0.00211380235850811,-0.1701872278066531,0.9337914542102991,-0.4398951534201555,left,0.00023365020751953125,-0.5927181067554914,-2.0795310228452086,-7.863563045081496,-0.30952511479039146,-0.013325718231499195,-0.0032958388328552246,5.478166622671485,-0.0018020868301391602
1745973174764314600,4.985314697265625,-0.2582770067367099,-0.008834563195705414,-0.05692392793568583,0.01316015888005495,-0.170120573847733,0.9337004874756115,-0.4398271051190727,left,-0.003391444683074951,-0.5935307532617227,-2.076379134685546,-7.85978878723979,-0.30987413298420324,-0.015996338799595833,-0.002072855830192566,5.484774642634392,-0.0015477538108825684
1745973174804314600,5.025314697265625,-0.25811649255178054,-0.019401755183935165,-0.05663155013070129,0.02201751247048378,-0.17058689979090444,0.9335572429446235,-0.440864199820859,left,-0.00043135881423950195,-0.5939958838984525,-2.0744661406710745,-7.857654697820544,-0.3101031673955715,-0.016017796471714973,-0.0010131746530532837,5.488555330216884,0.00014734268188476562
1745973174844315000,5.06531494140625,-0.2584189143541535,-0.02466757968068123,-0.05657157904858028,-0.00048590078949928284,-0.17108037772707768,0.9334292637266963,-0.4420497478905608,left,0.0049433112144470215,-0.5941371637202801,-2.0766440692320467,-7.856276979726553,-0.31022734453615214,-0.0020865947008132935,-0.0008526891469955444,5.489703331208228,0.00026112794876098633
1745973174884315000,5.10531494140625,-0.258825203312553,-0.012395698577165604,-0.05664758986868019,0.007184830494225025,-0.17147829087798364,0.9333707557066062,-0.4429864250503805,left,0.001682579517364502,-0.593878576642665,-2.0801992774955926,-7.85680538751483,-0.3101700784090008,0.0020660562440752983,0.0005308985710144043,5.4876019750148055,0.0024738311767578125
1745973174924314600,5.145314697265625,-0.258825203312553,0.00013656262308359146,-0.05664758986868019,0.006669283378869295,-0.17147829087798364,0.9333707557066062,-0.4429864250503805,left,-0.000518798828125,-0.593878576642665,-2.0801992774955926,-7.85680538751483,-0.3101700784090008,0.001983925234526396,0.0007195323705673218,5.4876019750148055,0.001898050308227539
1745973174964314600,5.185314697265625,-0.2578541022554094,0.020251117646694183,-0.056162903573767665,0.021181290969252586,-0.17165241822200614,0.9333713359760533,-0.44306727884140584,left,-0.001702427864074707,-0.5940331341083945,-2.0723520711265504,-7.858000734779238,-0.3101599321757897,-0.0020818710327148438,-0.0002513974905014038,5.488858112555742,0.006896317005157471
1745973175004314600,5.225314697265625,-0.25714758098890145,0.013064151629805565,-0.055985174127337174,-0.013285266235470772,-0.17127173030815068,0.9334709830303198,-0.44203085747696935,left,0.0067806243896484375,-0.5941042969759684,-2.0667004751056433,-7.859085607406497,-0.3101028957798842,0.009842416271567345,-0.0016259551048278809,5.489436204704642,-0.003457963466644287
1745973175044314600,5.265314697265625,-0.25714758098890145,-0.007129199802875519,-0.055985174127337174,-0.0010497188195586205,-0.17127173030815068,0.9334709830303198,-0.44203085747696935,left,-0.0014809966087341309,-0.5941042969759684,-2.0667004751056433,-7.859085607406497,-0.3101028957798842,0.004307447466999292,-0.0015492290258407593,5.489436204704642,-0.002197444438934326
1745973175084315000,5.30531494140625,-0.25714758098890145,-0.00930780079215765,-0.055985174127337174,0.003023071214556694,-0.17127173030815068,0.9334709830303198,-0.44203085747696935,left,0.000186920166015625,-0.5941042969759684,-2.0667004751056433,-7.859085607406497,-0.3101028957798842,0.002923128195106983,-0.00545676052570343,5.489436204704642,0.002395451068878174
1745973175124315000,5.34531494140625,-0.25714758098890145,0.005717037245631218,-0.055985174127337174,0.004328860901296139,-0.17127173030815068,0.9334709830303198,-0.44203085747696935,left,0.000011801719665527344,-0.5941042969759684,-2.0667004751056433,-7.859085607406497,-0.3101028957798842,0.011803975328803062,-0.007016286253929138,5.489436204704642,0.0016645193099975586
1745973175164314600,5.385314697265625,-0.25714758098890145,0.019115647301077843,-0.055985174127337174,0.010694487020373344,-0.17127173030815068,0.9334709830303198,-0.44203085747696935,left,-0.0028131604194641113,-0.5941042969759684,-2.0667004751056433,-7.859085607406497,-0.3101028957798842,-0.006087286397814751,-0.007810920476913452,5.489436204704642,0.014279186725616455
1745973175204314600,5.425314697265625,-0.25714758098890145,0.0037135276943445206,-0.055985174127337174,0.010643412359058857,-0.17127173030815068,0.9334709830303198,-0.44203085747696935,left,0.0000324249267578125,-0.5941042969759684,-2.0667004751056433,-7.859085607406497,-0.3101028957798842,0.00603482685983181,-0.0014443546533584595,5.489436204704642,-0.0007280707359313965
1745973175244314600,5.465314697265625,-0.2566602700912896,-0.020354608073830605,-0.05592753322016289,0.014993786811828613,-0.17136188806020783,0.9336476874212416,-0.44183773472209315,left,0.0008850693702697754,-0.5929593874428774,-2.064464386616647,-7.86616533653438,-0.30953075855073126,0.025651829317212105,-0.001149699091911316,5.480128862655162,-0.008243322372436523
1745973175284314600,5.505314697265625,-0.25705293109299054,-0.024589229375123978,-0.05609422457912956,0.005891956388950348,-0.17191120165096954,0.933700290427298,-0.4429062538542465,left,0.001972377300262451,-0.5917440713784984,-2.0692447527609765,-7.871789606156945,-0.30903698589977846,0.021017592400312424,-0.005343347787857056,5.470241090369224,-0.004332304000854492
1745973175324315000,5.54531494140625,-0.25705293109299054,-0.015224765986204147,-0.05609422457912956,0.006867961958050728,-0.17191120165096954,0.933700290427298,-0.4429062538542465,left,-0.0005725622177124023,-0.5917440713784984,-2.0692447527609765,-7.871789606156945,-0.30903698589977846,-0.004771707579493523,-0.005833253264427185,5.470241090369224,-0.004525303840637207
1745973175364315000,5.58531494140625,-0.25806873836705074,-0.021515553817152977,-0.05630526549674343,-0.012486552819609642,-0.17279733967784813,0.9335565724556646,-0.44503533875321205,left,0.016027629375457764,-0.5912079107434096,-2.0779880311869086,-7.872518504953384,-0.30893849186956335,0.0040660155937075615,-0.01013396680355072,5.465876465418934,-0.001231849193572998
1745973175404315000,5.62531494140625,-0.25968065009227737,0.05052090436220169,-0.057378329989927306,-0.03366609662771225,-0.17228532295267976,0.9337789438967008,-0.44417113628442384,left,-0.01641106605529785,-0.5896847417032274,-2.092810483396053,-7.877195849114656,-0.3083545234745995,0.07374842464923859,-0.0003204941749572754,5.453468234744667,0.015232086181640625
1745973175444314600,5.665314697265625,-0.2585022716984524,-0.009693276137113571,-0.05779950249043661,-0.009318387135863304,-0.17132271233497023,0.9345825781818549,-0.44095569667842077,left,-0.0052672624588012695,-0.5857844156839688,-2.088948255009949,-7.900159960594773,-0.30637096050063106,0.11839166283607483,0.005866318941116333,5.421637510719895,-0.035341620445251465
1745973175484314600,5.705314697265625,-0.2597517590984564,-0.10282458364963531,-0.05850328705279335,0.027599820867180824,-0.17234225321567015,0.9348068265473376,-0.44288131615214804,left,-0.0076604485511779785,-0.5823956019560814,-2.103524623503536,-7.915254653874039,-0.3049781806980465,0.032498784363269806,0.016041725873947144,5.39391422201395,-0.014203131198883057
1745973175524314600,5.745314697265625,-0.2609078821820474,-0.14457133412361145,-0.05822544817769775,0.06761199235916138,-0.17504535039910035,0.9343505945879387,-0.4488870434360011,left,-0.00960242748260498,-0.5816032750985031,-2.1137759684048594,-7.916944506657123,-0.3048901038146708,-0.06520506739616394,0.003409460186958313,5.38742310642898,0.0043528079986572266
1745973175564315000,5.78531494140625,-0.2624304188180909,-0.1343463659286499,-0.05773837774865657,0.03205433860421181,-0.17817578373247867,0.9335797347472597,-0.45621515753747943,left,0.022409379482269287,-0.5822425228064533,-2.1249334683656693,-7.910389093664288,-0.3055301459475067,-0.0568380206823349,-0.006729006767272949,5.3926604225605725,0.029949665069580078
1745973175604315000,5.82531494140625,-0.2638594537105064,-0.09061489254236221,-0.05755285821972179,0.03133272007107735,-0.1804920152717359,0.9330314654288713,-0.4616750339999365,left,0.006839334964752197,-0.5823836422761908,-2.1360370461821554,-7.906610159647465,-0.30588028895616004,-0.019561700522899628,-0.005258530378341675,5.393816022336483,0.0281255841255188
1745973175644315000,5.86531494140625,-0.2651637380685852,-0.0667295902967453,-0.057614308832879706,-0.016389988362789154,-0.18202322468690257,0.9326762379786885,-0.4653592051365852,left,0.03219020366668701,-0.5822525664148754,-2.1465330134943126,-7.904499451103806,-0.3060445810866708,0.01168128289282322,-0.007395640015602112,5.392742255625128,0.00998598337173462
1745973175684314600,5.905314697265625,-0.26664890221907966,-0.03337943181395531,-0.0579473966735426,-0.02552405744791031,-0.18273035903711315,0.9324035698252834,-0.467430384604424,left,0.014506757259368896,-0.5825822933343118,-2.157801280353218,-7.89958654462099,-0.3063907168685875,-0.027933301404118538,-0.010057896375656128,5.395442746755481,0.017715632915496826
1745973175724314600,5.945314697265625,-0.26575137333424087,0.005874983966350555,-0.05715867975273189,-0.0059621818363666534,-0.18265623742723283,0.9320779272411605,-0.46753652903283016,left,0.009960651397705078,-0.5853375433071901,-2.1467979480408133,-7.8871461652427906,-0.3075716776487847,-0.044569067656993866,-0.011499285697937012,5.417984833431244,0.002963840961456299
1745973175764314600,5.985314697265625,-0.25980313508010927,0.022662879899144173,-0.05486701672817614,0.013311227783560753,-0.18176684499498078,0.9324947431907645,-0.4638115153830014,left,0.049098432064056396,-0.586052878438871,-2.0988496174298223,-7.896029144400358,-0.3072526074868702,0.013940922915935516,-0.012936562299728394,5.423831221371889,-0.02083379030227661
1745973175804314600,6.025314697265625,-0.2575630936595369,0.010243755765259266,-0.05423695763509076,0.012112809345126152,-0.18138985761582296,0.9328573686586352,-0.46204173924420744,left,0.02626246213912964,-0.5849269500578295,-2.0827111141860484,-7.906611328691244,-0.306485517236884,0.06988193094730377,-0.005040779709815979,5.414628508740663,-0.013553202152252197
1745973175844315000,6.06531494140625,-0.2583194316788854,-0.036156654357910156,-0.054870980183911275,-0.012953683733940125,-0.18168234313179038,0.9331342444449625,-0.4623923284019146,left,-0.005138516426086426,-0.5822860105039048,-2.0923361438825725,-7.918830758795142,-0.3053541574961406,0.05587106943130493,0.0010486394166946411,5.393016396391391,-0.0009353160858154297
1745973175884315000,6.10531494140625,-0.25873509487262236,0.01513756439089775,-0.05514572845607331,-0.010905173607170582,-0.18187433784244889,0.9332218500837142,-0.46273204534825535,left,-0.0034415721893310547,-0.5812406132796134,-2.0970688714928922,-7.923406396147608,-0.30492236497890535,0.004157073795795441,-0.0027895867824554443,5.384450812619924,0.02253347635269165
1745973175924314600,6.145314697265625,-0.2580791301528888,0.06514032185077667,-0.05509017078161328,-0.00428989389911294,-0.18101603334116428,0.9333695885660326,-0.4607575730341271,left,-0.0020252466201782227,-0.5816394617535448,-2.0913227290563285,-7.922703800836205,-0.3049911651065501,0.0051973373629152775,-0.0006557703018188477,5.387719459027052,0.009301722049713135
1745973175964314600,6.185314697265625,-0.25589482166331157,0.06833914667367935,-0.054661008934301585,-0.001762062544003129,-0.17967680122172502,0.9337930409767968,-0.4571190426671868,left,0.00773310661315918,-0.5813536601328568,-2.0744016971327364,-7.928741911956667,-0.3045633914600278,0.0573926605284214,-0.0036800503730773926,5.385377279815078,-0.010971426963806152
1745973176004314600,6.225314697265625,-0.25448752496548926,0.05890093743801117,-0.0548045222593189,-0.030169714242219925,-0.1782536156923331,0.9343912454043004,-0.4532748716925615,left,0.0032639503479003906,-0.5796221901645794,-2.065586084122956,-7.940666158506274,-0.3035377766854706,0.07791639864444733,-0.01043654978275299,5.37117924311459,-0.0164870023727417
1745973176044314600,6.265314697265625,-0.2537731851403304,0.03764784336090088,-0.055302460910282965,-0.016678567975759506,-0.17701593740678798,0.9350315093109207,-0.4498939360064865,left,0.0004704594612121582,-0.577043881075924,-2.063383021120727,-7.9555176906794305,-0.30219714048400426,0.08242285996675491,-0.0066032856702804565,5.350006106704473,-0.031427085399627686
1745973176084315000,6.30531494140625,-0.25406681226740313,-0.02645936608314514,-0.055962709081849006,-0.00998007319867611,-0.17678963459969269,0.9354860303920274,-0.44891587900305496,left,-0.0027460455894470215,-0.574003019510455,-2.069798441120982,-7.970621151787042,-0.30079824694750035,0.05705060809850693,0.0034656375646591187,5.324989738869666,-0.04414263367652893
1745973176124315000,6.34531494140625,-0.2557128714965372,-0.06261038780212402,-0.056690553583010554,-0.007437741383910179,-0.17763076279353862,0.935515628389627,-0.4508525044720996,left,-0.008285701274871826,-0.5719902002719748,-2.085622471588105,-7.977557088530063,-0.3000732889856544,-0.00792626291513443,0.007302016019821167,5.30840334572792,-0.03275251388549805
1745973176164314600,6.385314697265625,-0.2580914572230541,-0.0685313269495964,-0.05722848191137797,-0.012345509603619576,-0.17905162871713298,0.9351055489497349,-0.4546590322816054,left,0.0010513067245483398,-0.5720143189486562,-2.104559227248281,-7.972450120779872,-0.30040486676762285,-0.0650453269481659,0.000245511531829834,5.308602083170413,-0.013607800006866455
1745973176204314600,6.425314697265625,-0.26149046886299565,-0.09855108708143234,-0.058138524808362985,-0.04866375774145126,-0.18054334148129328,0.9345911792885577,-0.45898761084813716,left,0.0018256306648254395,-0.5722374581218357,-2.1313392437547445,-7.964106070804595,-0.3009377116543069,-0.014723364263772964,-0.004658788442611694,5.310442158079147,-0.001541435718536377
1745973176244314600,6.465314697265625,-0.2646630825221938,-0.09666471928358078,-0.059258947535105966,-0.03577471524477005,-0.18212113575859953,0.9343662092455087,-0.4630043689555089,left,0.009580254554748535,-0.5703268049809945,-2.159245633942634,-7.967083040788769,-0.3004666507877081,0.036622680723667145,-0.0056710392236709595,5.294679940801859,0.027213215827941895
1745973176284314600,6.505314697265625,-0.2678243584454034,-0.11456996947526932,-0.06059074432839143,-0.01601809822022915,-0.18378650174936725,0.934329308345826,-0.4668934397796712,left,-0.005924344062805176,-0.5668964690794869,-2.189214509618282,-7.977685098823905,-0.29929924345796827,0.07251067459583282,-0.0005651116371154785,5.266333551761508,0.016871988773345947
1745973176324315000,6.54531494140625,-0.2697670074100751,-0.09878301620483398,-0.0611781122214928,0.018820518627762794,-0.1857818894297106,0.9341754130568138,-0.47126250742688863,left,0.0034102201461791992,-0.5643119295651277,-2.208328229280561,-7.9865090412706135,-0.29842688837400244,0.01868264377117157,0.00014929473400115967,5.244934789901971,0.0266990065574646
1745973176364315000,6.58531494140625,-0.2715422489506662,-0.07112109661102295,-0.061393373111681845,-0.022662868723273277,-0.1873425214608755,0.9337305176573765,-0.47521032183729556,left,0.021083354949951172,-0.5644991598484431,-2.222239265733212,-7.981630037057399,-0.29879923226326505,-0.03370791673660278,-0.008276045322418213,5.2464861109972,0.010881125926971436
1745973176404315000,6.62531494140625,-0.27469606529021207,-0.05699252709746361,-0.06217440539889216,-0.04430900141596794,-0.18830679032629716,0.9331472162343866,-0.478581281623424,left,0.009348630905151367,-0.5659242796718805,-2.2453704043433067,-7.9673770552992815,-0.29985190920572624,-0.04989064112305641,-0.00655171275138855,5.258288192471862,0.0020833611488342285
1745973176444314600,6.665314697265625,-0.27785572342337134,-0.03597136586904526,-0.06285477273615815,-0.018690405413508415,-0.1890377959647355,0.9324608230088531,-0.48168379954659596,left,-0.007443428039550781,-0.5684058752250267,-2.266947153118253,-7.947669899788498,-0.3013816291115333,-0.06727972626686096,-0.00663679838180542,5.278814263150096,0.0028336048126220703
1745973176484314600,6.705314697265625,-0.2786249106691163,-0.036157067865133286,-0.06253459539485894,0.05742797255516052,-0.1898414509733983,0.9319274173758066,-0.4841439253963609,left,-0.02548116445541382,-0.5707237063820796,-2.2696884146504104,-7.934138802564144,-0.3025903641256207,-0.059312351047992706,0.005486682057380676,5.297956185993552,-0.006064355373382568
1745973176524314600,6.745314697265625,-0.27735479541212954,-0.03901539370417595,-0.061435104843193686,0.058739110827445984,-0.19109269756704883,0.9316120301217219,-0.48662567076587293,left,-0.005473971366882324,-0.5717155513036214,-2.2581693879008293,-7.931957366871833,-0.30299908105902174,-0.02530922368168831,0.0012574642896652222,5.306138323405385,-0.0004153251647949219
1745973176564315000,6.78531494140625,-0.27698006971631495,-0.03418511524796486,-0.06100592350305357,0.006092522293329239,-0.19207709674165913,0.931472308782609,-0.488557449791037,left,0.002624988555908203,-0.5714312653748553,-2.2556093281544745,-7.934253368854522,-0.3028926116935703,-0.0033184681087732315,0.0022986233234405518,5.303793806105852,-0.0026320815086364746
1745973176604315000,6.82531494140625,-0.2773247747691721,-0.01279880665242672,-0.06109609075469568,-0.0115913525223732,-0.19257146966094008,0.9314392513190928,-0.4895947358910401,left,0.005424916744232178,-0.5707841308386763,-2.2592833404920993,-7.93677499628663,-0.30266212770211637,0.007293921895325184,0.0008488744497299194,5.298454783165455,-0.004284858703613281
1745973176644315000,6.86531494140625,-0.27791957431502634,0.01659272611141205,-0.06141712231203829,-0.014176162891089916,-0.19242347830196518,0.9314542428520862,-0.489438264988933,left,-0.001233816146850586,-0.570632416666422,-2.2642243040256202,-7.936202749356627,-0.30264533653973363,-0.006205357611179352,0.002780035138130188,5.297202737277746,0.0009477734565734863
1745973176684314600,6.905314697265625,-0.27764250696391785,0.03667785972356796,-0.06121023525333972,0.0036460990086197853,-0.19177165946023003,0.9313502488910688,-0.4883344856380042,left,-0.009170055389404297,-0.5724626255278361,-2.259364296773821,-7.927492788678407,-0.3034199403610954,-0.0702894926071167,0.004877209663391113,5.312298015078902,0.003609895706176758
1745973176724314600,6.945314697265625,-0.2767741143802677,0.016399705782532692,-0.060363865595158765,0.015934916213154793,-0.19132352105451209,0.9309616811318612,-0.48789149929732556,left,0.005581557750701904,-0.576271719575046,-2.2469337081372736,-7.909929659458994,-0.3050606883410637,-0.09755592048168182,0.01175864040851593,5.343658783504367,-0.010530829429626465
1745973176764314600,6.985314697265625,-0.27680327493137086,-0.02780097909271717,-0.059671496437519504,-0.0018170326948165894,-0.19164740046268766,0.9303852183197433,-0.489357127691763,left,0.01166003942489624,-0.5798697961559828,-2.24189542170912,-7.891317897969484,-0.3067475625167482,-0.09069380164146423,0.008199840784072876,5.373210456681251,-0.008695483207702637
1745973176804314600,7.025314697265625,-0.27895040072460325,-0.030718589201569557,-0.05990517856952113,-0.04989831894636154,-0.19219386913289085,0.9297367405693475,-0.4918460308030161,left,0.007366776466369629,-0.5827113683129411,-2.2546206093780694,-7.871776162153482,-0.3083220599004901,-0.07901804149150848,-0.002300173044204712,5.396499562332034,0.006593286991119385
1745973176844315000,7.06531494140625,-0.2815297293562023,-0.00021655671298503876,-0.060542379520890345,-0.044681236147880554,-0.19226737055658394,0.9292187650527755,-0.493377198934236,left,-0.0037294626235961914,-0.5851165289608952,-2.271304471544921,-7.853443217605352,-0.3097102641844814,-0.07120370864868164,-0.0068383365869522095,5.416178660792112,0.008111298084259033
1745973176884315000,7.10531494140625,-0.2833916475407314,0.044918909668922424,-0.060900454101096325,-0.04756081476807594,-0.19173507574801754,0.9287145713767424,-0.49360505616098904,left,0.0038219094276428223,-0.588595776542111,-2.2806400167755783,-7.8310607054054735,-0.31147737559284305,-0.09212864935398102,-0.013454034924507141,5.444589347240329,0.01643425226211548
1745973176924314600,7.145314697265625,-0.2851366791323357,0.09631742537021637,-0.061542918595956723,-0.10324215143918991,-0.19001965298040457,0.928402740459986,-0.49133496630835216,left,0.0177423357963562,-0.5924528495270012,-2.2883779175512493,-7.806858576563,-0.31332643817832034,-0.05478478968143463,-0.017868727445602417,5.476008567854762,0.01151365041732788
1745973176964314600,7.185314697265625,-0.2882688381313162,0.11194927990436554,-0.06336768146957966,-0.1499648243188858,-0.18728561811379754,0.9284296532931255,-0.48700440300149134,left,0.014625072479248047,-0.5947437130118142,-2.3092465180568396,-7.787605594560503,-0.31452690094610797,-0.004978541284799576,-0.01649095118045807,5.494631435260176,0.006378889083862305
1745973177004314600,7.225314697265625,-0.2912038941458453,0.08991105854511261,-0.06531625246740685,-0.11143690347671509,-0.18444642369738884,0.9286218995444789,-0.4821706774398289,left,-0.0019826889038085938,-0.5960499152276058,-2.3300308012798427,-7.7739120002508155,-0.31523735858974034,0.026053395122289658,-0.010804727673530579,5.50523641590476,-0.007225990295410156
1745973177044314600,7.265314697265625,-0.292673141953722,0.04762915521860123,-0.06654411979091487,-0.026559337973594666,-0.18268836881959127,0.9288989261773369,-0.4788475293421556,left,-0.019754469394683838,-0.5958861548762757,-2.341710279288143,-7.771343611067533,-0.3151882616366808,0.02552470564842224,-0.007676556706428528,5.503907213127612,-0.005271792411804199
1745973177084315000,7.30531494140625,-0.29217899768524985,0.020325792953372,-0.06653048369075112,0.01518499106168747,-0.18208348978812147,0.9290358242748694,-0.4773982947467797,left,-0.007714629173278809,-0.595980230038093,-2.337720625130087,-7.772004120802879,-0.3151377218812266,-0.007077086716890335,-0.008310899138450623,5.504671183237433,-0.003375709056854248
1745973177124315000,7.34531494140625,-0.29114216927787406,-0.005205851048231125,-0.06601429031492474,0.031110329553484917,-0.18221389895234266,0.9290369660819553,-0.4773873329758518,left,0.00003266334533691406,-0.5962540398274685,-2.3292283988557756,-7.772979103314876,-0.3151673768236075,-0.024963097646832466,-0.00484040379524231,5.506892950940132,-0.0024430155754089355
1745973177164314600,7.385314697265625,-0.29073025128076485,-0.016086598858237267,-0.06558733448434315,0.0319012850522995,-0.18270189747518423,0.9288877396624635,-0.4784187714879073,left,0.0028418302536010742,-0.596804746384296,-2.3251567655026912,-7.7710314763784405,-0.31541394873592365,-0.01872624084353447,-0.0017910897731781006,5.511361036264896,-0.001903533935546875
1745973177204314600,7.425314697265625,-0.2899556211869729,-0.00587718840688467,-0.06506930219985692,0.03661397099494934,-0.18323512872385708,0.9288159057026503,-0.4793283233209106,left,0.006454825401306152,-0.5969164226063183,-2.318960395080596,-7.772240852168202,-0.3154235231547827,-0.006062038242816925,-0.0029616504907608032,5.512266460672021,-0.00004673004150390625
1745973177244314600,7.465314697265625,-0.2887518162696037,0.01024025958031416,-0.0644225647808914,0.04658558592200279,-0.18351900912609942,0.9287879160324992,-0.4796035529421332,left,-0.004637718200683594,-0.5972495979284396,-2.3090793447963893,-7.773265519040822,-0.3154734553426643,-0.020635660737752914,-0.0018839240074157715,5.514968705368042,0.005900204181671143
1745973177284314600,7.505314697265625,-0.2870636362769127,-0.0007017292082309723,-0.06352392769753554,0.03791454806923866,-0.18369484341612305,0.9287335546205875,-0.4795981084954818,left,0.00020182132720947266,-0.5981194645103218,-2.294594307848066,-7.772548895204067,-0.31571349822362016,-0.0173201821744442,-0.0030655115842819214,5.52202037744522,-0.004113554954528809
1745973177324315000,7.54531494140625,-0.2866908909368359,-0.015624592080712318,-0.06313786597660832,0.015226393938064575,-0.18410475149100627,0.9285943390228869,-0.4804758602828012,left,0.002116680145263672,-0.598679095507353,-2.290822534224391,-7.770437602138519,-0.31596130257891214,-0.01815907284617424,0.0020262300968170166,5.52655451374352,0.00024503469467163086
1745973177364315000,7.58531494140625,-0.28707923059319745,-0.013377174735069275,-0.06311808558048324,-0.0044369176030159,-0.18455673793722285,0.9284581441863023,-0.48161454172413715,left,0.006187736988067627,-0.5988304143269635,-2.29360310485363,-7.768745411267876,-0.31610176847671206,-0.007143576629459858,-0.0008813142776489258,5.527780840668082,0.007064700126647949
1745973177404315000,7.62531494140625,-0.2880296162660764,0.0006560385227203369,-0.06347300195273833,-0.02380092442035675,-0.18458173448811946,0.9283703219544667,-0.48202665330483,left,0.005638778209686279,-0.5989888172070921,-2.30073690225631,-7.765722848576307,-0.31627440009348984,-0.004278627689927816,-0.0019665956497192383,5.529063866215944,0.00844109058380127
1745973177444314600,7.665314697265625,-0.2885979643089339,0.014864007011055946,-0.0637704359261093,-0.01898566633462906,-0.18422365596963008,0.9283553510580437,-0.48152410041643556,left,0.002169311046600342,-0.5993327535789965,-2.304608629123121,-7.762590395769476,-0.3164670137005137,0.000391621608287096,-0.002358555793762207,5.531849113020301,0.006353855133056641
1745973177484314600,7.705314697265625,-0.28860375403390015,0.01986197754740715,-0.06387588435335267,-0.016374463215470314,-0.1837571289412307,0.9283988453164645,-0.4805939865320154,left,0.005791664123535156,-0.5996663133528933,-2.3041282982602715,-7.760807604005932,-0.316589329947324,0.0030915262177586555,-0.004621565341949463,5.534549604150652,0.006713449954986572
1745973177524314600,7.745314697265625,-0.28765241989172746,0.02036297507584095,-0.06364547482320111,0.029981384053826332,-0.18330458977658276,0.9285533654537692,-0.4792875431573135,left,-0.0011278390884399414,-0.5996326651204396,-2.29679707858935,-7.763174917659163,-0.3164450735516864,0.030951041728258133,0.0035424232482910156,5.534277216950058,0.0003414750099182129
1745973177564315000,7.78531494140625,-0.2862198152758936,-0.027053626254200935,-0.06330778944036872,0.04633858799934387,-0.18357963600233249,0.9288889252438176,-0.4789444700720169,left,-0.007701396942138672,-0.5975721756514876,-2.288887766769528,-7.777380553144216,-0.31536659945498363,0.06552489101886749,0.0062799155712127686,5.517584440824389,-0.004797637462615967
1745973177604315000,7.82531494140625,-0.2836631891827857,-0.026286404579877853,-0.0623925246425312,0.08701048791408539,-0.1844730234263658,0.9292539464481672,-0.479432269282955,left,-0.011786818504333496,-0.5949378128934739,-2.2730565759092567,-7.797133885884285,-0.3139490183529826,0.062240418046712875,0.00949425995349884,5.496207890796661,0.003514528274536133
1745973177644315000,7.86531494140625,-0.28158698796708787,-0.004500165581703186,-0.06176502849869661,0.007286630570888519,-0.18508538118487505,0.9296390549160674,-0.4794887013410782,left,0.010227739810943604,-0.59232305901578,-2.260848982373625,-7.815614714470505,-0.3125694046509309,0.04766637086868286,-0.00452306866645813,5.474952921321988,0.008662402629852295
1745973177684314600,7.905314697265625,-0.28227505856405544,0.016467565670609474,-0.062489323335838294,-0.0684981420636177,-0.1846378374156076,0.9299377562794968,-0.4783820361026907,left,0.003982961177825928,-0.5905708112737137,-2.2688949261851605,-7.8232596762657165,-0.31180099188618854,0.05402886122465134,-0.014204367995262146,5.460687664604187,-0.0016832351684570312
1745973177724314600,7.945314697265625,-0.2845880458386825,0.008567549288272858,-0.06414821408818244,-0.07351340353488922,-0.18375066426043368,0.9303218342032721,-0.47672127945240367,left,-0.003194272518157959,-0.5881101814110099,-2.29074946898818,-7.83086313700676,-0.31084095623918445,0.08566054701805115,-0.010866031050682068,5.440628042393922,-0.004084944725036621
1745973177764314600,7.985314697265625,-0.28567259489559327,0.012694476172327995,-0.06523073793163212,-0.02240387350320816,-0.1831476555194727,0.9307471491504301,-0.4752236314532413,left,0.0034630894660949707,-0.5854853175720857,-2.3032576529055833,-7.8420491324096915,-0.30969616526638954,0.070538230240345,-0.006357237696647644,5.419193040177226,-0.004058957099914551
1745973177804315000,8.02531494140625,-0.28649031347299747,-0.006168533116579056,-0.06608000950117049,-0.02835911512374878,-0.18296388739576935,0.9311196734835271,-0.4745142549298498,left,0.009433627128601074,-0.5827534852394249,-2.313844221110642,-7.854334613487124,-0.3085025325783359,0.06083669885993004,-0.007596731185913086,5.396844430246949,-0.0027764439582824707
1745973177844315000,8.06531494140625,-0.28727453549104826,0.001964455470442772,-0.06671474953856495,-0.012434892356395721,-0.1828889621979288,0.9313298129646072,-0.47424109074464493,left,0.004526913166046143,-0.5810210224406908,-2.3226487282045185,-7.861472794803976,-0.30777522246063743,0.02208622172474861,-0.004980176687240601,5.382651069721579,0.013070642948150635
1745973177884315000,8.10531494140625,-0.2867110879421642,0.03357645124197006,-0.06660309639619716,0.031164173036813736,-0.18260016949200547,0.9314452273591431,-0.4733999432989508,left,0.0003178715705871582,-0.5808584138526,-2.3184663279533386,-7.863619743704795,-0.3076215447059772,0.009718001820147038,0.0025083422660827637,5.381317775291204,0.01253652572631836
1745973177924314600,8.145314697265626,-0.28534244634477407,0.027218714356422424,-0.06623170688070015,-0.013308409601449966,-0.18204438911800117,0.9316520365835047,-0.47173773948509073,left,0.013047873973846436,-0.5807780836063318,-2.3078234995163975,-7.8672005248010155,-0.30740491484883337,0.020587526261806488,-0.00445181131362915,5.380659603643417,-0.0007004141807556152
1745973177964314600,8.185314697265625,-0.2851811841537335,0.015342985279858112,-0.06638454617826034,-0.015484413132071495,-0.18142432063641367,0.9317962617559294,-0.4703335983381696,left,0.0016914010047912598,-0.5806846359215719,-2.3066961029216646,-7.868054511281848,-0.30730109497906466,0.021508628502488136,-0.0038367807865142822,5.379893295446038,-0.004433691501617432
1745973178004314600,8.225314697265626,-0.28580630889364655,-0.00839147251099348,-0.06674283605605134,-0.004010550677776337,-0.18137499492326772,0.9318378147522923,-0.4703260901678717,left,-0.007104814052581787,-0.5801789855984474,-2.3123808705598115,-7.869220047929883,-0.30712673215277286,0.010787980630993843,-0.007048025727272034,5.375746697160602,0.004197239875793457
1745973178044314600,8.265314697265625,-0.2862966992173255,-0.012203369289636612,-0.06695630238785823,0.0009461664594709873,-0.18154875461705733,0.9318309285037745,-0.470772935165079,left,-0.0011093616485595703,-0.5797679267374456,-2.3168634228013456,-7.870204382792115,-0.30699853940400146,0.014554785564541817,-0.009551897644996643,5.372374590379,0.004130899906158447
1745973178084315000,8.30531494140625,-0.2856335375896547,-0.00041159894317388535,-0.06681003761893203,0.03957095742225647,-0.18180345545933213,0.9320072405103912,-0.47082271231019235,left,-0.0037088990211486816,-0.5784613604801944,-2.3136194724440573,-7.878467184224724,-0.3063435779720879,0.03579683601856232,-0.005331471562385559,5.36165095179081,0.0037251710891723633
1745973178124315000,8.34531494140625,-0.2833603950706271,0.007144000846892595,-0.06595151384655423,0.05019373074173927,-0.1819954512375751,0.9322425131189236,-0.47029299470151337,left,0.01234513521194458,-0.5775411320035336,-2.297083055923879,-7.888439712184667,-0.30569903966176515,0.01661117561161518,-0.005946099758148193,5.354092499235272,0.0052727460861206055
1745973178164314600,8.385314697265626,-0.28254641801960834,-0.025430943816900253,-0.06560204049755809,0.012831952422857285,-0.18231950174260725,0.9323128290553977,-0.47059721407844274,left,0.012330949306488037,-0.5769537309633713,-2.291537842886895,-7.893326315182447,-0.3053665854574949,0.012170383706688881,-0.006231755018234253,5.34926551747024,0.0009631514549255371
1745973178204314600,8.425314697265625,-0.28304606276164396,-0.055758289992809296,-0.0656382439915316,0.034613266587257385,-0.18330462176325812,0.9322184667696605,-0.47267813703699957,left,-0.00270766019821167,-0.5760265791385478,-2.296865467650443,-7.8969392449826,-0.3050570271505744,0.01840914413332939,-0.0003734081983566284,5.341642767506838,0.005158841609954834
1745973178244314600,8.465314697265624,-0.28383883889001477,-0.06965800374746323,-0.06579799458686984,0.013352526351809502,-0.18459517216160481,0.9321299488302724,-0.4753793672547044,left,0.0012638568878173828,-0.57448449834065,-2.305429443986714,-7.903014180982113,-0.3045144608904756,0.047490231692790985,-0.0033032596111297607,5.328953966325521,-0.00022363662719726562
1745973178284314600,8.505314697265625,-0.283240046304006,-0.0533018484711647,-0.06553435909164491,0.0762614905834198,-0.18607625783533638,0.9322727661706322,-0.4777545519741573,left,-0.013127624988555908,-0.5716219663994613,-2.3049502821676433,-7.919006699883937,-0.30322973625235317,0.05412963777780533,-0.0005370229482650757,5.305366754510999,0.010979950428009033
1745973178324315000,8.54531494140625,-0.28096111074115016,-0.023414088413119316,-0.06451770095503033,0.08747132122516632,-0.18718553964070192,0.9324436263170667,-0.4790147334109363,left,-0.0030014514923095703,-0.5698272389290221,-2.2895339557185768,-7.933374832454323,-0.30223819349437164,0.0387798547744751,-0.0019510239362716675,5.29055555434823,0.003980100154876709
1745973178364315000,8.58531494140625,-0.2780367906187738,-0.014036188833415508,-0.06329022032868431,0.07064689695835114,-0.18798448802525575,0.9326790349356493,-0.47945840748289087,left,0.008840441703796387,-0.5682866569893853,-2.268558826098591,-7.947864545577764,-0.3012740345350166,0.03709264099597931,-0.00014021992683410645,5.277828759244084,-0.008595705032348633
1745973178404315000,8.62531494140625,-0.27616144985327123,-0.03800883889198303,-0.06264928329436535,0.02628466486930847,-0.1886316380112202,0.9329628794285191,-0.47979169807938965,left,0.011195600032806396,-0.5661312513875131,-2.2567465154908595,-7.963031135049462,-0.3001224386542042,0.06572945415973663,-0.00639757513999939,5.260001426130533,-0.030975699424743652
1745973178444314600,8.665314697265625,-0.2763384212769572,-0.10644607245922089,-0.06274382159816662,0.06331057846546173,-0.18982973547060208,0.9330518873164036,-0.4818996274577386,left,-0.004030168056488037,-0.5636461763997723,-2.261715097683668,-7.975182760614156,-0.2990686774309185,0.10766598582267761,0.004433438181877136,5.23941690326333,-0.02966207265853882
1745973178484314600,8.705314697265624,-0.2760341414687121,-0.007229067385196686,-0.06198060389063788,0.20402857661247253,-0.19160605352868712,0.9326518049263653,-0.48569457986532116,left,-0.06893175840377808,-0.5640502416471103,-2.258711093562096,-7.97383251504898,-0.2993427635236303,-0.0891609787940979,0.03099963068962097,5.242766213691234,0.024505615234375
1745973178524314600,8.745314697265625,-0.2720052180969305,-0.005322604440152645,-0.05943447360430932,0.12876272201538086,-0.19294911793605216,0.9322597300723233,-0.487824387464907,left,-0.006882131099700928,-0.5666683331919481,-2.2228715722873806,-7.96961928126812,-0.30021664879960086,-0.09474541991949081,0.010742932558059692,5.26444613057971,0.01687520742416382
1745973178564315000,8.78531494140625,-0.26722078036377367,0.029762737452983856,-0.05673749803539942,0.13341134786605835,-0.1936475052255292,0.9320016034670097,-0.4883749327462125,left,0.0026448965072631836,-0.5695538690586137,-2.1806958337284623,-7.965478528201579,-0.30108883116531887,-0.08019346743822098,0.011237308382987976,5.288298130810261,0.02761322259902954
1745973178604315000,8.82531494140625,-0.26324056073525504,-0.014486022293567657,-0.054640387826051504,0.044535644352436066,-0.19392250652079798,0.9318834293888169,-0.4881116652473381,left,0.01788341999053955,-0.5716749929129599,-2.1460507829353213,-7.963246823626756,-0.3016651296949867,0.005662798881530762,-0.0023230016231536865,5.305803976884484,-0.011753618717193604
1745973178644315000,8.86531494140625,-0.2636809089723468,-0.05697602778673172,-0.05493470642259739,-0.023145735263824463,-0.19479303850096252,0.9320106959320417,-0.4896346247763628,left,0.0030645132064819336,-0.5692812472294055,-2.152861193602532,-7.974539202013611,-0.30065566304748415,0.05727143585681915,-0.004063844680786133,5.286046552491188,-0.011050820350646973
1745973178684314600,8.905314697265625,-0.2654735381425007,-0.06319713592529297,-0.05584201152503164,0.01184859499335289,-0.19589483747197275,0.9321090985845029,-0.49193771264893293,left,-0.004515171051025391,-0.5661547247599199,-2.171478654180467,-7.986576845809817,-0.29946550816631,0.07245999574661255,-0.0037596523761749268,5.260195487397909,-0.018596112728118896
1745973178724314600,8.945314697265625,-0.2649316967688586,0.018607743084430695,-0.055622597296453934,0.05067993700504303,-0.19643591266142355,0.9321798766967988,-0.49270000801105784,left,-0.0019214153289794922,-0.5650553889839949,-2.168663742890209,-7.993328073635697,-0.2989311190659005,-0.005314618349075317,-0.0031171590089797974,5.251093897053599,0.008334040641784668
1745973178764314600,8.985314697265625,-0.2619624986455624,0.06353332102298737,-0.0543723195566762,0.05661376193165779,-0.19592783939585515,0.9323166192383392,-0.4908704644145856,left,-0.000361025333404541,-0.5661012624064985,-2.143496860668808,-7.99442288313508,-0.2990677713491016,-0.028821418061852455,-0.0037975460290908813,5.2597530043274165,0.0022409558296203613
1745973178804315000,9.02531494140625,-0.25804643403118227,0.03696579486131668,-0.05274650879366479,0.05908115580677986,-0.1952730433855816,0.9325129316825753,-0.4884544703565698,left,0.0045149922370910645,-0.5673155986271314,-2.110542393311113,-7.996574508211016,-0.29917550237728285,0.003918224945664406,-0.001335427165031433,5.269800351089239,-0.01596146821975708
1745973178844315000,9.06531494140625,-0.2551579376061215,0.0011968091130256653,-0.05154404277761581,0.038641538470983505,-0.19528494202271238,0.9326845289055163,-0.4875418053679104,left,0.013523876667022705,-0.5672551968209145,-2.0875158841192722,-8.00294521228671,-0.29884205211909837,0.015572558157145977,-0.002629026770591736,5.269300584873557,-0.008948147296905518
1745973178884315000,9.10531494140625,-0.2535540760165561,0.002999324817210436,-0.050887270464601876,0.05313951522111893,-0.19560851131288626,0.9328096999894637,-0.48757720309775054,left,-0.012594163417816162,-0.5665248501434793,-2.075642344843596,-8.010006236714124,-0.2983518667000917,-0.021426543593406677,0.0026727020740509033,5.263258966621756,-0.00013107061386108398
1745973178924314600,9.145314697265626,-0.2526596945940202,-0.003942348528653383,-0.050467327999553,0.02314583584666252,-0.1961510145418006,0.932856650625466,-0.48829785482417054,left,0.008369803428649902,-0.5657330361420735,-2.069518747396767,-8.015891787621378,-0.2979199541957026,0.004932884126901627,-0.0016888678073883057,5.25670530719459,0.0012833476066589355
1745973178964314600,9.185314697265625,-0.2524479703360552,0.014294642955064774,-0.05051190201097353,0.004056952893733978,-0.19620991412706945,0.9329871024478166,-0.4881707039050081,left,-0.0019098520278930664,-0.5647918017567457,-2.0690565367124973,-8.021117413315176,-0.2974649022483949,0.021016674116253853,0.0010609328746795654,5.24891070779562,0.0026557445526123047
1745973179004314600,9.225314697265626,-0.251424677575883,0.023965973407030106,-0.05024969472158526,0.01723605766892433,-0.19580676772267389,0.9331624451858207,-0.4869337626599957,left,-0.002741575241088867,-0.5645546357602108,-2.061157015634328,-8.024436328604818,-0.29722481698161757,0.0032442212104797363,0.01027090847492218,5.246946129724383,-0.00959169864654541
1745973179044314600,9.265314697265625,-0.24956619512608205,0.022411266341805458,-0.049467420078282524,0.058236174285411835,-0.19560964429180794,0.9332510907941503,-0.4859996905964625,left,-0.015503168106079102,-0.5649641324601562,-2.045709417264163,-8.026170020529626,-0.2972073307573365,-0.02634938806295395,0.01696436107158661,5.250338110250234,0.0026645660400390625
1745973179084315000,9.30531494140625,-0.24593595434209403,0.04910479485988617,-0.047763661999442986,0.05636918172240257,-0.1953579299590988,0.9332775489225188,-0.48462201109934383,left,0.0003654956817626953,-0.5665998197838679,-2.014465553216636,-8.025203805845976,-0.2975686818575428,-0.03781409561634064,0.00500844419002533,5.2638791443467134,0.016045033931732178
1745973179124315000,9.34531494140625,-0.24287159958764307,0.05017494410276413,-0.04657210466497055,-0.013376887887716293,-0.19454615041268075,0.9334692913001937,-0.4821061234691411,left,0.017441868782043457,-0.5676401424085332,-1.9885459529317915,-8.026019213882089,-0.29768768727757994,-0.009099263697862625,-0.008347243070602417,5.27248389108479,0.008387863636016846
1745973179164314600,9.385314697265626,-0.24218764614140015,0.032027922570705414,-0.04657225282573483,0.008601613342761993,-0.1936709461903275,0.9336953880329526,-0.4800035267609498,left,-0.0029512643814086914,-0.5675899409603938,-1.983119543968886,-8.027634247863292,-0.29754931003815926,0.024228569120168686,-0.0023675262928009033,5.272068880543112,0.00657343864440918
1745973179204314600,9.425314697265625,-0.24003121444731207,0.026903662830591202,-0.04576802599249767,0.06714096665382385,-0.19343787571114424,0.9338831038562682,-0.4787858063587655,left,-0.004701197147369385,-0.567423611748992,-1.9660123418234288,-8.032743553701042,-0.2972362030803099,-0.00045046955347061157,-0.009526506066322327,5.27069350053668,0.01125800609588623
1745973179244314600,9.465314697265624,-0.23662565794171483,0.055542539805173874,-0.04428433713041762,0.04466664046049118,-0.19298852936458336,0.9339813948480022,-0.47697737213459573,left,0.01996523141860962,-0.5686817520490075,-1.9370888835474847,-8.032939368534088,-0.29744408571627023,-0.021288087591528893,-0.018200978636741638,5.281093898519873,0.020837485790252686
1745973179284314600,9.505314697265625,-0.23508119068750505,0.03467585891485214,-0.04374869635538396,0.004891194403171539,-0.1922459159665981,0.9341046570960897,-0.47504438750370337,left,0.005002140998840332,-0.5694753856676763,-1.9237031861431895,-8.031842805469037,-0.29761724950195717,0.010680997744202614,-0.012247636914253235,5.287650480556488,0.0023479461669921875
1745973179324315000,9.54531494140625,-0.235109530785176,0.01932697743177414,-0.04389567762753754,-0.013636982068419456,-0.19176145106460854,0.9341854423650162,-0.4740393483668244,left,0.007218778133392334,-0.5695990164015855,-1.9237785894669592,-8.031153069639206,-0.29765472107126556,0.022963259369134903,-0.005163729190826416,5.288671055775881,0.0013200044631958008
1745973179364315000,9.58531494140625,-0.2357789335274227,0.015120094642043114,-0.044390535504641615,-0.02248990163207054,-0.19134760035869466,0.9343090035256608,-0.4732678489530029,left,0.0039116740226745605,-0.5690719185381442,-1.9298051562801002,-8.032572873309254,-0.2974596769129728,0.019485071301460266,-0.004880145192146301,5.2843175367414945,-0.0024012327194213867
1745973179404315000,9.62531494140625,-0.23638994388956747,0.02641923353075981,-0.04477360974692059,-0.016742443665862083,-0.19089435876724117,0.9343535917730454,-0.4725136217714482,left,0.0008986592292785645,-0.5691860140719825,-1.9345716400295494,-8.030805863636731,-0.29755364480365826,-0.011354682967066765,-0.0004436075687408447,5.2852597860276695,0.0014701485633850098
1745973179444314600,9.665314697265625,-0.2370582762377375,0.029134057462215424,-0.04513863439093354,-0.03094424679875374,-0.19026410278563682,0.9343418374745344,-0.47151796767664256,left,0.0017045140266418457,-0.5699341701238877,-1.9390091840855777,-8.025665578138828,-0.2979386807613345,-0.015580114908516407,-0.004617825150489807,5.291438766923546,-0.0003992915153503418
1745973179484314600,9.705314697265624,-0.23772692330764036,0.020845429971814156,-0.04546765197326604,-0.021296916529536247,-0.1896421356961405,0.9342973079331621,-0.4705815139814409,left,-0.0011820197105407715,-0.5708995484281805,-1.943171272201091,-8.019398918959498,-0.2984244530700861,-0.028366748243570328,-0.001665368676185608,5.299406969323754,-0.0026892423629760742
1745973179524314600,9.745314697265625,-0.2375863832224541,0.011888088658452034,-0.04535538507177449,0.013295287266373634,-0.18936201171479117,0.9342322561116091,-0.4701100022871831,left,0.0021742582321166992,-0.5718192357468355,-1.9408963130064307,-8.014931418156623,-0.2988228791697808,-0.01771184615790844,0.00039201974868774414,5.306993478929996,-0.004241287708282471
1745973179564315000,9.78531494140625,-0.23635314690812803,-0.009663058444857597,-0.04467053825666637,0.049121610820293427,-0.1895760321629312,0.934163840122137,-0.47029376434334436,left,-0.010996401309967041,-0.5724587743106839,-1.9302153445161878,-8.014017225921153,-0.2990039663002022,-0.028238359838724136,0.0015222877264022827,5.312266450896859,-0.002566814422607422
1745973179604315000,9.82531494140625,-0.23490006310793182,-0.015039954334497452,-0.04373270156752978,0.03292718529701233,-0.19008579180856708,0.9339861944960088,-0.471119693248033,left,-0.00048232078552246094,-0.5735250521370929,-1.9172488954372704,-8.01130095269978,-0.2993739995287609,-0.03402458131313324,0.0007050037384033203,5.321052983942628,0.001510024070739746
1745973179644315000,9.86531494140625,-0.23446732019544278,-0.015068644657731056,-0.04329696004387283,0.00846988894045353,-0.19052678056277525,0.9338160700093113,-0.47206142561715925,left,-0.003477156162261963,-0.574252254610454,-1.9128823707908391,-8.008363730204104,-0.299687280674437,-0.020151503384113312,-0.00008438527584075928,5.327041995224357,0.0026702880859375
1745973179684314600,9.905314697265625,-0.2346632162584067,-0.0004425179213285446,-0.04325804379001817,-0.00485012773424387,-0.19071508242731489,0.9337124969528553,-0.47260049308466123,left,0.0005069375038146973,-0.5746410212342398,-1.9139694353751837,-8.005974204719067,-0.29989607509489447,-0.007574300281703472,-0.0008222907781600952,5.3302422525703905,0.0036766529083251953
1745973179724314600,9.945314697265625,-0.2346632162584067,-0.0011757948668673635,-0.04325804379001817,-0.005413642153143883,-0.19071508242731489,0.9337124969528553,-0.47260049308466123,left,-0.0003090500831604004,-0.5746410212342398,-1.9139694353751837,-8.005974204719067,-0.29989607509489447,0.017648939043283463,-0.0004486590623855591,5.3302422525703905,-0.004410862922668457
1745973179764314600,9.985314697265625,-0.2346632162584067,0.002862280700355768,-0.04325804379001817,0.017831549048423767,-0.19071508242731489,0.9337124969528553,-0.47260049308466123,left,-0.002370893955230713,-0.5746410212342398,-1.9139694353751837,-8.005974204719067,-0.29989607509489447,0.010050226002931595,0.00042219460010528564,5.3302422525703905,0.00034421682357788086
1745973179804315000,10.02531494140625,-0.23345372819213137,0.03290519863367081,-0.04285322245162416,0.031998492777347565,-0.19053763887421593,0.9338523775168169,-0.4717783472061209,left,0.0013654232025146484,-0.5743534236608943,-1.904639443102479,-8.009774181523918,-0.29963107246829856,-0.0144535843282938,-0.006337568163871765,5.32787493891716,0.005550801753997803
1745973179844315000,10.06531494140625,-0.23071619259969464,0.07503677904605865,-0.041857058093193886,0.03241070732474327,-0.18963704005010748,0.9340505346066861,-0.46913754078527203,left,0.0063593387603759766,-0.5752473952983237,-1.881615418128669,-8.010318371403217,-0.29972558374946645,-0.008226118981838226,-0.005230352282524109,5.3352329004645345,0.00753939151763916
1745973179884315000,10.10531494140625,-0.22812801757019277,0.07045432925224304,-0.04106101083437367,0.014057552441954613,-0.18837578859433113,0.9343305772293522,-0.4657462316842833,left,0.0024216771125793457,-0.5760037512872739,-1.8599638505518434,-8.01122847198546,-0.29975828212141103,0.002269972115755081,-0.008518531918525696,5.341455135980248,0.004236578941345215
1745973179924314600,10.145314697265626,-0.22692934500166118,0.05204756557941437,-0.04089621358482302,-0.016819840297102928,-0.18716125494202163,0.9345868966925611,-0.46282450214639315,left,0.006144285202026367,-0.5763440576673692,-1.8499505521900952,-8.011680307406186,-0.2997423766975752,0.014717823825776577,-0.005449548363685608,5.344253242266178,-0.003921329975128174
1745973179964314600,10.185314697265625,-0.2266091135461267,0.04216044023633003,-0.04106204031907518,-0.008908912539482117,-0.1861801641319753,0.9347855156589044,-0.4606399448807541,left,-0.0064095258712768555,-0.5764396203681776,-1.8472702270649373,-8.011774999952316,-0.29971165067988925,0.007997231557965279,0.002019822597503662,5.3450394242078065,-0.002058088779449463
1745973180004314600,10.225314697265626,-0.22574004150246138,0.04274120181798935,-0.040842383025620634,0.00266927108168602,-0.18538304076914872,0.9348834181639403,-0.4587888094538171,left,0.003858208656311035,-0.577172116807852,-1.8394298888280987,-8.009559077468515,-0.2999300711960553,-0.019298506900668144,0.008785977959632874,5.351059999671578,0.001126110553741455
1745973180044314600,10.265314697265625,-0.22532190463020457,0.024893654510378838,-0.04067760816537076,-0.009295749478042126,-0.18470499735394258,0.9348431571996504,-0.4574526494879008,left,0.0014889836311340332,-0.5785450526212623,-1.8344374873682856,-8.003159147298335,-0.3004958953399745,-0.03097512573003769,0.008610755205154419,5.362338349533081,-0.0013297796249389648
1745973180084315000,10.30531494140625,-0.225027874081612,0.02424393780529499,-0.04051057512801315,-0.0015141861513257027,-0.18426973505793962,0.934769660259926,-0.4566475778141695,left,-0.0005334615707397461,-0.5797651038163991,-1.8306230436466633,-7.997314512923359,-0.3010138270458156,-0.019881542772054672,0.005601957440376282,5.372351794025302,0.007293879985809326
1745973180124315000,10.34531494140625,-0.2243145878361003,0.023964891210198402,-0.040291000605562295,-0.00564961414784193,-0.1837571973740277,0.9348245586475832,-0.4554243707081734,left,0.0002636909484863281,-0.5803358936706478,-1.8242358268275856,-7.995627582749724,-0.3011861348064905,0.007543299347162247,0.0004521310329437256,5.377033814361691,0.0015639662742614746
1745973180164314600,10.385314697265626,-0.22391069858914905,0.008989231660962105,-0.04029089121665908,-0.0053993938490748405,-0.18343469785162467,0.9349700586532782,-0.45452601910443585,left,0.001090705394744873,-0.5799010679841025,-1.8215252526946364,-7.998642546656727,-0.3009308538165739,0.020407527685165405,-0.00004534423351287842,5.373467061790824,0.00043898820877075195
1745973180204314600,10.425314697265625,-0.2243099199313694,-0.0063889529556035995,-0.04057521557211241,-0.022774621844291687,-0.18333742096944133,0.9350509981213583,-0.4543434504647343,left,0.003733813762664795,-0.5793293759681877,-1.8254015096060932,-8.000908738023043,-0.30070058934343014,0.010360479354858398,-0.0023970603942871094,5.3687762736260884,-0.002926468849182129
1745973180244314600,10.465314697265624,-0.2256089558672509,-0.00627128267660737,-0.04115524677831315,-0.02749859169125557,-0.18329315280195338,0.9350149853377265,-0.45464091712579957,left,0.002745330333709717,-0.5791873816127511,-1.8359638201527297,-7.999273245775699,-0.3007604100929048,-0.0007652547210454941,-0.0022849738597869873,5.367610736978054,-0.0001716017723083496
1745973180284314600,10.505314697265625,-0.22672604854079817,0.004371606279164553,-0.04167769698920802,-0.014280447736382484,-0.1832251459776413,0.9350029460091057,-0.45481576883985436,left,-0.005862772464752197,-0.5789719538263927,-1.845158495607972,-7.998343855971098,-0.3007672498518122,0.008831487037241459,-0.005682006478309631,5.365842558261752,0.00003415346145629883
1745973180324315000,10.54531494140625,-0.22672604854079817,0.005966908298432827,-0.04167769698920802,-0.003866087645292282,-0.1832251459776413,0.9350029460091057,-0.45481576883985436,left,-0.0006600022315979004,-0.5789719538263927,-1.845158495607972,-7.998343855971098,-0.3007672498518122,-0.00025377608835697174,-0.006005316972732544,5.365842558261752,0.0009197592735290527
1745973180364315000,10.58531494140625,-0.22710683206835935,0.00024279486387968063,-0.04187118221036613,-0.011339394375681877,-0.183042719714157,0.9349960329725032,-0.4545779996011273,left,0.0036725997924804688,-0.5791368994771301,-1.8480046788193285,-7.9967779218286275,-0.3008730474278202,-0.004866101313382387,-0.004163593053817749,5.367196895480156,-0.0010657310485839844
1745973180404315000,10.62531494140625,-0.22781660026230752,-0.0071275727823376656,-0.04212750250551139,-0.007829643785953522,-0.1830364316241495,0.934920627456394,-0.454845138843238,left,0.0017172694206237793,-0.5794235466915664,-1.8533325958438216,-7.993965787017345,-0.3010755047186412,-0.01567171700298786,-0.002577677369117737,5.369549011564255,0.00023573637008666992
1745973180444314600,10.665314697265625,-0.22844238151002422,-0.006089316215366125,-0.04225797274192799,-0.0025127073749899864,-0.1830944286284778,0.9347706228247528,-0.45530748649300173,left,0.0009440779685974121,-0.5801732579562663,-1.8574224955059586,-7.988881031098962,-0.30148746513882424,-0.02519301138818264,-0.0012240111827850342,5.375699935409426,-0.0013782382011413574
1745973180484314600,10.705314697265624,-0.22912495579584413,0.001044257078319788,-0.042339345048723866,0.0006249253638088703,-0.18323344632017421,0.934557761871207,-0.4560183230788804,left,0.00040775537490844727,-0.5812295161304034,-1.8615844374909996,-7.98207719630301,-0.30205085114952274,-0.029744936153292656,-0.000969231128692627,5.384360211727023,0.004738509654998779
1745973180524314600,10.745314697265625,-0.2293654885446312,0.024075597524642944,-0.04236745007833001,-0.008634336292743683,-0.18309316740993836,0.9344615173745254,-0.4559387010784742,left,0.006623506546020508,-0.5820093123072742,-1.8625491908699272,-7.977538383829593,-0.3024297495566653,0.0024087373167276382,-0.0031111538410186768,5.390749620503187,0.007571876049041748
1745973180564315000,10.78531494140625,-0.22858798038984524,0.03994792327284813,-0.04229459139643498,-0.0006244191899895668,-0.18240182561836024,0.934663424001888,-0.4541727978056801,left,0.0008578896522521973,-0.5818186029276126,-1.8565788842886686,-7.9799851924598215,-0.30223363298160677,0.024817466735839844,-0.002598598599433899,5.389187193492055,0.003094196319580078
1745973180604315000,10.82531494140625,-0.22776717927601906,0.03772304207086563,-0.042277921096567396,-0.015882784500718117,-0.18160182315540954,0.9349257585186292,-0.4521130652089731,left,0.0028638243675231934,-0.5813635656496654,-1.8505818358309565,-7.983894474858045,-0.3019060543891735,0.024339841678738594,-0.00022155046463012695,5.385458528357744,0.001186370849609375
1745973180644315000,10.86531494140625,-0.22784547743559658,0.06106051057577133,-0.04275385285401586,-0.052309975028038025,-0.1804780020101324,0.9352162382916115,-0.44963699426696024,left,0.006528794765472412,-0.5808258565898721,-1.8518607697255909,-7.986569247025251,-0.301613030656576,0.027825376018881798,0.0015754848718643188,5.381051233309507,0.0035263895988464355
1745973180684314600,10.905314697265625,-0.22908569188080422,0.08078249543905258,-0.043918542666297085,-0.09337082505226135,-0.1785857229729245,0.9355501729059594,-0.44594842710224936,left,0.004337728023529053,-0.5805918274975588,-1.8620503014370797,-7.985492557704449,-0.3015366508991997,0.026645993813872337,0.0005387067794799805,5.379132247945666,0.00033658742904663086
1745973180724314600,10.945314697265625,-0.2313200540307219,0.04921446368098259,-0.04542587781171564,-0.09384550154209137,-0.17673490460577973,0.9357625474602668,-0.44274436887844165,left,-0.0054108500480651855,-0.5807670710997652,-1.8796718828454613,-7.980393773260712,-0.30174432590922956,-0.0009468458592891693,-0.0006282925605773926,5.380569002750516,-0.005555331707000732
1745973180764314600,10.985314697265625,-0.2332665056214342,0.01988169737160206,-0.04642874927105032,-0.04624204710125923,-0.17567293123762937,0.9357124041220364,-0.4412947909280816,left,-0.004667341709136963,-0.5818188834268987,-1.8938925697691738,-7.971209765329957,-0.3023669473355342,-0.022469280287623405,-0.0013718605041503906,5.389189531579613,-0.002126038074493408
1745973180804315000,11.02531494140625,-0.23376466720416023,0.011363732628524303,-0.046694587334575204,-0.0032995492219924927,-0.1752465687592728,0.9356886944924483,-0.4406442858850616,left,-0.004426002502441406,-0.5823641015594515,-1.8971824050948023,-7.967405696871876,-0.30264660774091046,-0.010140063241124153,-0.0035332441329956055,5.393655863338709,0.0021091699600219727
1745973180844315000,11.06531494140625,-0.23376466720416023,0.003975990228354931,-0.046694587334575204,0.017764944583177567,-0.1752465687592728,0.9356886944924483,-0.4406442858850616,left,-0.0022430419921875,-0.5823641015594515,-1.8971824050948023,-7.967405696871876,-0.30264660774091046,-0.010429004207253456,-0.002316221594810486,5.393655863338709,0.006145477294921875
1745973180884315000,11.10531494140625,-0.23281602499026488,-0.01923409104347229,-0.04614187420758256,0.019848907366394997,-0.1755049664828551,0.9356198153629639,-0.44097839745535045,left,0.00040668249130249023,-0.5828490390718889,-1.8890197030358016,-7.966656339809298,-0.30279450640551175,-0.009583014994859695,-0.00044827163219451904,5.397627105057239,0.002644777297973633
1745973180924314600,11.145314697265626,-0.23311057319066314,-0.03757563605904579,-0.046020429049495166,0.008436008356511593,-0.17621103650819728,0.935456276314818,-0.4426032131525305,left,0.005795121192932129,-0.5829584753444503,-1.8912296341702342,-7.965524705430865,-0.30290822690217645,0.0009568780660629272,0.003777608275413513,5.398523177114129,0.0015326738357543945
1745973180964314600,11.185314697265625,-0.2338466363891683,-0.03397142142057419,-0.0462019380951521,-0.006899642758071423,-0.17689288203176368,0.9353800818347073,-0.44418331773500846,left,0.0051163434982299805,-0.5823259136134398,-1.8978832468405364,-7.967450705057382,-0.3027184304545351,0.01501799188554287,0.0038998425006866455,5.393343144127726,-0.0005586147308349609
1745973181004314600,11.225314697265626,-0.23548682045121236,-0.028150109574198723,-0.04688250939047878,-0.04325096681714058,-0.1772327170138206,0.9353300444373627,-0.44531258692302156,left,0.004362165927886963,-0.5816302810331508,-1.9118236555181443,-7.967973852148652,-0.302569723657001,0.013284890912473202,-0.00037109851837158203,5.387644640225171,-0.0028760433197021484
1745973181044314600,11.265314697265625,-0.23723238142693376,-0.026532094925642014,-0.04760703447208621,-0.028868356719613075,-0.17748308076304353,0.9352624454627497,-0.44632031846086495,left,-0.0075157880783081055,-0.5811316036228481,-1.9263605687841772,-7.967235016480088,-0.3025188378452838,0.001057998277246952,0.0003428459167480469,5.383557663172483,0.0006841421127319336
1745973181084315000,11.30531494140625,-0.23723238142693376,0.003996856510639191,-0.04760703447208621,-0.006749698892235756,-0.17748308076304353,0.9352624454627497,-0.44632031846086495,left,-0.0015191435813903809,-0.5811316036228481,-1.9263605687841772,-7.967235016480088,-0.3025188378452838,0.00025922461645677686,-0.006054401397705078,5.383557663172483,0.003618001937866211
1745973181124315000,11.34531494140625,-0.23723238142693376,0.021962428465485573,-0.04760703447208621,0.011616827920079231,-0.17748308076304353,0.9352624454627497,-0.44632031846086495,left,0.0008628964424133301,-0.5811316036228481,-1.9263605687841772,-7.967235016480088,-0.3025188378452838,0.0010067609837278724,-0.005022570490837097,5.383557663172483,0.0020711421966552734
1745973181164314600,11.385314697265626,-0.23593589222792832,0.019955530762672424,-0.04720478528923704,0.004729466047137976,-0.17698289209356646,0.9354048659928781,-0.44485756831826345,left,0.006725490093231201,-0.5812725305730113,-1.9158520342513918,-7.968987413105368,-0.3024341739577507,-0.0076521714217960835,-0.005413874983787537,5.384712678426504,0.0008453130722045898
1745973181204314600,11.425314697265625,-0.23565862139816063,0.010182511061429977,-0.04711139070882356,0.002935204654932022,-0.1767186041024601,0.9354093951647859,-0.44428046992260406,left,0.004474997520446777,-0.5816930361762631,-1.91311354919821,-7.967316265022754,-0.3025895578742168,-0.0038633313961327076,-0.0029767006635665894,5.388158434966206,0.0039009451866149902
1745973181244314600,11.465314697265624,-0.23565862139816063,0.010621379129588604,-0.04711139070882356,-0.0015732389874756336,-0.1767186041024601,0.9354093951647859,-0.44428046992260406,left,0.002373218536376953,-0.5816930361762631,-1.91311354919821,-7.967316265022754,-0.3025895578742168,0.0028697419911623,-0.0025989413261413574,5.388158434966206,0.005515694618225098
1745973181284314600,11.505314697265625,-0.23606510106785578,0.003504137508571148,-0.04739345982050625,-0.010227764025330544,-0.1763384322056917,0.9354492601594305,-0.4436129263436336,left,0.0028987526893615723,-0.5817677367687544,-1.9162578385733067,-7.966146636721492,-0.30264404840749015,0.008004090748727322,-0.002261728048324585,5.388771013906598,0.002557992935180664
1745973181324315000,11.54531494140625,-0.23606510106785578,-0.011765928007662296,-0.04739345982050625,0.007838863879442215,-0.1763384322056917,0.9354492601594305,-0.4436129263436336,left,0.0011773109436035156,-0.5817677367687544,-1.9162578385733067,-7.966146636721492,-0.30264404840749015,0.0018957038410007954,-0.002147659659385681,5.388771013906598,-0.0014182329177856445
1745973181364315000,11.58531494140625,-0.236635974886381,-0.030324377119541168,-0.04750136554721374,0.0026741251349449158,-0.17680093460776278,0.9353498607556493,-0.44476361732708725,left,0.0004807114601135254,-0.5816437568599568,-1.9209619246110319,-7.9657012310415505,-0.3026646672182997,0.002283040899783373,-0.002812027931213379,5.387755114862323,-0.0001798868179321289
1745973181404315000,11.62531494140625,-0.23740006388477208,-0.04091554880142212,-0.04767246846786577,0.00006923195905983448,-0.17746349800365926,0.93524666612742,-0.446346406474617,left,0.0019851326942443848,-0.5812056682636115,-1.9276025316692889,-7.96652365334034,-0.3025684566584091,0.00593869574368,-0.003006383776664734,5.384164396893977,-0.0035157203674316406
1745973181444314600,11.665314697265625,-0.23850684833090668,-0.04019530117511749,-0.04793025633871187,0.007815709337592125,-0.17831788785424146,0.9350931955085812,-0.4484440180708226,left,-0.00004780292510986328,-0.5807342283985454,-1.9370181563988327,-7.966851570120453,-0.30250010935684396,-0.005871064029633999,-0.0012661516666412354,5.38030012268126,-0.00031554698944091797
1745973181484314600,11.705314697265624,-0.23876845335781025,-0.015664802864193916,-0.04774595089167809,0.013727303594350815,-0.17897906305273528,0.9348776218261755,-0.45004173365839656,left,0.0011254549026489258,-0.5812631625780239,-1.9384290461100637,-7.963578247538209,-0.3028049476811018,-0.033068157732486725,-0.001769036054611206,5.384636106058955,0.0030005574226379395
1745973181524314600,11.745314697265625,-0.23859523857689044,0.004520943388342857,-0.04742612523203612,0.007248863577842712,-0.1791763766183125,0.934675593018176,-0.4506345436401527,left,0.002544701099395752,-0.5824764232134598,-1.935504098574072,-7.957560010161996,-0.3033613890004752,-0.03517419472336769,-0.00171719491481781,5.394575900793075,0.002817213535308838
1745973181564315000,11.78531494140625,-0.23842869755225637,0.009436611086130142,-0.04716389121264055,0.004001216031610966,-0.17912713623279974,0.9344965074781423,-0.45073300263899846,left,0.0031669139862060547,-0.583855160109419,-1.932420307214558,-7.950647454294562,-0.30398252684723287,-0.03461674600839615,-0.0003898739814758301,5.405861849439144,0.002327442169189453
1745973181604315000,11.82531494140625,-0.23835512308572643,0.016009056940674782,-0.04695185655221706,-0.0009434400126338005,-0.17891013175750087,0.9343031031098249,-0.4505561304610524,left,0.0015412569046020508,-0.5855195385767785,-1.9297082717768848,-7.94203510877192,-0.3047366412275874,-0.041172269731760025,-0.0019134730100631714,5.419472441640496,0.0023030638694763184
1745973181644315000,11.86531494140625,-0.23858461144495646,0.022445090115070343,-0.04683497166651594,-0.017325274646282196,-0.17853794965454906,0.9340446497763231,-0.4502478600631082,left,0.0020564794540405273,-0.5877258778243032,-1.9287004099085925,-7.929954794877767,-0.30576352267192125,-0.06373786926269531,-0.002806931734085083,5.437492082455754,0.001406848430633545
1745973181684314600,11.905314697265625,-0.2391229239333244,0.05025389790534973,-0.04675280581068136,-0.016857434064149857,-0.1778624405825138,0.9336415159400381,-0.4496323521725222,left,-0.0028936266899108887,-0.591209055381678,-1.9284712773278354,-7.910466250553727,-0.30739657342292204,-0.10118696093559265,-0.00393146276473999,5.46588581776917,0.00040858983993530273
1745973181724314600,11.945314697265625,-0.2380768932374842,0.07349227368831635,-0.045890042354890005,0.04678246006369591,-0.17691073843479288,0.9331645110733251,-0.44816843246213856,left,-0.009017109870910645,-0.5961046575103278,-1.9138620294779538,-7.886379857045411,-0.30951676177725435,-0.12155155837535858,-0.006005197763442993,5.505680652540922,-0.0008448362350463867
1745973181764314600,11.985314697265625,-0.23386001458918423,0.09299260377883911,-0.043715685431058,0.08363890647888184,-0.1758397218135546,0.932825796356333,-0.445437012042417,left,0.0012785792350769043,-0.6012771206986213,-1.873964757245034,-7.866572748291492,-0.3114568529456817,-0.10250004380941391,-0.008959636092185974,5.547582688724995,0.00008606910705566406
1745973181804315000,12.02531494140625,-0.22841079901718578,0.08261269330978394,-0.04129113351718966,0.09361784905195236,-0.17482152152593824,0.9327915130473812,-0.4420574023897332,left,-0.0007075071334838867,-0.6046650393308505,-1.8268043621413408,-7.85831520755589,-0.31246194241921976,-0.045500464737415314,-0.0027685314416885376,5.574948250034451,0.001122891902923584
1745973181844315000,12.06531494140625,-0.22433872130483315,0.056979283690452576,-0.03967889579152418,0.0385705903172493,-0.17398708572938343,0.9329431113336724,-0.4391563192930789,left,0.012895703315734863,-0.6060501094874282,-1.793070142582804,-7.858153294992446,-0.312683969451404,-0.007507201284170151,-0.0010993033647537231,5.586117294302582,0.006099879741668701
1745973181884315000,12.10531494140625,-0.22291054337563468,0.0242903009057045,-0.039257160348379894,-0.003608439117670059,-0.17334883319632338,0.9330871013331835,-0.4373636309697661,left,0.009547650814056396,-0.6063496293891567,-1.7814754202485084,-7.859074501490593,-0.31266212766953094,0.0049004750326275826,-0.0009000897407531738,5.588531369706988,0.002986729145050049
1745973181924314600,12.145314697265626,-0.22304631496322827,0.011273340322077274,-0.03942577289673443,-0.0118674011901021,-0.17297967044278875,0.9331375308006026,-0.43663172531483335,left,0.004230797290802002,-0.6064265720005989,-1.7824473340205846,-7.858412822711467,-0.3126948336771251,0.005973041523247957,0.0009108930826187134,5.589151547431945,0.005122482776641846
1745973181964314600,12.185314697265625,-0.22304631496322827,-0.002938457764685154,-0.03942577289673443,0.0063992952927947044,-0.17297967044278875,0.9331375308006026,-0.43663172531483335,left,-0.0023879408836364746,-0.6064265720005989,-1.7824473340205846,-7.858412822711467,-0.3126948336771251,0.0031357556581497192,0.002339497208595276,5.589151547431945,0.001785874366760254
1745973182004314600,12.225314697265626,-0.22302266410643773,-0.01832287758588791,-0.039326567837799635,0.014536372385919094,-0.17312320341883478,0.9330702617112474,-0.4369819856594617,left,0.0007107853889465332,-0.6067072901365547,-1.781914396187663,-7.856924629980325,-0.3128286277749428,-0.018449056893587112,0.004051998257637024,5.591413062623143,0.0024873018264770508
1745973182044314600,12.265314697265625,-0.223331618195436,-0.031080730259418488,-0.03921655548922188,0.008012253791093826,-0.173638230708621,0.9328936181132178,-0.4382693743398947,left,0.006432175636291504,-0.6071494149765395,-1.7837940724544226,-7.853962273043393,-0.3130837400247575,-0.004206635989248753,0.00350344181060791,5.5949745544970035,0.0020064115524291992
1745973182084315000,12.30531494140625,-0.22385632869284972,-0.02766311913728714,-0.039300328299960094,0.007226620800793171,-0.17427458179466485,0.9328300637423707,-0.43971178622794344,left,0.0018961429595947266,-0.6066074640380072,-1.7885877364717422,-7.855980627128481,-0.3129088580318551,0.021205056458711624,0.0019561946392059326,5.590608760502934,0.0033641457557678223
1745973182124315000,12.34531494140625,-0.2245276161058662,-0.020862746983766556,-0.03963257420480946,-0.013308336026966572,-0.17466538159568937,0.9329103716383055,-0.4405481328364942,left,0.0012353062629699707,-0.6053565407578014,-1.7954167057089507,-7.861590283703803,-0.3124095254689581,0.03413895517587662,-0.0036939680576324463,5.580525757905841,0.003955721855163574
1745973182164314600,12.385314697265626,-0.22524362488821698,-0.013674749061465263,-0.04007267812015732,-0.016939282417297363,-0.1747995405709935,0.9330385832271983,-0.4408448532347377,left,0.0023255348205566406,-0.604086065615324,-1.8026270754791796,-7.8672069545418015,-0.31189465676489553,0.02759876474738121,-0.004498481750488281,5.570276166570186,0.0007665157318115234
1745973182204314600,12.425314697265625,-0.2260194449174488,-0.005924911238253117,-0.040486674881566265,-0.00908394530415535,-0.17488072983369357,0.9331045798604284,-0.4411317184778652,left,0.0014316439628601074,-0.6032802452830035,-1.809735446179658,-7.870178079307079,-0.3115981986777507,0.020356271415948868,-0.0024614334106445312,5.563770437937975,0.001625657081604004
1745973182244314600,12.465314697265624,-0.22651742947085432,-0.0014960281550884247,-0.040800557749419576,-0.008927789516746998,-0.17488488532039018,0.933187590724614,-0.4411735207370907,left,0.0009058117866516113,-0.6025473912034147,-1.8145695883378385,-7.8732468192279335,-0.3113060542536782,0.018585193902254105,-0.0006530880928039551,5.557850984761118,0.000967860221862793
1745973182284314600,12.505314697265625,-0.22704312966736445,0.008636345155537128,-0.04116137951008908,-0.015311965718865395,-0.17472507777609764,0.9332806483233359,-0.4408966055522045,left,0.0015976428985595703,-0.6019445759015879,-1.81946232881546,-7.875555096170306,-0.31106944309005374,0.015874290838837624,-0.0005968809127807617,5.552978994810581,0.001952826976776123
1745973182324315000,12.54531494140625,-0.22780359620025076,0.009949496015906334,-0.041681237120528666,-0.030585967004299164,-0.17434681888754922,0.9333914655344416,-0.4402432340282504,left,0.002173185348510742,-0.6014167231680515,-1.8261125804848968,-7.877023415157199,-0.3108798302055632,0.012354375794529915,-0.0011409670114517212,5.548711985015869,0.002943098545074463
1745973182364315000,12.58531494140625,-0.22887207539021995,0.007734515704214573,-0.04224470682266247,-0.026364922523498535,-0.17397191290893765,0.933403278662999,-0.4398016760224452,left,-0.0008398890495300293,-0.6014486677975398,-1.8344876101203262,-7.8748945864349595,-0.3109782854835388,-0.0028288746252655983,-0.0021719932556152344,5.54897034369111,0.005570411682128906
1745973182404315000,12.62531494140625,-0.22941153784837162,0.004586872644722462,-0.04254649536347703,-0.011372178792953491,-0.17369096309261112,0.9334130824053635,-0.43939874984868044,left,-0.0004692673683166504,-0.6015541116332177,-1.8386026442237198,-7.873334497511387,-0.31106503065856034,0.006362712010741234,-0.0016269683837890625,5.549822576606274,0.00302046537399292
1745973182444314600,12.665314697265625,-0.22941153784837162,-0.0014045345596969128,-0.04254649536347703,0.0007189521566033363,-0.17369096309261112,0.9334130824053635,-0.43939874984868044,left,-0.000006377696990966797,-0.6015541116332177,-1.8386026442237198,-7.873334497511387,-0.31106503065856034,0.016883566975593567,0.0011955350637435913,5.549822576606274,-0.00007158517837524414
1745973182484314600,12.705314697265624,-0.22939368001509947,-0.006362892687320709,-0.04270378713001167,0.0029027247801423073,-0.17371455565738605,0.9335810890503385,-0.43923054406228645,left,0.004272103309631348,-0.6003908330117467,-1.8399287782609461,-7.879649087485671,-0.3105255367095911,0.024466561153531075,-0.0007509589195251465,5.5404135277479885,-0.0011782050132751465
1745973182524314600,12.745314697265625,-0.22935415333328305,-0.002953149378299713,-0.042803946027507964,0.008206399157643318,-0.1738248747212021,0.9337146355438817,-0.4392647705377303,left,-0.003765881061553955,-0.5993570981901148,-1.8409183738201855,-7.885294399896264,-0.310047902245619,0.015862639993429184,-0.00019244849681854248,5.532046096897125,0.0036899447441101074
1745973182564315000,12.78531494140625,-0.22907203117756034,0.008113115094602108,-0.04278491197371877,-0.0100490041077137,-0.17375300569102275,0.9338160241222089,-0.43892560960435156,left,0.003897726535797119,-0.598855375761854,-1.8393237981051205,-7.888515700030326,-0.3097855486126402,0.015067419968545437,-0.0044460296630859375,5.527982500720023,0.003592193126678467
1745973182604315000,12.82531494140625,-0.22929181942347582,0.015184488147497177,-0.04308001444894116,-0.016240904107689857,-0.17338574156301936,0.9339546525656484,-0.4381108732027213,left,0.002027273178100586,-0.5983012093333236,-1.8417535094700752,-7.891093441563844,-0.3095324306150243,0.01977701298892498,-0.002441123127937317,5.523493372607231,0.00044476985931396484
1745973182644315000,12.86531494140625,-0.2295484225850188,0.008612297475337982,-0.04338287828998059,-0.013581836596131325,-0.17306932653450263,0.934091169758203,-0.43740557073547637,left,0.0031314492225646973,-0.5976827586010794,-1.8445552690178155,-7.893945323863625,-0.30925511719868987,0.02276703156530857,-0.003996953368186951,5.518480512881279,-0.001814723014831543
1745973182684314600,12.905314697265625,-0.2299059123281014,0.007199940271675587,-0.04369801488543697,-0.010135612450540066,-0.17284087903215314,0.9342056749687178,-0.43692252493445854,left,0.0017979741096496582,-0.5970671634219018,-1.8481509554222224,-7.896591454458236,-0.30899249280433855,0.01578286848962307,-0.0020051896572113037,5.513489280465245,-0.00029796361923217773
1745973182724314600,12.945314697265625,-0.2303985756864794,-0.002964397892355919,-0.044050931105211376,-0.0063301511108875275,-0.17270989915044693,0.9343089116571699,-0.4366756253435971,left,0.002115488052368164,-0.5963578519494354,-1.852933805784583,-7.899486006855964,-0.3087034689622488,0.020549625158309937,-0.003411412239074707,5.50773524698317,-0.0011777877807617188
1745973182764314600,12.985314697265625,-0.23095892701477355,-0.011313914321362972,-0.044441905947371976,-0.006287535652518272,-0.17270344846717822,0.934435887025743,-0.4366542343976822,left,-0.00010061264038085938,-0.5953028753261738,-1.858689008310437,-7.904097884565592,-0.3082662509858048,0.025412380695343018,-0.005479142069816589,5.499172585821151,0.0011143088340759277
1745973182804315000,13.02531494140625,-0.2311821276969666,-0.018542317673563957,-0.04459527489203979,0.01540234126150608,-0.1730022458972764,0.9345264197009509,-0.43717056773103125,left,-0.004803121089935303,-0.5942257783027028,-1.861809186157584,-7.9094439217686645,-0.3078016679539736,0.01621045544743538,-0.003447309136390686,5.490423462176323,0.0034497976303100586
1745973182844315000,13.06531494140625,-0.2308333349641365,-0.003051716834306717,-0.044430108587070416,0.014300617389380932,-0.17327228492116417,0.9345622598774611,-0.4375481950209886,left,0.00007206201553344727,-0.593757863744749,-1.859637833467871,-7.912592741188407,-0.30756466777651714,0.000552671030163765,-0.002647504210472107,5.486620562762021,0.0036031007766723633
1745973182884315000,13.10531494140625,-0.23047357253499287,0.003695762250572443,-0.04422710941234209,0.007658206392079592,-0.17330348636066356,0.9345325279258443,-0.4375495377129,left,0.0010678768157958984,-0.5940481819418906,-1.856427200858295,-7.911710697656869,-0.3076670213957824,-0.012481092475354671,-0.0006384998559951782,5.488980277630686,0.0000540614128112793
1745973182924314600,13.145314697265626,-0.23047357253499287,0.0010911619756370783,-0.04422710941234209,-0.0009500547312200069,-0.17330348636066356,0.9345325279258443,-0.4375495377129,left,0.002335667610168457,-0.5940481819418906,-1.856427200858295,-7.911710697656869,-0.3076670213957824,-0.017914123833179474,0.0010688602924346924,5.488980277630686,0.0006906390190124512
1745973182964314600,13.185314697265625,-0.2307190594812014,0.0035183108411729336,-0.04414913116875099,-0.005230458918958902,-0.17325101017292055,0.9343344975933419,-0.43776225873444774,left,0.0017771124839782715,-0.5953858305146998,-1.8566886282734572,-7.904099053609371,-0.30830821422238125,-0.017823755741119385,0.0014197081327438354,5.4998459550380705,0.001853644847869873
1745973183004314600,13.225314697265626,-0.2310841848182826,0.012524649500846863,-0.044258968501535316,-0.019487572833895683,-0.1730181361484063,0.9342414359224744,-0.4375315712572805,left,0.00373077392578125,-0.5961913413101484,-1.8585592444509267,-7.899106067627668,-0.30870508966777654,-0.012056782841682434,0.0003644227981567383,5.506384416896105,0.004101872444152832
1745973183044314600,13.265314697265625,-0.2314139644341385,0.016506105661392212,-0.04445395375777272,-0.014441103674471378,-0.17257313431053029,0.9342185551129673,-0.43679858119189335,left,0.0002364516258239746,-0.5967960198982954,-1.8604000500120221,-7.895250561243295,-0.3089953276854555,-0.005844182334840298,-0.000041425228118896484,5.511290309116244,0.00034415721893310547
1745973183084315000,13.30531494140625,-0.2314139644341385,-0.01214502938091755,-0.04445395375777272,0.012839044444262981,-0.17257313431053029,0.9342185551129673,-0.43679858119189335,left,-0.0040659308433532715,-0.5967960198982954,-1.8604000500120221,-7.895250561243295,-0.3089953276854555,-0.003084067488089204,-0.0017892271280288696,5.511290309116244,-0.005421280860900879
1745973183124315000,13.34531494140625,-0.231370289674522,-0.035630449652671814,-0.04416752679961718,0.022724807262420654,-0.17317977681462846,0.9340416818118944,-0.4381665999773353,left,0.0014911890029907227,-0.5972525791355662,-1.8594781128615139,-7.892881494024396,-0.3092317275690002,-0.015011896379292011,-0.0058709681034088135,5.514992670765519,0.0030403733253479004
1745973183164314600,13.385314697265626,-0.2317766587296149,-0.0337739959359169,-0.04404866179563003,0.009112076833844185,-0.17401892945463332,0.9338552387596152,-0.44011044583621,left,0.005175590515136719,-0.5973194662038357,-1.8626006287962198,-7.8917662262588735,-0.30934061589211503,-0.007415523286908865,-0.003802075982093811,5.515535107079148,0.0060803890228271484
