time,seconds_elapsed,roll,rotationRateZ,quaternionY,rotationRateY,quaternionZ,quaternionW,yaw,devicelocation,accelerationZ,pitch,gravityX,gravityZ,quaternionX,rotationRateX,accelerationX,gravityY,accelerationY
1745973236209244200,0.218244140625,-0.2112249894574379,-0.10710667073726654,-0.08728388541535538,0.10902857780456543,4.157639772423779e-17,0.9393475180631841,-0.0740958353844477,left,0.020490050315856934,-0.6727184677109825,-1.6080926376335323,-7.499612244033813,-0.33167409917909857,-0.1081814244389534,-0.0017817765474319458,6.1106660690635435,0.0037974119186401367
1745973236249244200,0.258244140625,-0.2116541614025458,-0.12211155891418457,-0.08658906051983574,0.09876497089862823,-0.0021767349137116524,0.9390287910298561,-0.07910170985819287,left,0.0030630826950073242,-0.6745508651997157,-1.6089561225950717,-7.48796155372858,-0.33274995393278156,-0.07735295593738556,0.002298519015312195,6.124710376507044,0.00035256147384643555
1745973236289244200,0.298244140625,-0.21641574470574795,-0.12836137413978577,-0.0870805006488333,0.0924517884850502,-0.0047340221094778374,0.9372690826907244,-0.08740289469480421,left,-0.005423843860626221,-0.6839679425944408,-1.632134607478231,-7.423553086704016,-0.3375220219665656,-0.07301034778356552,-0.0018374621868133545,6.196562145274878,-0.0004926323890686035
1745973236329244200,0.338244140625,-0.2172399032286939,-0.11880472302436829,-0.08626193102481505,0.10069160163402557,-0.007614927141978415,0.9369002596283825,-0.09408615499751538,left,-0.00990748405456543,-0.6858689649636714,-1.6357104201383887,-7.410689513477682,-0.3387017271596232,-0.0824495479464531,0.0017457157373428345,6.210999835950136,0.002863466739654541
1745973236369244200,0.378244140625,-0.21615807247770688,-0.10989391058683395,-0.08476223641107496,0.09028894454240799,-0.010775750170983102,0.9371371789207689,-0.10027400876518243,left,0.0025859475135803223,-0.6845355471629544,-1.6294671418346465,-7.420537538275123,-0.338338948554011,-0.03618085756897926,-0.0045820921659469604,6.2008753322988746,-0.002707362174987793
1745973236409244400,0.418244384765625,-0.21425031555212556,-0.03310542553663254,-0.08294317722238449,0.10657735168933868,-0.013681171563684761,0.9372027994829266,-0.10577063532674734,left,0.009108304977416992,-0.6844175082073569,-1.615463166401535,-7.424346867430209,-0.3385026866630502,-0.029370252043008804,-0.006181403994560242,6.199978091198205,0.01782059669494629
1745973236449244200,0.458244140625,-0.21277372625431454,0.062466662377119064,-0.08207827403596663,0.0056623066775500774,-0.01418717890999968,0.9370524922714609,-0.10647497402580959,left,0.026529669761657715,-0.6856751801103931,-1.6028507914572954,-7.419096691817045,-0.3391083547426597,-0.047593217343091965,-0.020770102739334106,6.209529178875685,0.031830430030822754
1745973236489244200,0.498244140625,-0.21170654536852113,0.06899413466453552,-0.08161785785175274,0.0747259259223938,-0.013581845252418326,0.9364699243737024,-0.10527772792991295,left,0.0012947320938110352,-0.6895275286134496,-1.5898939869895576,-7.397360660827159,-0.34084904657877907,-0.07992590218782425,0.0021628737449645996,6.238723709177971,0.018870413303375244
1745973236529244200,0.538244140625,-0.21126440621943418,0.03111303597688675,-0.08063557715374008,0.1553124487400055,-0.014051186659373585,0.9348398062258418,-0.1073480802282407,left,-0.0035927295684814453,-0.6993510459417478,-1.5736954241216181,-7.337783851742744,-0.34550692587522386,-0.09479403495788574,0.020982027053833008,6.312748730331659,-0.0006254315376281738
1745973236569244200,0.578244140625,-0.20564143259516798,-0.049320146441459656,-0.0774833239264105,0.13512705266475677,-0.015681785016921256,0.9343164877469805,-0.10929304899638229,left,-0.006219804286956787,-0.7037030377163863,-1.5267860811695455,-7.3195526140034195,-0.34756726735354554,-0.055861182510852814,0.038302309811115265,6.345349269685149,-0.012273848056793213
1745973236609244200,0.618244140625,-0.2025824112068797,-0.100481316447258,-0.07569976341536898,0.10460395365953445,-0.017189992000858908,0.9344397251711368,-0.11136664230162065,left,-0.010821759700775146,-0.7035658978757464,-1.504563435706496,-7.325041274547576,-0.34755772573401345,-0.02226373925805092,0.04249511659145355,6.344323433768749,-0.015196442604064941
1745973236649244400,0.658244384765625,-0.19973875714365083,-0.12929584085941315,-0.07376887286489149,0.04647221788764,-0.019591948820033574,0.9347880960811024,-0.11524966438701094,left,-0.006793677806854248,-0.7019153224554385,-1.4858033517874776,-7.339543847152591,-0.34690855542420507,0.027953702956438065,0.038567058742046356,6.331971901717782,-0.011720597743988037
1745973236689244200,0.698244140625,-0.19696983663520096,-0.12039930373430252,-0.07209449150012515,0.00508358096703887,-0.02194759887059932,0.9356622473680732,-0.11868093557577235,left,-0.008569657802581787,-0.6970860128233036,-1.4714422334797679,-7.373532041472196,-0.34475625083376077,0.060683056712150574,0.032228365540504456,6.295734467166662,-0.0043874382972717285
1745973236729244200,0.738244140625,-0.1956476805416365,-0.11439229547977448,-0.07130637232293692,0.026519371196627617,-0.023135233589896963,0.9361589548313062,-0.1203952646605803,left,-0.01208728551864624,-0.6942717516363665,-1.4651304199844597,-7.392820679309963,-0.3434915148530651,0.0742582380771637,0.031631454825401306,6.274549640318751,-0.00574183464050293
1745973236769244200,0.778244140625,-0.19396204379429652,-0.1372055858373642,-0.07012245370938004,0.022791491821408272,-0.025349305606094715,0.9369581730471679,-0.1239424263786664,left,0.004257798194885254,-0.6895470645422603,-1.4583645791113375,-7.424287246197462,-0.3413935230488468,0.08500152081251144,0.01970618963241577,6.238871593216062,-0.005048632621765137
1745973236809244200,0.818244140625,-0.19483887383704698,-0.215536966919899,-0.069718288751857,0.018362995237112045,-0.028508458726381716,0.9377943059165302,-0.1303053348712571,left,0.005030512809753418,-0.6837494318246097,-1.4718522755853831,-7.458367210453749,-0.33892249672085245,0.12695029377937317,0.01684187352657318,6.194900934064388,-0.009313404560089111
1745973236849244200,0.858244140625,-0.19726841364273162,-0.30533403158187866,-0.06990042852649075,0.04885803908109665,-0.03184567875854867,0.9385325666747348,-0.13759560747555916,left,-0.0008230805397033691,-0.6780138305955391,-1.4969075141258537,-7.489488324904442,-0.33653570970880065,0.18215510249137878,0.01296776533126831,6.151196232372522,-0.0038614869117736816
1745973236889244400,0.898244384765625,-0.20207556194965037,-0.41090428829193115,-0.07031240611273597,0.08194862306118011,-0.03786707111350929,0.9394580252354533,-0.1510994231089163,left,-0.006486177444458008,-0.6697399347866168,-1.5430552250556646,-7.53180829423964,-0.3332278581036953,0.19773630797863007,0.007164478302001953,6.087793142998218,0.0004521608352661133
1745973236929244200,0.938244140625,-0.2106375366027165,-0.48354923725128174,-0.0711114998853912,0.10059170424938202,-0.04840240208470593,0.9406540399392901,-0.17484906716806056,left,-0.010442912578582764,-0.656968568923041,-1.623609647978097,-7.593736634886264,-0.32828390678115377,0.18250930309295654,0.0032171010971069336,5.989110065928101,0.012159883975982666
1745973236969244200,0.978244140625,-0.21845678557795822,-0.3478112518787384,-0.07183599375819685,0.07936589419841766,-0.058171676890651225,0.9414020850599177,-0.19686718778301712,left,0.0047997236251831055,-0.6464708521711774,-1.6964697170056402,-7.64176855212748,-0.32437297278587407,0.13521578907966614,0.00093097984790802,5.907262972846627,0.022380828857421875
1745973237009244200,1.018244140625,-0.2226321954748594,-0.26560699939727783,-0.07254060328285872,0.033250823616981506,-0.06224988267401952,0.9416065500410341,-0.20635580357559194,left,0.006624400615692139,-0.642235148408132,-1.7338713730305433,-7.6589534956842655,-0.32286204849901345,0.10890153050422668,-0.003410905599594116,5.874053946205973,0.015189051628112793
1745973237049244200,1.058244140625,-0.22674411014027837,-0.18340271711349487,-0.07324378293369956,-0.01286425068974495,-0.06632685743524813,0.9417927011183175,-0.21579224573199987,left,0.00844651460647583,-0.6379679678495646,-1.7709683470204471,-7.676113304799794,-0.3213448056770688,0.08258726447820663,-0.007783845067024231,5.840491283822059,0.008033335208892822
1745973237089244200,1.098244140625,-0.23203712783853278,-0.058966927230358124,-0.07492862444142162,-0.049564070999622345,-0.06887953207651036,0.9419275810322747,-0.22245029706487449,left,-0.005933105945587158,-0.634223699983848,-1.816589549858123,-7.687861025738716,-0.32002165974983154,0.06173614412546158,-0.010342240333557129,5.810953639170527,0.003627598285675049
1745973237129244200,1.138244140625,-0.23368832597210917,0.007432900369167328,-0.07573753116195454,-0.04271009564399719,-0.06881346341225861,0.9420095119023311,-0.22271190718496142,left,-0.0055615901947021484,-0.6331859626052939,-1.8306765273995695,-7.690712908038496,-0.3196037964857351,0.04397108405828476,-0.01029089093208313,5.802753381580114,0.006155490875244141
1745973237169244400,1.178244384765625,-0.2342021808985593,0.04696335643529892,-0.07634813683899068,-0.020268326625227928,-0.06785811558271801,0.9421700734921135,-0.22074068300303684,left,-0.010801851749420166,-0.6324208449301076,-1.8356579690739512,-7.694087352907657,-0.31918909191725886,0.03714071959257126,-0.0061260610818862915,5.796702410978079,-0.008543252944946289
1745973237209244200,1.218244140625,-0.232867104629758,0.06587238609790802,-0.07632538234231978,0.014095501974225044,-0.0665220317152185,0.9424647082891389,-0.2173197507003006,left,0.007367730140686035,-0.6315468378327721,-1.8265525793373583,-7.701457589414716,-0.3186053407974072,0.03714977949857712,-0.0003617703914642334,5.789786932501197,-0.0066269636154174805
1745973237249244200,1.258244140625,-0.23164951055816174,0.046117737889289856,-0.0761406724408304,0.024001063778996468,-0.06587740663831548,0.9427437585491175,-0.2153680337695283,left,-0.009607076644897461,-0.6304058468966017,-1.818689444746822,-7.710100914597511,-0.3179573131691706,0.0396348237991333,0.000008866190910339355,5.780751977652311,-0.012081801891326904
1745973237289244200,1.298244140625,-0.2294839787444613,0.0074977390468120575,-0.07541113813982488,0.027697088196873665,-0.06564533217850163,0.9430265276742489,-0.2139875201696453,left,-0.0008937716484069824,-0.6293498651524161,-1.8033762864112852,-7.719961214354634,-0.3173400044918404,0.0038609579205513,-0.001704186201095581,5.772383962279558,-0.007376968860626221
1745973237329244200,1.338244140625,-0.2282775046196424,-0.011750100180506706,-0.07489766470964412,0.020668376237154007,-0.06588710756750808,0.9431883460193949,-0.21397662610687576,left,-0.003636002540588379,-0.6285599433200239,-1.7950922960601745,-7.72657040336132,-0.3169304018470629,0.004731226712465286,-0.0014887601137161255,5.766119641187787,-0.012318730354309082
1745973237369244200,1.378244140625,-0.22829008980948892,-0.006509858183562756,-0.0747611505253458,-0.0014784475788474083,-0.0664708462854949,0.9432366779182773,-0.21513037356263337,left,0.004355370998382568,-0.6279678068694232,-1.7959620646320282,-7.729872367516159,-0.3166969449287759,-0.001814157236367464,-0.0032343119382858276,5.761421838760375,-0.001220405101776123
1745973237409244400,1.418244384765625,-0.22954632245965811,-0.01604452356696129,-0.07524079221191406,-0.017289087176322937,-0.06648487304716663,0.9431066198140836,-0.21564908090289894,left,0.0004470348358154297,-0.6284158147394403,-1.80508367485106,-7.725096239155531,-0.3169677162756898,-0.02533750981092453,-0.004505664110183716,5.76497631637156,-0.0027379989624023438
1745973237449244200,1.458244140625,-0.23080320958528355,-0.025579191744327545,-0.07572040487975597,-0.03309972584247589,-0.0664988918526073,0.9429761403165127,-0.2161686423820744,left,-0.003462374210357666,-0.6288631159210412,-1.8142016318082808,-7.720309589400887,-0.31723835007304396,-0.04886086285114288,-0.005777418613433838,5.768524364241958,-0.004254937171936035
1745973237488918500,1.49791845703125,-0.23340603824797518,-0.021271051838994026,-0.07646344772500864,-0.023909419775009155,-0.0670064569419212,0.9425287840875647,-0.21840486745762958,left,0.003983975388109684,-0.6307258064254407,-1.8318017320372164,-7.705094484612345,-0.31828108267540006,-0.04607609659433365,-0.007708757184445858,5.783286464565992,-0.005441245157271624
1745973237528918500,1.53791845703125,-0.23452269963190278,-0.01964668370783329,-0.07670436087268279,-0.004673877730965614,-0.06757222583867153,0.9423777700763779,-0.22003817441619453,left,-0.0012248754501342773,-0.6310884234535565,-1.8399170878231523,-7.701004000428319,-0.31855062414767765,-0.029250912368297577,-0.008044272661209106,5.786158220610022,-0.003769993782043457
1745973237568918500,1.57791845703125,-0.23564029488364738,-0.018022317439317703,-0.07694521439165698,0.014561664313077927,-0.06813794384423003,0.9422262933280987,-0.22167232778510387,left,-0.006433963775634766,-0.6314494681602505,-1.8480347816966474,-7.696911178156733,-0.3188199747995064,-0.012425730004906654,-0.008379548788070679,5.78901653265059,-0.0020974278450012207
1745973237608918800,1.617918701171875,-0.23574681964603403,0.003085847944021225,-0.07682496332098807,0.02075616642832756,-0.0686101488155279,0.9421789751135453,-0.22271864502525243,left,-0.00522923469543457,-0.6315008846574212,-1.8487851616725324,-7.696424855944514,-0.3188878176076835,-0.005458488129079342,-0.0057411640882492065,5.789423359885811,-0.00003123283386230469
1745973237648918500,1.65791845703125,-0.23469960252041205,0.02132965438067913,-0.07636859824760901,0.018333163112401962,-0.06862488044776635,0.9422068139252394,-0.22241904471097645,left,-0.0005868673324584961,-0.6316539674543272,-1.840518268586695,-7.69749453100264,-0.3189119234052297,-0.013904651626944542,-0.003341972827911377,5.790635073763132,-0.004958450794219971
1745973237688918500,1.69791845703125,-0.23437133907189597,0.008481184020638466,-0.0761989506637898,0.01509136613458395,-0.06851739059885856,0.9421199398748674,-0.22219160636270063,left,-0.003869473934173584,-0.6323823399234596,-1.8370114295095203,-7.693994413927197,-0.3192321707296171,-0.03474103659391403,-0.0004675537347793579,5.796397875073552,-0.008975982666015625
1745973237728918500,1.73791845703125,-0.23480798193431518,-0.016541577875614166,-0.07615090364738762,-0.004582543857395649,-0.06873098406466947,0.9418295525102873,-0.22304804175035126,left,0.0038039684295654297,-0.6340389038239195,-1.838134149929136,-7.683841853225231,-0.3200533157345592,-0.05489492416381836,-0.003618493676185608,5.80949408801198,-0.009520173072814941
1745973237768918500,1.77791845703125,-0.23742889071147918,-0.040370017290115356,-0.07679395569024966,-0.026657186448574066,-0.06951413055739697,0.9413519112484399,-0.22589649368861583,left,0.002646803855895996,-0.6359272371260373,-1.8556829583622514,-7.668321628010273,-0.3211340384591863,-0.055213313549757004,-0.005528092384338379,5.824402903330326,0.000021576881408691406
1745973237808918500,1.81791845703125,-0.23930685709641691,-0.019131962209939957,-0.07729979893064581,-0.01903301104903221,-0.06997343586210898,0.9410366505635754,-0.22770429331303868,left,-0.0027303695678710938,-0.6371428853727898,-1.8684008395075797,-7.65793935020566,-0.32183613260859456,-0.04941511154174805,-0.007949605584144592,5.833989646843075,0.008027315139770508
1745973237848918800,1.857918701171875,-0.24034901119411356,0.008998004719614983,-0.07752756732275798,-0.0035206193570047617,-0.07008672295586095,0.940713885567754,-0.2285701892533328,left,0.0005077719688415527,-0.6388440674496465,-1.8740153183884918,-7.64633717521727,-0.32269917005206683,-0.03329632803797722,-0.007437005639076233,5.8473903956860305,0.007076144218444824
1745973237888918500,1.89791845703125,-0.24034901119411356,0.018527550622820854,-0.07752756732275798,-0.003990897908806801,-0.07008672295586095,0.940713885567754,-0.2285701892533328,left,0.0009974241256713867,-0.6388440674496465,-1.8740153183884918,-7.64633717521727,-0.32269917005206683,-0.012318095192313194,-0.005093201994895935,5.8473903956860305,0.004549086093902588
1745973237928918500,1.93791845703125,-0.24067222314987863,0.021666740998625755,-0.07781040090633307,-0.01187222357839346,-0.06939663016998958,0.9406098102451897,-0.22735625871094342,left,0.00046384334564208984,-0.6397451180241595,-1.8752299548752605,-7.6406111987859004,-0.3230832460095184,0.009440027177333832,-0.0060674697160720825,5.854481815251708,0.0008396506309509277
1745973237968918500,1.97791845703125,-0.24069567036840941,0.014309491030871868,-0.07803561637709748,-0.0014771604910492897,-0.06888051505060189,0.9407070251903172,-0.22620499827293022,left,-0.0013193488121032715,-0.6393527462802819,-1.8759566617146133,-7.642797310653329,-0.3228563237400295,0.01805286854505539,-0.00729718804359436,5.851394370630383,-0.003973782062530518
1745973238008918500,2.01791845703125,-0.23967455981340247,0.02815089374780655,-0.07781526256262494,0.0025715911760926247,-0.06842029974023225,0.9408646879119196,-0.22480247375804635,left,-0.0008373856544494629,-0.6388832890988746,-1.8688034289591013,-7.647376455137133,-0.32254778773372944,0.027429124340415,-0.007416054606437683,5.847699607765675,-0.003999948501586914
1745973238048918500,2.05791845703125,-0.23865452044698118,0.041992299258708954,-0.0775948491194518,0.006620342377573252,-0.06796007647363142,0.9410219292401438,-0.2234010078874675,left,-0.0003555417060852051,-0.638412474364224,-1.8616523881606757,-7.651952677011489,-0.32223906090698023,0.03680538013577461,-0.0075346678495407104,5.843992569941282,-0.004024982452392578
1745973238088103200,2.097103271484375,-0.23706502338485472,0.023590657860040665,-0.07725842613053467,0.014565620571374893,-0.06732595784522792,0.9413193712021592,-0.22133576858673876,left,-0.0002565446775406599,-0.6372943124221564,-1.8510208117701112,-7.6612494976669545,-0.3215837531495713,0.021704837679862976,-0.006684099789708853,5.835183240541816,-0.001409619115293026
1745973238128103200,2.137103271484375,-0.23627434731166816,0.01809961535036564,-0.07702224217460506,0.013831699267029762,-0.06711086222196869,0.9414051696736334,-0.22057769443182423,left,0.0007835626602172852,-0.6370937997992657,-1.8452365292802453,-7.663848281988501,-0.3214343565861924,0.011548000387847424,-0.0065035223960876465,5.833602693352103,-0.0018156766891479492
1745973238168103200,2.177103271484375,-0.23548398450730354,0.012608572840690613,-0.0767860375468186,0.013097777962684631,-0.06689580475993114,0.9414907566527962,-0.21982002991574856,left,0.00182342529296875,-0.6368927772174073,-1.839452246790379,-7.666444143700599,-0.3212849385553357,0.0013911612331867218,-0.006322950124740601,5.832017469987273,-0.002221345901489258
1745973238208103200,2.217103271484375,-0.2343235011547497,0.024603376165032387,-0.07641799464078372,0.019490670412778854,-0.06653679749813997,0.9415611037584264,-0.21867418473567948,left,-0.0002339482307434082,-0.636975682389273,-1.830441987991333,-7.668103601345419,-0.32124104132366166,-0.0020742984488606453,-0.00013905763626098633,5.832671549981832,-0.00031304359436035156
1745973238248103200,2.257103271484375,-0.2343235011547497,0.011663847602903843,-0.07641799464078372,0.010532831773161888,-0.06653679749813997,0.9415611037584264,-0.21867418473567948,left,-0.0016980171203613281,-0.636975682389273,-1.830441987991333,-7.668103601345419,-0.32124104132366166,-0.0042524272575974464,-0.0010093450546264648,5.832671549981832,-0.0022721290588378906
1745973238288103200,2.297103271484375,-0.2343235011547497,0.0013819308951497078,-0.07641799464078372,0.011962682008743286,-0.06653679749813997,0.9415611037584264,-0.21867418473567948,left,0.00005507469177246094,-0.636975682389273,-1.830441987991333,-7.668103601345419,-0.32124104132366166,-0.001012180931866169,-0.0020056217908859253,5.832671549981832,-0.0027022957801818848
1745973238328103400,2.337103515625,-0.23385144566436492,-0.011596943251788616,-0.07616935731949144,0.00979921966791153,-0.06666227415000674,0.9415602100646495,-0.2187950227556804,left,-0.00035190582275390625,-0.6370760777074851,-1.8266862887196242,-7.668397031334042,-0.3212767834295939,0.0008009395096451044,-0.002165555953979492,5.8334629926204675,-0.0051757097244262695
1745973238368103200,2.377103271484375,-0.23383500272528923,-0.03276555985212326,-0.07591842839726587,0.016497550532221794,-0.06745891281229902,0.9415493421933698,-0.22043665445517197,left,-0.0012205243110656738,-0.6367826729120039,-1.8269567762240766,-7.670091560292244,-0.32120170061425507,-0.0033846471924334764,-0.001203775405883789,5.831149454981088,-0.003734111785888672
1745973238408103200,2.417103271484375,-0.23383500272528923,-0.014305355027318,-0.07591842839726587,0.0011875005438923836,-0.06745891281229902,0.9415493421933698,-0.22043665445517197,left,0.002393364906311035,-0.6367826729120039,-1.8269567762240766,-7.670091560292244,-0.32120170061425507,-0.00839803833514452,-0.003939017653465271,5.831149454981088,0.002645134925842285
1745973238448103200,2.457103271484375,-0.23401724877569863,0.011610215529799461,-0.0758266845131581,0.006260422989726067,-0.0679147087012416,0.9414880434675593,-0.22148651783060544,left,-0.000415802001953125,-0.6369095556565634,-1.8281829570181667,-7.669038836368918,-0.32130692457038595,-0.010328995063900948,-0.0027647465467453003,5.8321501564562315,0.0009467005729675293
1745973238488103200,2.497103271484375,-0.2337886161023703,0.008423276245594025,-0.07573935358199901,0.0014139637351036072,-0.06779260591544217,0.9414532951813648,-0.22120394636224486,left,0.0006541609764099121,-0.6372670332668935,-1.8259464301377535,-7.667428478562831,-0.3214552714449465,-0.008349856361746788,-0.002553492784500122,5.8349681364864106,-0.00020521879196166992
1745973238528103200,2.537103271484375,-0.2337886161023703,0.006206205580383539,-0.07573935358199901,0.0032200089190155268,-0.06779260591544217,0.9414532951813648,-0.22120394636224486,left,-0.0009120702743530273,-0.6372670332668935,-1.8259464301377535,-7.667428478562831,-0.3214552714449465,-0.006381611339747906,-0.0004022866487503052,5.8349681364864106,-0.0009327530860900879
1745973238568103400,2.577103515625,-0.2338632890524566,-0.0017551383934915066,-0.0757550817721642,-0.0028140642680227757,-0.06766396842885786,0.9413626892878261,-0.2210520129399426,left,0.00017637014389038086,-0.6378917033401361,-1.825673896806687,-7.6637442370921365,-0.32174359860595875,-0.00465003028512001,-0.003926306962966919,5.839890395319461,0.0005816221237182617
1745973238608103200,2.617103271484375,-0.2338632890524566,0.0013628362212330103,-0.0757550817721642,-0.00727516645565629,-0.06766396842885786,0.9413626892878261,-0.2210520129399426,left,0.0005320310592651367,-0.6378917033401361,-1.825673896806687,-7.6637442370921365,-0.32174359860595875,0.0030969465151429176,-0.003933638334274292,5.839890395319461,0.00018072128295898438
1745973238648103200,2.657103271484375,-0.2338632890524566,0.004480810835957527,-0.0757550817721642,-0.011736268177628517,-0.06766396842885786,0.9413626892878261,-0.2210520129399426,left,0.0008876919746398926,-0.6378917033401361,-1.825673896806687,-7.6637442370921365,-0.32174359860595875,0.010843923315405846,-0.003940969705581665,5.839890395319461,-0.00022023916244506836
1745973238688103200,2.697103271484375,-0.2344620336794956,0.013314365409314632,-0.07614151835344117,-0.011545374058187008,-0.06731957582008868,0.9413899316306913,-0.22049282587939392,left,0.0016195178031921387,-0.6376825543936174,-1.8305458867572246,-7.663837760594487,-0.3216449609187886,0.005672072991728783,-0.002434447407722473,5.838242628112435,-0.001199960708618164
1745973238728103200,2.737103271484375,-0.23437285071362765,0.009601583704352379,-0.07622293611628853,0.022872716188430786,-0.06701804161671542,0.9414410672272672,-0.21979664105599783,left,-0.013088822364807129,-0.6375189704336278,-1.8300842605948446,-7.664930232006311,-0.32153908883890836,0.0050641451962292194,-0.003277003765106201,5.836953757345676,-0.0017261505126953125
1745973238768103200,2.777103271484375,-0.23267942765690874,0.015340260230004787,-0.07551765925203865,0.019228817895054817,-0.06698535345370084,0.9415070658135442,-0.21916873934350434,left,0.0042150020599365234,-0.6376488404290458,-1.8169269651189446,-7.66728059452474,-0.32151914389503156,0.0012654858874157071,-0.004938557744026184,5.837976670652628,0.004269123077392578
1745973238808103200,2.817103271484375,-0.23231976201835924,0.01124127022922039,-0.07544367745449582,0.009341130033135414,-0.06686538617921907,0.9415898878666068,-0.21873499598757978,left,0.0028772354125976562,-0.6372805089335674,-1.814663988623023,-7.670025509318709,-0.3213188100990693,0.004146341234445572,-0.0038971900939941406,5.835073934948444,0.0021972060203552246
1745973238848103200,2.857103271484375,-0.23231976201835924,0.007142279762774706,-0.07544367745449582,-0.0005465568974614143,-0.06686538617921907,0.9415898878666068,-0.21873499598757978,left,0.0012595057487487793,-0.6372805089335674,-1.814663988623023,-7.670025509318709,-0.3213188100990693,0.0070271966978907585,-0.00262509286403656,5.835073934948444,-0.00017076730728149414
1745973238888103200,2.897103271484375,-0.23231976201835924,0.00036821654066443443,-0.07544367745449582,-0.003058898728340864,-0.06686538617921907,0.9415898878666068,-0.21873499598757978,left,0.0005607008934020996,-0.6372805089335674,-1.814663988623023,-7.670025509318709,-0.3213188100990693,0.004226311109960079,-0.0015197843313217163,5.835073934948444,-0.002759099006652832
1745973238928103200,2.937103271484375,-0.23156443506339386,0.024737313389778137,-0.07536679111948631,0.012515399605035782,-0.06636324649493337,0.9417708947344859,-0.2173036812078632,left,-0.002125263214111328,-0.6365744757359824,-1.809815087287128,-7.675401357138156,-0.32091006299993396,0.006149320863187313,-0.002118408679962158,5.829508117514848,-0.0015608668327331543
1745973238968103200,2.977103271484375,-0.23060217463537835,0.0014632134698331356,-0.07504370553821385,0.0062606967985630035,-0.06609702655673544,0.9418147453356674,-0.21643200164754775,left,0.003323972225189209,-0.6367169205031561,-1.8022386606834828,-7.676330746942758,-0.320911951145093,-0.011735623702406883,-0.0030589550733566284,5.830630984064936,-0.004079639911651611
1745973239008103200,3.017103271484375,-0.23075237791757638,-0.02099415473639965,-0.07501410727370222,0.030861960723996162,-0.0663027819096381,0.9417566921656009,-0.21695579582153396,left,-0.010281741619110107,-0.6369529191093721,-1.8030770112037657,-7.674720389136672,-0.32104678157282285,-0.010937599465250969,-0.001812472939491272,5.832492101761698,-0.004476964473724365
1745973239048103200,3.057103271484375,-0.23018436979383639,-0.014478133991360664,-0.0745889618671884,0.02934088557958603,-0.06681414009226493,0.9417245690551845,-0.2178714753515883,left,0.0007134079933166504,-0.6371075207122818,-1.798511749114841,-7.674865350565314,-0.32113428682008893,-0.005402855575084686,-0.006427407264709473,5.833710829901695,0.0026546716690063477
1745973239088103200,3.097103271484375,-0.22877190875814196,0.03239818662405014,-0.07403127956764584,0.009265543892979622,-0.06680247926783883,0.9418370462755702,-0.2173229431408982,left,0.0014845728874206543,-0.6368267779809518,-1.788040770113468,-7.678992659628391,-0.32093564351831455,0.012298645451664925,-0.002849593758583069,5.831497245505452,0.0029463768005371094
1745973239128103200,3.137103271484375,-0.22712126101811064,0.037481486797332764,-0.07366456771326256,0.000048815272748470306,-0.0658579045748233,0.9419810064134411,-0.2147571094086448,left,0.0008407831192016602,-0.6368409784502316,-1.7753443701475857,-7.681853309756517,-0.32079278243994797,0.004815877415239811,0.001160547137260437,5.831609473708272,-0.0017817020416259766
1745973239168103200,3.177103271484375,-0.22692255906273065,0.01881810650229454,-0.07370434405529537,-0.013933979906141758,-0.06532680342900198,0.9419297415759387,-0.21365636696674178,left,0.0014113187789916992,-0.6374765483043469,-1.772983632365614,-7.678592846655845,-0.32104264463407145,-0.009176664054393768,0.0014497637748718262,5.836619410824776,-0.0027574896812438965
1745973239208103200,3.217103271484375,-0.22749439696834559,0.020229266956448555,-0.07400856205596695,-0.025058578699827194,-0.06490498213808799,0.9418011679215127,-0.21308154116199035,left,0.0009012818336486816,-0.6383219963325159,-1.7762607543401419,-7.672767501503229,-0.32143500721235907,-0.019601600244641304,0.0004016309976577759,5.843280037757754,0.00016933679580688477
1745973239248103200,3.257103271484375,-0.2281268002924998,0.022524695843458176,-0.0743678477497032,-0.021631259471178055,-0.06440770131469806,0.9416813538596505,-0.21236097220593905,left,-0.0011592507362365723,-0.639123760774932,-1.7800526939690111,-7.6670765963852405,-0.321803180126483,-0.01554977335035801,-0.0013834983110427856,5.849592289644479,0.001853644847869873
1745973239288103200,3.297103271484375,-0.22818483174218238,0.024402189999818802,-0.07452967567320239,-0.014382542110979557,-0.06382674992860977,0.9416154331207384,-0.21124606957015613,left,-0.0013311505317687988,-0.6397884986981334,-1.7796175174221396,-7.663183680599928,-0.322074031668226,-0.006035505793988705,-0.002785712480545044,5.854823176035285,0.002779722213745117
1745973239328103400,3.337103515625,-0.22818372230148629,0.016538307070732117,-0.07467032035464646,-0.012509426102042198,-0.06331388196485506,0.9415921517555049,-0.2102123587889344,left,-0.000743567943572998,-0.6401643843866458,-1.779111029204726,-7.6610419923961155,-0.32221095931999444,-0.0009413366205990314,-0.0024855881929397583,5.857779687753319,0.000771641731262207
1745973239368103200,3.377103271484375,-0.22851789205767353,0.0029176725074648857,-0.07491047522033753,-0.018209055066108704,-0.0630099427738826,0.9415918201345884,-0.20968562570292995,left,0.001469254493713379,-0.6401945910677995,-1.7816310492016374,-7.660275099676847,-0.3222159046324696,0.0056089782156050205,-0.0030388683080673218,5.858017588162422,-0.0011123418807983398
1745973239408103200,3.417103271484375,-0.22917060584957957,0.005019627045840025,-0.07526173259910733,-0.01720736362040043,-0.06284063345690327,0.9416087591463344,-0.20951334338654168,left,0.0025316476821899414,-0.6399533569915868,-1.786951513572037,-7.660486112079024,-0.32211734043699164,0.008180521428585052,-0.0042848289012908936,5.856120230108499,0.0005261898040771484
1745973239448103200,3.457103271484375,-0.2295218344123626,0.009778587147593498,-0.07551723232671263,-0.010486596263945103,-0.06261126089655411,0.9416595439802475,-0.2090954559348306,left,0.001498103141784668,-0.63961309311899,-1.7900952184252439,-7.661797779199481,-0.32195368403047975,0.015518656000494957,-0.0045478492975234985,5.8534431198537344,-0.0005436539649963379
1745973239488103200,3.497103271484375,-0.22906918693565273,0.01227131299674511,-0.07542221006969474,0.01589127629995346,-0.06242267327650507,0.9417427342424254,-0.20849308292528343,left,-0.004430174827575684,-0.639297256170156,-1.7870466445095836,-7.664407084915042,-0.3217692667113146,0.008390018716454506,-0.002809196710586548,5.850957732778787,0.0017458200454711914
1745973239528103200,3.537103271484375,-0.22853947300149816,0.005929382983595133,-0.07524089393426668,0.006850617006421089,-0.062359340983338875,0.9418021451733586,-0.20814914035917464,left,-0.0009726881980895996,-0.6391059084321893,-1.7832402379639445,-7.66644355917871,-0.3216503614542477,0.008274856023490429,-0.0028262585401535034,5.849452004390955,0.0017036795616149902
1745973239568103400,3.577103515625,-0.22853947300149816,0.005521778017282486,-0.07524089393426668,0.001687807496637106,-0.062359340983338875,0.9418021451733586,-0.20814914035917464,left,0.0016315579414367676,-0.6391059084321893,-1.7832402379639445,-7.66644355917871,-0.3216503614542477,0.012191809713840485,-0.0013094693422317505,5.849452004390955,0.0005156993865966797
1745973239608103200,3.617103271484375,-0.22823261345209853,0.0018549440428614616,-0.07520855825693465,-0.0014652814716100693,-0.06225510413347103,0.9419255177970007,-0.207725062371609,left,0.0016878843307495117,-0.6384464979392316,-1.7817599362783132,-7.670746224808693,-0.3213167525667523,0.011732417158782482,-0.002416267991065979,5.8442602809667585,-0.0012534856796264648
1745973239648103200,3.657103271484375,-0.22823261345209853,0.0012264446122571826,-0.07520855825693465,0.008392530493438244,-0.06225510413347103,0.9419255177970007,-0.207725062371609,left,-0.00033414363861083984,-0.6384464979392316,-1.7817599362783132,-7.670746224808693,-0.3213167525667523,0.00553457485511899,-0.000977739691734314,5.8442602809667585,-0.0016226768493652344
1745973239688103200,3.697103271484375,-0.22751819527791045,0.0015598366735503078,-0.07493378108060333,0.010720286518335342,-0.06229437760751772,0.9420185275757338,-0.20750585616543551,left,-0.000019490718841552734,-0.6380487181722783,-1.776803482914716,-7.674280828675627,-0.3211004239129451,0.0009753517806529999,-0.0021765828132629395,5.841127243638038,-0.0005222558975219727
1745973239728103200,3.737103271484375,-0.22695680418047637,0.0020465701818466187,-0.07469882162086507,0.001993735320866108,-0.06230204574616977,0.9420473428390959,-0.20732856127960472,left,0.0023368000984191895,-0.6380336555367454,-1.7725148458100854,-7.675363363215327,-0.32106925129469044,-0.001875986810773611,-0.001538977026939392,5.841008585694432,-0.000857234001159668
1745973239768103200,3.777103271484375,-0.22695680418047637,0.004786285106092691,-0.07469882162086507,0.004800616763532162,-0.06230204574616977,0.9420473428390959,-0.20732856127960472,left,0.001178145408630371,-0.6380336555367454,-1.7725148458100854,-7.675363363215327,-0.32106925129469044,-0.00014802184887230396,-0.0015590190887451172,5.841008585694432,-0.0003121495246887207
1745973239808103200,3.817103271484375,-0.22695680418047637,0.0032457453198730946,-0.07469882162086507,-0.00017423182725906372,-0.06230204574616977,0.9420473428390959,-0.20732856127960472,left,-0.0005004405975341797,-0.6380336555367454,-1.7725148458100854,-7.675363363215327,-0.32106925129469044,-0.003400077112019062,-0.0016565024852752686,5.841008585694432,0.0012243390083312988
1745973239848103200,3.857103271484375,-0.22695680418047637,0.002766355872154236,-0.07469882162086507,-0.0026473510079085827,-0.06230204574616977,0.9420473428390959,-0.20732856127960472,left,-0.0005828142166137695,-0.6380336555367454,-1.7725148458100854,-7.675363363215327,-0.32106925129469044,-0.0037411274388432503,-0.001457497477531433,5.841008585694432,0.0015240907669067383
1745973239888103200,3.897103271484375,-0.22695680418047637,0.0013616057112812996,-0.07469882162086507,-0.0014819343341514468,-0.06230204574616977,0.9420473428390959,-0.20732856127960472,left,-0.0002142786979675293,-0.6380336555367454,-1.7725148458100854,-7.675363363215327,-0.32106925129469044,-0.000554053345695138,-0.001550421118736267,5.841008585694432,0.0013175010681152344
1745973239928103200,3.937103271484375,-0.22695680418047637,-0.002042118227109313,-0.07469882162086507,0.002880724612623453,-0.06230204574616977,0.9420473428390959,-0.20732856127960472,left,-0.0006874799728393555,-0.6380336555367454,-1.7725148458100854,-7.675363363215327,-0.32106925129469044,-0.005772985517978668,-0.001005128026008606,5.841008585694432,0.0010768771171569824
1745973239968103200,3.977103271484375,-0.2271367093946513,-0.005485441070050001,-0.07468854723539659,0.00018983148038387299,-0.06238948269770622,0.9419384091204226,-0.20766618648132623,left,0.0014750361442565918,-0.6386466930148493,-1.7730888463057577,-7.67155344953835,-0.32137397032913245,-0.006805742625147104,-0.0018999278545379639,5.8458367365032435,0.0005331039428710938
1745973240008103200,4.017103271484375,-0.2271367093946513,-0.005224993452429771,-0.07468854723539659,-0.0012335795909166336,-0.06238948269770622,0.9419384091204226,-0.20766618648132623,left,0.0007139444351196289,-0.6386466930148493,-1.7730888463057577,-7.67155344953835,-0.32137397032913245,-0.00644262321293354,-0.0020763128995895386,5.8458367365032435,0.0008512139320373535
1745973240048103200,4.057103271484375,-0.22764828313485239,-0.005886425729840994,-0.07478106749789522,0.0018561661709100008,-0.0626147629643912,0.9418249337133366,-0.20839026040813194,left,0.0005174875259399414,-0.6391265908216239,-1.7763798506751656,-7.667911878165603,-0.32164122641865645,-0.004920309409499168,-0.0021196305751800537,5.849614501476288,0.0003591775894165039
1745973240088103200,4.097103271484375,-0.22764828313485239,-0.003842490492388606,-0.07478106749789522,0.0025491900742053986,-0.0626147629643912,0.9418249337133366,-0.20839026040813194,left,0.0005894899368286133,-0.6391265908216239,-1.7763798506751656,-7.667911878165603,-0.32164122641865645,-0.004874864127486944,-0.002361103892326355,5.849614501476288,0.002071082592010498
1745973240128103200,4.137103271484375,-0.2281310743935793,-0.0032099487725645304,-0.07485944895891151,-0.0004684203304350376,-0.06286988601043908,0.941724721481021,-0.20915467798226514,left,0.0008516907691955566,-0.6395149301342946,-1.7795678330615161,-7.664839631113409,-0.32186640897062,-0.002361113205552101,-0.0024261474609375,5.852670966437459,0.000533759593963623
1745973240168103200,4.177103271484375,-0.22859655543925653,-0.0033615410793572664,-0.07498784324627288,-0.004735341761261225,-0.06302999897938528,0.9416739375370556,-0.20967090646280354,left,0.0006660819053649902,-0.6396295042334278,-1.7829834867238998,-7.663357868123054,-0.3219539006523475,0.00017495802603662014,-0.0017506331205368042,5.853572299191355,0.00005078315734863281
1745973240208103200,4.217103271484375,-0.22859655543925653,-0.001275405054911971,-0.07498784324627288,-0.002392473863437772,-0.06302999897938528,0.9416739375370556,-0.20967090646280354,left,0.0013996362686157227,-0.6396295042334278,-1.7829834867238998,-7.663357868123054,-0.3219539006523475,0.0011144168674945831,-0.001873806118965149,5.853572299191355,-0.00015777349472045898
1745973240248103200,4.257103271484375,-0.22859655543925653,0.006944483146071434,-0.07498784324627288,-0.0009832698851823807,-0.06302999897938528,0.9416739375370556,-0.20967090646280354,left,0.002392590045928955,-0.6396295042334278,-1.7829834867238998,-7.663357868123054,-0.3219539006523475,0.002774870488792658,-0.0026706159114837646,5.853572299191355,-0.0007469058036804199
1745973240288103200,4.297103271484375,-0.22859655543925653,0.013846531510353088,-0.07498784324627288,0.010517687536776066,-0.06302999897938528,0.9416739375370556,-0.20967090646280354,left,-0.0036420822143554688,-0.6396295042334278,-1.7829834867238998,-7.663357868123054,-0.3219539006523475,0.0030090154614299536,-0.0013549625873565674,5.853572299191355,0.0034348368644714355
1745973240328103400,4.337103515625,-0.22801154394122608,0.012354928068816662,-0.07483450113513115,0.003033007960766554,-0.0627481190072652,0.9417099901751959,-0.20888279380181815,left,0.0010405182838439941,-0.639700439793272,-1.7784060958057641,-7.6639949969828125,-0.3219391284429438,0.000895399134606123,-0.001148998737335205,5.854130517596006,0.002909541130065918
1745973240368103200,4.377103271484375,-0.22765970470550959,0.015431512147188187,-0.0747997816004197,-0.006568496581166983,-0.06243846060479625,0.9417572744986733,-0.20809549218641343,left,0.0033649206161499023,-0.6396371249237033,-1.7757931368283926,-7.664981085410714,-0.32186908683382753,0.006674783769994974,-0.0017609447240829468,5.853632504945993,0.0025032758712768555
1745973240408103200,4.417103271484375,-0.22748587208279084,0.01487064827233553,-0.07487729940055551,-0.008631125092506409,-0.06203324774715606,0.9418117587219567,-0.20715697748846257,left,0.0016694068908691406,-0.6395116654564086,-1.7746262850061059,-7.666005167761445,-0.32176994904826306,0.007840020582079887,-0.001982390880584717,5.852645247474312,0.001080334186553955
1745973240448103200,4.457103271484375,-0.22748158181529218,0.008597690612077713,-0.07498415877202601,-0.002547199372202158,-0.061715935554858596,0.9418332204704416,-0.20648129233206644,left,-0.0008193254470825195,-0.6395090064205718,-1.774596912781149,-7.666027964115142,-0.32174325951507166,0.0022627594880759716,-0.0011186152696609497,5.8526242046862835,-0.0010898113250732422
1745973240488103200,4.497103271484375,-0.22748158181529218,0.003209938295185566,-0.07498415877202601,-0.00007202848792076111,-0.061715935554858596,0.9418332204704416,-0.20648129233206644,left,-0.00046765804290771484,-0.6395090064205718,-1.774596912781149,-7.666027964115142,-0.32174325951507166,-0.0021177721209824085,-0.0015033036470413208,5.8526242046862835,-0.00003921985626220703
1745973240528103200,4.537103271484375,-0.22748158181529218,0.00275516789406538,-0.07498415877202601,-0.0040498762391507626,-0.061715935554858596,0.9418332204704416,-0.20648129233206644,left,0.0017212629318237305,-0.6395090064205718,-1.774596912781149,-7.666027964115142,-0.32174325951507166,-0.003672335296869278,-0.002481818199157715,5.8526242046862835,-0.0011578798294067383
1745973240568103400,4.577103515625,-0.22738800818071794,0.0022819056175649166,-0.07494664746844754,0.002982401754707098,-0.06157681444028624,0.9417678522045482,-0.20622960830012194,left,-0.0009663701057434082,-0.6400209539385091,-1.773203997118026,-7.6632742814928285,-0.32197011104437806,-0.008440660312771797,-0.0021235793828964233,5.856651560506224,-0.0009760260581970215
1745973240608103200,4.617103271484375,-0.22738800818071794,-0.0012457913253456354,-0.07494664746844754,0.0026009739376604557,-0.06157681444028624,0.9417678522045482,-0.20622960830012194,left,-0.0007458329200744629,-0.6400209539385091,-1.773203997118026,-7.6632742814928285,-0.32197011104437806,-0.0075699565932154655,-0.0016188472509384155,5.856651560506224,0.0006238222122192383
1745973240648103200,4.657103271484375,-0.22738800818071794,0.0011690498795360327,-0.07494664746844754,0.0008672672556713223,-0.06157681444028624,0.9417678522045482,-0.20622960830012194,left,0.000870048999786377,-0.6400209539385091,-1.773203997118026,-7.6632742814928285,-0.32197011104437806,-0.0025077764876186848,-0.0016400516033172607,5.856651560506224,0.0013732314109802246
1745973240688103200,4.697103271484375,-0.22738800818071794,0.005465376190841198,-0.07494664746844754,-0.003031384199857712,-0.06157681444028624,0.9417678522045482,-0.20622960830012194,left,0.0014743804931640625,-0.6400209539385091,-1.773203997118026,-7.6632742814928285,-0.32197011104437806,-0.0007268601329997182,-0.0019182413816452026,5.856651560506224,0.0025922656059265137
1745973240728103200,4.737103271484375,-0.227160895109666,0.015188551507890224,-0.07489962198706723,-0.006168719381093979,-0.06131959691133683,0.9417258751778136,-0.20567227537963473,left,0.0026851892471313477,-0.6404714670721744,-1.7708691244296728,-7.661104536238312,-0.32215275270940585,-0.0005906256847083569,-0.002490207552909851,5.860194932201504,0.0025007128715515137
1745973240768103200,4.777103271484375,-0.2267861273051642,0.018150072544813156,-0.07483490421775896,-0.0013879300095140934,-0.06093796038988674,0.9417006219137105,-0.20479843041741144,left,0.0015575885772705078,-0.6409113241974659,-1.7674181071929633,-7.659255693501233,-0.3223140779972724,-0.0017790028359740973,-0.0012710392475128174,5.86365296370089,0.0007443428039550781
1745973240808103200,4.817103271484375,-0.2267861273051642,0.01195103395730257,-0.07483490421775896,-0.0029693078249692917,-0.06093796038988674,0.9417006219137105,-0.20479843041741144,left,0.001215815544128418,-0.6409113241974659,-1.7674181071929633,-7.659255693501233,-0.3223140779972724,-0.0010762225138023496,-0.0004887431859970093,5.86365296370089,0.0002490878105163574
1745973240848103200,4.857103271484375,-0.2265170085187226,0.008052607998251915,-0.07483562077665921,-0.007367458660155535,-0.06052392605150366,0.9416897648205884,-0.20387491712930056,left,0.0005665421485900879,-0.6412368979571406,-1.764927897812426,-7.657870376622676,-0.322423482087936,0.0005393240135163069,-0.0022050142288208008,5.866212000533938,0.0011820793151855469
1745973240888103200,4.897103271484375,-0.2265170085187226,0.0027021015994250774,-0.07483562077665921,-0.0032078255899250507,-0.06052392605150366,0.9416897648205884,-0.20387491712930056,left,-0.0013574957847595215,-0.6412368979571406,-1.764927897812426,-7.657870376622676,-0.322423482087936,0.005069304257631302,-0.0012799352407455444,5.866212000533938,0.000619053840637207
1745973240928103200,4.937103271484375,-0.2265696147481556,-0.002593416254967451,-0.07496270843133933,-0.002552909078076482,-0.06029985205099315,0.941751030357313,-0.20337007900146337,left,0.000931859016418457,-0.6409176642820062,-1.765751343024522,-7.659601730459928,-0.32225700069615126,0.013017511926591396,-0.0012871474027633667,5.863702648061514,-0.0011219978332519531
1745973240968103200,4.977103271484375,-0.2265696147481556,-0.0019048477988690138,-0.07496270843133933,-0.0018942637834697962,-0.06029985205099315,0.941751030357313,-0.20337007900146337,left,0.0015923380851745605,-0.6409176642820062,-1.765751343024522,-7.659601730459928,-0.32225700069615126,0.005591908935457468,-0.0014708787202835083,5.863702648061514,-0.0006313323974609375
1745973241008103200,5.017103271484375,-0.2266829116630382,0.0014529190957546234,-0.0750641568347898,-0.0014527302701026201,-0.060239719139662085,0.9418079780834385,-0.2032254837138792,left,-0.0010028481483459473,-0.6405392818890769,-1.7671176629416643,-7.661563385921716,-0.32207817930265525,0.00186232291162014,-0.0016817599534988403,5.860728016164899,-0.0007457733154296875
1745973241048103200,5.057103271484375,-0.2266829116630382,0.00529471505433321,-0.0750641568347898,0.007595551200211048,-0.060239719139662085,0.9418079780834385,-0.2032254837138792,left,-0.0033648014068603516,-0.6405392818890769,-1.7671176629416643,-7.661563385921716,-0.32207817930265525,-0.0018944814801216125,-0.0033202320337295532,5.860728016164899,0.0004805922508239746
1745973241088103200,5.097103271484375,-0.2266829116630382,0.006903264671564102,-0.0750641568347898,-0.0008236989378929138,-0.060239719139662085,0.9418079780834385,-0.2032254837138792,left,-0.0002638697624206543,-0.6405392818890769,-1.7671176629416643,-7.661563385921716,-0.32207817930265525,-0.0030043739825487137,-0.003001600503921509,5.860728016164899,0.0008093118667602539
1745973241128103200,5.137103271484375,-0.2266829116630382,0.009375167079269886,-0.0750641568347898,-0.004124394617974758,-0.060239719139662085,0.9418079780834385,-0.2032254837138792,left,0.00040078163146972656,-0.6405392818890769,-1.7671176629416643,-7.661563385921716,-0.32207817930265525,-0.0071561639197170734,-0.0030336380004882812,5.860728016164899,0.00025218725204467773
1745973241168103200,5.177103271484375,-0.22652672871159232,0.009940143674612045,-0.0750848122844382,-0.006017879582941532,-0.05984967668462646,0.9417572536801712,-0.20242265019157066,left,0.001056671142578125,-0.6410760576080415,-1.7652141674079,-7.658772293898463,-0.3222941993801058,-0.01253550685942173,-0.003412768244743347,5.864947679686546,-0.0004176497459411621
1745973241208103200,5.217103271484375,-0.22644961510496134,0.005915660411119461,-0.07508552879404727,-0.002584506291896105,-0.05962923787383369,0.9417007134590903,-0.2019985606918571,left,0.0014339685440063477,-0.6415558914573807,-1.7639916398756206,-7.656165326270461,-0.3225001685702532,-0.005775235593318939,-0.0028261393308639526,5.868718430396914,-0.00015270709991455078
1745973241248103200,5.257103271484375,-0.22644961510496134,0.01173320785164833,-0.07508552879404727,-0.0050712572410702705,-0.05962923787383369,0.9417007134590903,-0.2019985606918571,left,0.003885030746459961,-0.6415558914573807,-1.7639916398756206,-7.656165326270461,-0.3225001685702532,-0.005417910870164633,-0.0026436299085617065,5.868718430396914,0.0043179988861083984
1745973241288103200,5.297103271484375,-0.22647448082105118,0.010451516136527061,-0.07519460124376103,-0.0004596998915076256,-0.059253416525633866,0.941670882038291,-0.20125844593240372,left,-0.0027158260345458984,-0.6418935052039534,-1.7637369344621896,-7.6541896422833196,-0.322630883046202,0.0019505922682583332,-0.0016924291849136353,5.871370406210422,0.0033090710639953613
1745973241328103400,5.337103515625,-0.22631970605145635,-0.0005104364827275276,-0.07518062117437385,-0.002996740397065878,-0.05907186428922585,0.9416689984353424,-0.20083944054255518,left,0.0006046891212463379,-0.6420273125145867,-1.7623760213725268,-7.653697474852204,-0.3226730579924979,0.001968773314729333,-0.00215892493724823,5.872421376568079,-0.0000921487808227539
1745973241368103200,5.377103271484375,-0.22631970605145635,-0.004020126536488533,-0.07518062117437385,-0.0022474676370620728,-0.05907186428922585,0.9416689984353424,-0.20083944054255518,left,0.0002167820930480957,-0.6420273125145867,-1.7623760213725268,-7.653697474852204,-0.3226730579924979,0.0012126441579312086,-0.0016809701919555664,5.872421376568079,0.00011026859283447266
1745973241408103200,5.417103271484375,-0.22631970605145635,0.0012508821673691273,-0.07518062117437385,0.0020666313357651234,-0.05907186428922585,0.9416689984353424,-0.20083944054255518,left,0.0003883242607116699,-0.6420273125145867,-1.7623760213725268,-7.653697474852204,-0.3226730579924979,0.0010448105167597532,-0.0015909820795059204,5.872421376568079,-0.0001735091209411621
1745973241448103200,5.457103271484375,-0.22631970605145635,0.0023753074929118156,-0.07518062117437385,0.0034439065493643284,-0.05907186428922585,0.9416689984353424,-0.20083944054255518,left,0.0008942484855651855,-0.6420273125145867,-1.7623760213725268,-7.653697474852204,-0.3226730579924979,-0.007113502360880375,-0.0010942965745925903,5.872421376568079,0.0009211301803588867
1745973241488103200,5.497103271484375,-0.22641397429522178,-0.0007440918125212193,-0.0751728444616049,-0.001563345082104206,-0.05907494016531281,0.9415840836373732,-0.20095417598929058,left,0.002290666103363037,-0.6425448157714648,-1.7624150382086634,-7.650568529176711,-0.3229219591193288,-0.010838747955858707,-0.0006560087203979492,5.87648497274518,0.0008677244186401367
1745973241528103200,5.537103271484375,-0.22641397429522178,-0.006211779545992613,-0.0751728444616049,-0.0027900764252990484,-0.05907494016531281,0.9415840836373732,-0.20095417598929058,left,0.0014681220054626465,-0.6425448157714648,-1.7624150382086634,-7.650568529176711,-0.3229219591193288,-0.0033667259849607944,-0.0017395168542861938,5.87648497274518,0.0006209015846252441
1745973241568103400,5.577103515625,-0.22688175303523664,-0.00561496103182435,-0.07528839060855702,0.001172739313915372,-0.05925803245512414,0.9415224115452766,-0.20152992741522124,left,-0.0002722740173339844,-0.6427244095649369,-1.765756165330112,-7.648715010264516,-0.3230413509176445,0.0009471187368035316,-0.0011884570121765137,5.877894839543104,0.0020299553871154785
1745973241608103200,5.617103271484375,-0.22688175303523664,0.0012068976648151875,-0.07528839060855702,-0.0006793088978156447,-0.05925803245512414,0.9415224115452766,-0.20152992741522124,left,0.001877903938293457,-0.6427244095649369,-1.765756165330112,-7.648715010264516,-0.3230413509176445,0.004011495970189571,-0.0021942108869552612,5.877894839543104,0.0022282004356384277
1745973241648103200,5.657103271484375,-0.22688175303523664,0.004691735841333866,-0.07528839060855702,-0.008985364809632301,-0.05925803245512414,0.9415224115452766,-0.20152992741522124,left,0.0019851326942443848,-0.6427244095649369,-1.765756165330112,-7.648715010264516,-0.3230413509176445,0.01088716834783554,-0.0033344924449920654,5.877894839543104,-0.00004309415817260742
1745973241688103200,5.697103271484375,-0.22699966145506162,0.003998234868049622,-0.07545042171246488,-0.001931662205606699,-0.05908223471155969,0.9416199035786623,-0.20110968379301217,left,-0.0004190802574157715,-0.6421308032564953,-1.7674429493732748,-7.651905330738424,-0.32275164816074925,0.017928358167409897,-0.0029323697090148926,5.873234446516633,-0.0015500187873840332
1745973241728103200,5.737103271484375,-0.2268126025618085,0.004855905659496784,-0.07547633327277456,0.004864862654358149,-0.05896678726476881,0.9417478719203527,-0.2006942971559407,left,-0.001116037368774414,-0.6414083213417727,-1.7669652488589285,-7.656368155366182,-0.32239289793701387,0.019784731790423393,-0.0029315203428268433,5.867558738967776,-0.002566099166870117
1745973241768103200,5.777103271484375,-0.22640285672899682,0.009166376665234566,-0.07541771213594776,-0.00020907120779156685,-0.058821711999373916,0.9418851256101232,-0.2001431493628707,left,0.003789365291595459,-0.6407065460202539,-1.7647518105931579,-7.661102198150753,-0.3220320563569539,0.01839054748415947,-0.0069281309843063354,5.862043190416693,-0.0037047266960144043
1745973241808103400,5.817103515625,-0.22572151286773495,0.01739489659667015,-0.07525698032073831,0.016383707523345947,-0.05858799284048471,0.9420071069127974,-0.19934310275954692,left,-0.003964841365814209,-0.6402211327184297,-1.7601681360647081,-7.665075193434953,-0.3217550604316021,0.004567796364426613,-0.006051391363143921,5.85822626247704,0.00214463472366333
1745973241848103200,5.857103271484375,-0.22482970953003556,0.010941743850708008,-0.07493520483892645,0.013155775144696236,-0.05838858972085785,0.94202874524484,-0.19864637205191943,left,0.002186417579650879,-0.6404356535130713,-1.753051582057774,-7.66541655421853,-0.32180310072089513,-0.005752578377723694,-0.004718765616416931,5.859913192650676,0.0004202127456665039
1745973241888103200,5.897103271484375,-0.22427727802121195,-0.0010214848443865776,-0.07467220146258564,0.01926528662443161,-0.05845147595933368,0.9420305508632231,-0.19861050950737089,left,0.002400517463684082,-0.6405689103243313,-1.7486431179657578,-7.665622890445589,-0.3218478771592406,-0.001710632350295782,-0.002370402216911316,5.8609612403988836,0.0018761754035949707
1745973241928103200,5.937103271484375,-0.22363500760474503,-0.0029019960202276707,-0.07430463427790722,0.028578031808137894,-0.05869211526901311,0.9420138669518219,-0.19893196594112272,left,0.002123594284057617,-0.6407759724092541,-1.7434500793673098,-7.665560931125283,-0.3219378606202538,-0.0051911212503910065,-0.0006578713655471802,5.86258913386166,0.004314780235290527
1745973241968103200,5.977103271484375,-0.22279355623788089,-0.00698581850156188,-0.0738227761952261,0.030840683728456497,-0.05903093457502615,0.9420040131240023,-0.19939017322711408,left,0.0026303529739379883,-0.6409588322787316,-1.736762418296933,-7.665979448798298,-0.3220155585965925,-0.0033967960625886917,0.001202508807182312,5.8640264731883995,0.0038419365882873535
1745973242008103200,6.017103271484375,-0.2221891311033123,-0.01029279362410307,-0.07344512624315891,0.018594903871417046,-0.059389147639914354,0.942003235703444,-0.1999503054978493,left,0.0023946762084960938,-0.6410019265426347,-1.73207294530645,-7.666781412830948,-0.322038421103124,0.003558958414942026,0.0009915679693222046,5.864364911362529,0.0019769668579101562
1745973242048103200,6.057103271484375,-0.22168842225272656,-0.008507338352501392,-0.07319007618074058,0.009027174673974514,-0.05962225859749515,0.9420700752537848,-0.20021995414893362,left,0.002491772174835205,-0.6406264898038476,-1.728717789659649,-7.669794623172283,-0.3218578745754968,0.01165265217423439,-0.0002862662076950073,5.861413660341501,0.001132667064666748
1745973242088103200,6.097103271484375,-0.2212385266460678,-0.0076882485300302505,-0.0729946717823145,0.01623709313571453,-0.05981777547593003,0.9421819709942223,-0.20038514434641985,left,-0.00037682056427001953,-0.6399579696679308,-1.726126457992196,-7.6743924723565575,-0.3215379326457109,0.019135823473334312,-0.00037901103496551514,5.85615647046566,-0.0010036826133728027
1745973242128103200,6.137103271484375,-0.22054925409101891,0.01062805950641632,-0.07278759098069507,0.0088725620880723,-0.05976282124987906,0.9423256589201728,-0.19993301008220024,left,-0.0012589693069458008,-0.6392588286851073,-1.721731584034115,-7.679573674386739,-0.3211738770282107,0.01590907573699951,-0.0018241256475448608,5.8506555349618194,0.0008992552757263184
1745973242168103200,6.177103271484375,-0.21989965119293897,0.012044403702020645,-0.07265119279121848,0.005492132622748613,-0.05948135256628953,0.9424415441472557,-0.19905147082217783,left,-0.0013172030448913574,-0.6388195536467642,-1.7173029539369045,-7.6831982946246855,-0.3209169739332743,0.009877298027276993,-0.0009484142065048218,5.847197503462433,-0.0003502368927001953
1745973242208103200,6.217103271484375,-0.21989965119293897,-0.0007458971813321114,-0.07265119279121848,0.0012986105866730213,-0.05948135256628953,0.9424415441472557,-0.19905147082217783,left,-0.00030285120010375977,-0.6388195536467642,-1.7173029539369045,-7.6831982946246855,-0.3209169739332743,-0.006301006302237511,-0.0006849914789199829,5.847197503462433,-0.0012732744216918945
1745973242248103200,6.257103271484375,-0.22017174440637977,-0.015290210954844952,-0.07267994506974669,0.0009279263904318213,-0.05959528652462438,0.9423405831707335,-0.1994611489575739,left,0.0006113052368164062,-0.6393452719343831,-1.7187218808241187,-7.679730326253175,-0.32118585037568903,-0.025312108919024467,0.000053882598876953125,5.851335918441414,0.000895082950592041
1745973242288103200,6.297103271484375,-0.2207879135241348,-0.016133617609739304,-0.0727354344386223,0.002168575767427683,-0.059953832677542514,0.9421498097695067,-0.20056159759800296,left,0.0021442174911499023,-0.6402462959264515,-1.7222982780061662,-7.673522119262814,-0.3216656767383692,-0.030993111431598663,0.0003355741500854492,5.858424415397644,0.0022896528244018555
1745973242328103400,6.337103515625,-0.2213123019469264,-0.012171149253845215,-0.07276697648263945,0.0016411414835602045,-0.060270966290572096,0.9419670688185231,-0.201542361249197,left,0.0009763836860656738,-0.6411378512516562,-1.7251747102253139,-7.6675184949338435,-0.32213397489890006,-0.025546547025442123,0.0011075586080551147,5.865433417376876,0.003902256488800049
1745973242368103200,6.377103271484375,-0.22162967458003816,-0.006268618628382683,-0.07277021217944946,-0.00000804185401648283,-0.06046507586050376,0.9418302804170098,-0.2021651738310692,left,0.0009020566940307617,-0.6418450390166814,-1.7266957823127507,-7.662922399315238,-0.32249676371894764,-0.01171663124114275,0.001302957534790039,5.870989882460236,0.002695739269256592
1745973242408103200,6.417103271484375,-0.22162967458003816,-0.004233007784932852,-0.07277021217944946,-0.003926556091755629,-0.06046507586050376,0.9418302804170098,-0.2021651738310692,left,0.001426100730895996,-0.6418450390166814,-1.7266957823127507,-7.662922399315238,-0.32249676371894764,-0.0007025254890322685,0.0010719597339630127,5.870989882460236,0.0020107626914978027
1745973242448103200,6.457103271484375,-0.2221750742187101,-0.00189710664562881,-0.07298235600429819,-0.014860406517982483,-0.06048910116233251,0.9417921829592484,-0.20241334692244992,left,0.0015935301780700684,-0.6419168376488588,-1.7307821748435497,-7.661569231140613,-0.32255582275171213,0.005550102796405554,-0.0008007586002349854,5.871553946083783,0.0009452104568481445
1745973242488103200,6.497103271484375,-0.22289883077015923,0.0009914666879922152,-0.0733426006802589,-0.018990153446793556,-0.06036809133900793,0.9417974606779996,-0.2023747885930445,left,0.0026123523712158203,-0.6417137667461309,-1.7365904227308928,-7.661476876682043,-0.32248137191986725,0.010632190853357315,-0.0034149885177612305,5.869958785846829,-0.0009355545043945312
1745973242528103200,6.537103271484375,-0.22378593616788028,0.003046297701075673,-0.07381114583123873,-0.02154414728283882,-0.06017941878662627,0.941829266381961,-0.2022200723620505,left,0.0022492408752441406,-0.6413164704173606,-1.7439036683537066,-7.662206944522262,-0.3223167426836752,0.012590526603162289,-0.0047495365142822266,5.866836854434013,-0.0009477734565734863
1745973242568103400,6.577103515625,-0.2242622976790761,0.009082432836294174,-0.07411499086529046,-0.012192102149128914,-0.05995920549382465,0.941873976671758,-0.20186539217566643,left,0.0021992921829223633,-0.6409727510363619,-1.7480017513222992,-7.663340332466364,-0.322157297652494,0.010447192937135696,-0.007263749837875366,5.864135778781772,-0.0015058517456054688
1745973242608103200,6.617103271484375,-0.2242622976790761,0.012048713862895966,-0.07411499086529046,0.01397610455751419,-0.05995920549382465,0.941873976671758,-0.20186539217566643,left,-0.0034703612327575684,-0.6409727510363619,-1.7480017513222992,-7.663340332466364,-0.322157297652494,0.0031350767239928246,-0.006278112530708313,5.864135778781772,-0.0005921721458435059
1745973242648103200,6.657103271484375,-0.2234273087402426,0.005634733010083437,-0.07382272358562064,0.013380838558077812,-0.059793243849434845,0.9419208663789339,-0.20123036019038806,left,0.0007541775703430176,-0.64099298220226,-1.7415761021889744,-7.664681810203194,-0.3221182561657106,-0.005323483608663082,-0.005111441016197205,5.864294768735766,-0.0007115602493286133
1745973242688103200,6.697103271484375,-0.2234273087402426,0.0020731070544570684,-0.07382272358562064,0.011377488262951374,-0.059793243849434845,0.9419208663789339,-0.20123036019038806,left,0.0012412071228027344,-0.64099298220226,-1.7415761021889744,-7.664681810203194,-0.3221182561657106,-0.0039880545809865,-0.0027793049812316895,5.864294768735766,0.0011761784553527832
1745973242728103200,6.737103271484375,-0.2234273087402426,0.00020900997333228588,-0.07382272358562064,0.005876829382032156,-0.059793243849434845,0.9419208663789339,-0.20123036019038806,left,0.002362668514251709,-0.64099298220226,-1.7415761021889744,-7.664681810203194,-0.3221182561657106,-0.0014728601090610027,-0.0011809468269348145,5.864294768735766,0.00034946203231811523
1745973242768103200,6.777103271484375,-0.22281606329684067,-0.004609476774930954,-0.07351703608809873,0.008044544607400894,-0.05988626829336704,0.9419091615767131,-0.20125117493860226,left,0.0002576112747192383,-0.6412161218191653,-1.7366015286467968,-7.664468459713459,-0.3222050449859785,-0.004872716031968594,-0.0009228885173797607,5.866048334404826,0.000288546085357666
1745973242808103400,6.817103515625,-0.2224629981793682,-0.004030128475278616,-0.07328751879668312,0.0066741593182086945,-0.060052412896236286,0.9418697297357554,-0.2015256392769586,left,0.0015978217124938965,-0.6415094819063238,-1.7335155453301965,-7.66340229178667,-0.32234165462512826,-0.008820018731057644,-0.00017596781253814697,5.868353688737749,0.00162583589553833
1745973242848103200,6.857103271484375,-0.2224629981793682,-0.003669186495244503,-0.07328751879668312,-0.0020286478102207184,-0.060052412896236286,0.9418697297357554,-0.2015256392769586,left,0.0037062764167785645,-0.6415094819063238,-1.7335155453301965,-7.66340229178667,-0.32234165462512826,-0.007691108621656895,0.000987127423286438,5.868353688737749,0.0019292831420898438
1745973242888103200,6.897103271484375,-0.22261957194949483,-0.004971789196133614,-0.07325725579275497,-0.0004171289037913084,-0.06019744892493669,0.9417728185074534,-0.20196222025788516,left,0.0013331770896911621,-0.6420271877535175,-1.7340443915098904,-7.660166378605365,-0.32260434775193686,-0.005055282264947891,0.0008642673492431641,5.872420792046189,0.0019302964210510254
1745973242928103200,6.937103271484375,-0.22301262545161124,-0.006651704199612141,-0.07333827602056478,-0.005431011319160461,-0.06032448750840907,0.941678270494157,-0.20243032442289383,left,0.0007327795028686523,-0.6424656712999084,-1.736485501051694,-7.656972551000118,-0.322838242846158,-0.007838774472475052,-0.00007981061935424805,5.875863625976443,0.004588127136230469
1745973242968103200,6.977103271484375,-0.22358952960827205,-0.0028927382081747055,-0.07352266475035561,-0.005657931789755821,-0.060385917560070654,0.9415873218647409,-0.2028147589447604,left,0.0005375146865844727,-0.6428515141498028,-1.7403997518859802,-7.653758265128731,-0.3230500510934138,-0.0035589844919741154,-0.0009635090827941895,5.878892618408798,0.0028107762336730957
1745973243008103200,7.017103271484375,-0.22358952960827205,-0.0006161825731396675,-0.07352266475035561,-0.005547171458601952,-0.060385917560070654,0.9415873218647409,-0.2028147589447604,left,0.0014541149139404297,-0.6428515141498028,-1.7403997518859802,-7.653758265128731,-0.3230500510934138,0.011900002136826515,-0.002843335270881653,5.878892618408798,0.0003656148910522461
1745973243048103200,7.057103271484375,-0.223933721802827,0.002594302175566554,-0.07373085009999356,-0.004468590021133423,-0.060296522359864865,0.9416371921467813,-0.20268626342472984,left,-0.0006874203681945801,-0.6424624310475893,-1.7435418493039905,-7.655388496679067,-0.32287390890673,0.00885162502527237,-0.00297372043132782,5.875838491535187,-0.00045299530029296875
1745973243088103200,7.097103271484375,-0.223933721802827,0.00044961017556488514,-0.07373085009999356,-0.009866449981927872,-0.060296522359864865,0.9416371921467813,-0.20268626342472984,left,0.0022605061531066895,-0.6424624310475893,-1.7435418493039905,-7.655388496679067,-0.32287390890673,0.0015992471016943455,-0.004830941557884216,5.875838491535187,-0.0016535520553588867
1745973243128103200,7.137103271484375,-0.22495800701899116,0.0001900151837617159,-0.07420383689951639,-0.01725681684911251,-0.060161504228547706,0.9415993575187651,-0.20274883046750727,left,0.002292931079864502,-0.6424494905033371,-1.75139913867563,-7.653672924932837,-0.3229010288675352,-0.0035013677552342415,-0.005841284990310669,5.875736784726381,0.0008333325386047363
1745973243168103200,7.177103271484375,-0.2258189921194117,0.0035860324278473854,-0.0746019102782084,-0.010980077087879181,-0.06000851069753896,0.9415471925633836,-0.20273900042456303,left,0.0005557537078857422,-0.6425849414617633,-1.7578098825007675,-7.651386275300383,-0.32298981840444957,-0.004341082647442818,-0.005650311708450317,5.876800030043721,0.0013709068298339844
1745973243208103200,7.217103271484375,-0.2258189921194117,0.0018905302276834846,-0.0746019102782084,-0.0019350359216332436,-0.06000851069753896,0.9415471925633836,-0.20273900042456303,left,-0.0004608035087585449,-0.6425849414617633,-1.7578098825007675,-7.651386275300383,-0.32298981840444957,-0.00436475919559598,-0.004062563180923462,5.876800030043721,0.0003567337989807129
1745973243248103200,7.257103271484375,-0.2258189921194117,-0.002992241643369198,-0.0746019102782084,0.007209682837128639,-0.06000851069753896,0.9415471925633836,-0.20273900042456303,left,-0.0008521080017089844,-0.6425849414617633,-1.7578098825007675,-7.651386275300383,-0.32298981840444957,-0.009869406931102276,-0.0032508373260498047,5.876800030043721,0.000013709068298339844
1745973243288103200,7.297103271484375,-0.22622996271628618,-0.007113996427506208,-0.07466228773094885,0.005742497276514769,-0.06019967881531644,0.9414376914142215,-0.20335969747353638,left,0.0014346837997436523,-0.6430858125780644,-1.7602938082709907,-7.6477932192444795,-0.32325931303207667,-0.01175149716436863,-0.0019040554761886597,5.880731524273753,-0.0002542734146118164
1745973243328103400,7.337103515625,-0.22666655039118325,-0.004466746002435684,-0.07472730706197304,0.004954678472131491,-0.06041745995696726,0.9413311444480262,-0.2040404796304405,left,0.0010322332382202148,-0.6435486185584465,-1.763020749016851,-7.644371428102255,-0.32351403589027217,-0.01231533382087946,-0.00058726966381073,5.884363158774375,0.0009542703628540039
1745973243368103200,7.377103271484375,-0.22679095585784528,-0.0012119943276047707,-0.0746810841834944,0.007132930215448141,-0.06057571031990408,0.9412397588699423,-0.20449090299475728,left,0.002389967441558838,-0.6440328567968937,-1.7633308378793298,-7.641374584373831,-0.32376077787637686,-0.013190723024308681,0.000054210424423217773,5.888161382013559,0.000721275806427002
1745973243408103200,7.417103271484375,-0.22679095585784528,0.0036653918214142323,-0.0746810841834944,0.01368170976638794,-0.06057571031990408,0.9412397588699423,-0.20449090299475728,left,-0.0021848082542419434,-0.6440328567968937,-1.7633308378793298,-7.641374584373831,-0.32376077787637686,-0.004500893875956535,0.00038623809814453125,5.888161382013559,0.0025295019149780273
1745973243448103200,7.457103271484375,-0.22588500774879403,0.012650394812226295,-0.07427212294708753,0.00760595453903079,-0.060543887552542947,0.9412087017847109,-0.20418387974647859,left,0.001574397087097168,-0.644523797447078,-1.7557598181031644,-7.640151180058718,-0.3239511502478128,-0.003538694465532899,-0.0012907832860946655,5.892010458657145,0.004779338836669922
1745973243488103200,7.497103271484375,-0.22552601422224858,0.012540960684418678,-0.0741684453194066,-0.004810365382581949,-0.06033854312514122,0.941194747552158,-0.20366571896752778,left,0.003118455410003662,-0.6448080431862298,-1.7526424167349934,-7.639148140496015,-0.3240537987769563,0.000011639902368187904,-0.0018535256385803223,5.89423865610063,0.003027200698852539
1745973243528103200,7.537103271484375,-0.22552601422224858,0.008517066948115826,-0.0741684453194066,-0.008010481484234333,-0.06033854312514122,0.941194747552158,-0.20366571896752778,left,0.002025902271270752,-0.6448080431862298,-1.7526424167349934,-7.639148140496015,-0.3240537987769563,0.0009671525913290679,-0.0026992857456207275,5.89423865610063,0.0013519525527954102
1745973243568103400,7.577103515625,-0.22581251803251928,0.005651480983942747,-0.07436843092358816,-0.004744485020637512,-0.060019630397711354,0.9411515325802672,-0.20313380738137696,left,0.0006946921348571777,-0.6451288598522071,-1.754407380580902,-7.636801869630813,-0.32419250022458723,-0.0035150290932506323,-0.00272272527217865,5.896752684748172,0.001119077205657959
1745973243608103200,7.617103271484375,-0.2258653224758975,0.004885324742645025,-0.07441185933925315,0.002032154705375433,-0.059877423085205536,0.9411102505684364,-0.20289495653511885,left,0.0008854269981384277,-0.6454363201552138,-1.754404604101926,-7.63494250549972,-0.32432875160501606,-0.005057243630290031,-0.002357393503189087,5.899161499455571,0.000883936882019043
1745973243648103200,7.657103271484375,-0.2258653224758975,0.0034626158885657787,-0.07441185933925315,0.000914866803213954,-0.059877423085205536,0.9411102505684364,-0.20289495653511885,left,0.004293918609619141,-0.6454363201552138,-1.754404604101926,-7.63494250549972,-0.32432875160501606,-0.009246205911040306,-0.0015552937984466553,5.899161499455571,0.0009418725967407227
1745973243688103200,7.697103271484375,-0.22580951059392992,0.0014234150294214487,-0.07433231653529546,0.01213009562343359,-0.059868868302276335,0.9410099160992605,-0.20295512574451038,left,-0.0005352497100830078,-0.6461006824304562,-1.7531005357660352,-7.631219101062417,-0.32463951873366814,-0.011493527330458164,0.000013217329978942871,5.90436491331756,0.0013601183891296387
1745973243728103200,7.737103271484375,-0.22571066709282864,-0.004189387895166874,-0.07420813642040258,0.005034263711422682,-0.05996635376819007,0.9409219119901443,-0.20320967012384564,left,0.0008712410926818848,-0.6466551078197352,-1.7516133659482,-7.628200045502186,-0.3249048543020162,-0.008091813884675503,-0.001931801438331604,5.908704988348484,0.002055943012237549
1745973243768103200,7.777103271484375,-0.22583654475649473,-0.008486388251185417,-0.07418019959590896,0.004121355712413788,-0.060157433693881227,0.9408791850093627,-0.20368246092271863,left,0.0006880760192871094,-0.6468126109084834,-1.7523652072288094,-7.62707250277698,-0.32499969053439426,-0.00208633067086339,-0.0013299435377120972,5.909937745013833,0.0014910101890563965
1745973243808103400,7.817103515625,-0.22606790535098722,-0.00838763453066349,-0.07420697830757583,-0.000317893922328949,-0.060387919929642556,0.9408717559834083,-0.2042350264205264,left,0.002777099609375,-0.6466951491579476,-1.75428536163643,-7.627343720933794,-0.3249723321064273,0.003459369298070669,-0.0013824254274368286,5.909018292081356,0.0013352036476135254
1745973243848103200,7.857103271484375,-0.22606790535098722,-0.0012574517168104649,-0.07420697830757583,0.0024663994554430246,-0.060387919929642556,0.9408717559834083,-0.2042350264205264,left,0.0015496611595153809,-0.6466951491579476,-1.75428536163643,-7.627343720933794,-0.3249723321064273,0.005363826174288988,-0.0007058680057525635,5.909018292081356,0.0008087158203125
1745973243888103200,7.897103271484375,-0.22606790535098722,0.0015787910670042038,-0.07420697830757583,-0.0008213270921260118,-0.060387919929642556,0.9408717559834083,-0.2042350264205264,left,0.001634359359741211,-0.6466951491579476,-1.75428536163643,-7.627343720933794,-0.3249723321064273,0.0014866937417536974,-0.0011432915925979614,5.909018292081356,0.00011175870895385742
1745973243928103200,7.937103271484375,-0.22606790535098722,0.0012252372689545155,-0.07420697830757583,-0.009697549976408482,-0.060387919929642556,0.9408717559834083,-0.2042350264205264,left,0.0037229061126708984,-0.6466951491579476,-1.75428536163643,-7.627343720933794,-0.3249723321064273,0.0008266004733741283,-0.0027630627155303955,5.909018292081356,0.0002409219741821289
1745973243968103200,7.977103271484375,-0.22655213358002807,0.0025143835227936506,-0.0744540877748552,-0.00684462022036314,-0.06029294906181874,0.9408786076299769,-0.20417792590077594,left,0.0013368725776672363,-0.6465427979236561,-1.7581807616397738,-7.62737060894072,-0.32491369241343804,0.002611767500638962,-0.0037222057580947876,5.9078258674263955,0.0009223222732543945
1745973244008103200,8.017103271484375,-0.22655213358002807,0.0004649730399250984,-0.0744540877748552,0.00021499674767255783,-0.06029294906181874,0.9408786076299769,-0.20417792590077594,left,-0.0015835165977478027,-0.6465427979236561,-1.7581807616397738,-7.62737060894072,-0.32491369241343804,0.0024966837372630835,-0.004258826375007629,5.9078258674263955,0.0007392168045043945
1745973244048103200,8.057103271484374,-0.22655213358002807,-0.00626795319840312,-0.0744540877748552,0.006018639542162418,-0.06029294906181874,0.9408786076299769,-0.20417792590077594,left,0.0002047419548034668,-0.6465427979236561,-1.7581807616397738,-7.62737060894072,-0.32491369241343804,0.004254445433616638,-0.0033709704875946045,5.9078258674263955,-0.0012729763984680176
1745973244088103200,8.097103271484375,-0.22655213358002807,-0.007767844945192337,-0.0744540877748552,0.007746024988591671,-0.06029294906181874,0.9408786076299769,-0.20417792590077594,left,0.0011466145515441895,-0.6465427979236561,-1.7581807616397738,-7.62737060894072,-0.32491369241343804,0.001153207616880536,-0.0015492886304855347,5.9078258674263955,-0.0012489557266235352
1745973244128103200,8.137103271484374,-0.22655213358002807,-0.003832278773188591,-0.0744540877748552,-0.00018024444580078125,-0.06029294906181874,0.9408786076299769,-0.20417792590077594,left,0.0037341713905334473,-0.6465427979236561,-1.7581807616397738,-7.62737060894072,-0.32491369241343804,-0.0018090165685862303,-0.001166611909866333,5.9078258674263955,0.00046122074127197266
1745973244168103200,8.177103271484375,-0.22655213358002807,0.0017971466295421124,-0.0744540877748552,0.0035542550031095743,-0.06029294906181874,0.9408786076299769,-0.20417792590077594,left,-0.001562654972076416,-0.6465427979236561,-1.7581807616397738,-7.62737060894072,-0.32491369241343804,-0.00025224138516932726,-0.0019422322511672974,5.9078258674263955,0.0034983158111572266
1745973244208103200,8.217103271484374,-0.22655213358002807,0.013021206483244896,-0.0744540877748552,0.0023463410325348377,-0.06029294906181874,0.9408786076299769,-0.20417792590077594,left,0.0012437701225280762,-0.6465427979236561,-1.7581807616397738,-7.62737060894072,-0.32491369241343804,0.0024355887435376644,-0.003210589289665222,5.9078258674263955,0.005157172679901123
1745973244248103200,8.257103271484375,-0.22655213358002807,0.011945636942982674,-0.0744540877748552,-0.0015740771777927876,-0.06029294906181874,0.9408786076299769,-0.20417792590077594,left,0.0018461346626281738,-0.6465427979236561,-1.7581807616397738,-7.62737060894072,-0.32491369241343804,0.00916999764740467,-0.0019068419933319092,5.9078258674263955,0.0009840130805969238
1745973244288103200,8.297103271484374,-0.22655213358002807,0.0034934785217046738,-0.0744540877748552,-0.0015424267621710896,-0.06029294906181874,0.9408786076299769,-0.20417792590077594,left,0.001634359359741211,-0.6465427979236561,-1.7581807616397738,-7.62737060894072,-0.32491369241343804,0.004437892232090235,-0.001908138394355774,5.9078258674263955,-0.0012816786766052246
1745973244328103400,8.337103515625,-0.22655213358002807,0.000051826005801558495,-0.0744540877748552,-0.001860078889876604,-0.06029294906181874,0.9408786076299769,-0.20417792590077594,left,0.0003718137741088867,-0.6465427979236561,-1.7581807616397738,-7.62737060894072,-0.32491369241343804,0.0008977185934782028,-0.002309545874595642,5.9078258674263955,-0.00031441450119018555
1745973244368103200,8.377103271484375,-0.22655213358002807,0.002795013366267085,-0.0744540877748552,0.004345174413174391,-0.06029294906181874,0.9408786076299769,-0.20417792590077594,left,0.00118255615234375,-0.6465427979236561,-1.7581807616397738,-7.62737060894072,-0.32491369241343804,-0.003783374559134245,-0.0026018768548965454,5.9078258674263955,0.0018628835678100586
1745973244408103200,8.417103271484375,-0.22655213358002807,0.005233992822468281,-0.0744540877748552,0.0009114041458815336,-0.06029294906181874,0.9408786076299769,-0.20417792590077594,left,0.003091156482696533,-0.6465427979236561,-1.7581807616397738,-7.62737060894072,-0.32491369241343804,-0.0006537430454045534,-0.0028049051761627197,5.9078258674263955,0.001484692096710205
1745973244448103200,8.457103271484375,-0.22582956507260532,0.00805619265884161,-0.07422400416639939,0.0065405648201704025,-0.0601013301883656,0.9409307452080009,-0.20351593681039182,left,0.0012244582176208496,-0.6465075760970436,-1.7527156281016767,-7.628841850537062,-0.3248508906983907,-0.0003144717193208635,-0.0025431662797927856,5.907550557616353,0.0018735527992248535
1745973244488103200,8.497103271484375,-0.22582956507260532,0.005463138222694397,-0.07422400416639939,-0.00009264843538403511,-0.0601013301883656,0.9409307452080009,-0.20351593681039182,left,0.0015132427215576172,-0.6465075760970436,-1.7527156281016767,-7.628841850537062,-0.3248508906983907,0.009443875402212143,-0.0032683461904525757,5.907550557616353,0.0007848739624023438
1745973244528103200,8.537103271484375,-0.2250783477304858,0.03159991651773453,-0.07410294768298212,0.0030783957336097956,-0.05969797269385972,0.9410812641826222,-0.20231542354299314,left,0.0010613203048706055,-0.645934918482483,-1.7477388626024126,-7.633452559202909,-0.324516534088205,0.022465024143457413,-0.005232095718383789,5.903066690200567,0.004270017147064209
1745973244568103400,8.577103515625,-0.2235985998970377,0.04530055820941925,-0.07380642025339104,0.010466305539011955,-0.058964687380191436,0.9413106865621078,-0.2001412187546409,left,0.0009734630584716797,-0.6452070175137626,-1.7373935558073221,-7.640217815554141,-0.32405230652336636,0.02931053563952446,-0.004496440291404724,5.897365263688564,0.001175522804260254
1745973244608103200,8.617103271484375,-0.22193293990922255,0.045029591768980026,-0.0734662902152153,0.013819863088428974,-0.05810745993105222,0.9415419010579146,-0.197654361201691,left,-0.00016957521438598633,-0.6445655742609863,-1.7254975124388932,-7.646789595159888,-0.3236123164739537,0.02166295424103737,-0.0020129382610321045,5.89233779091537,-0.0010075569152832031
1745973244648103200,8.657103271484376,-0.22042670794199432,0.03059614636003971,-0.07307242189855899,0.013540199026465416,-0.0574821424068737,0.94168033922629,-0.19578106253197988,left,0.0014258027076721191,-0.6443730888768845,-1.714225592318177,-7.650486111590266,-0.3234102111005849,0.010011732578277588,-0.0009295940399169922,5.890829139918089,-0.0012550950050354004
1745973244688103200,8.697103271484375,-0.21915522439519486,0.024588149040937424,-0.07271013624981774,0.011069627478718758,-0.05701100504187638,0.9417752717074873,-0.19433719703045216,left,0.001750946044921875,-0.6443260673168015,-1.7045571618713438,-7.652930582132935,-0.32329916528898,0.004618909675627947,-0.0002653151750564575,5.890460306605696,0.00048035383224487305
1745973244728103200,8.737103271484376,-0.21807886608559635,0.019040368497371674,-0.07238006263229875,0.012166419997811317,-0.05667868715556475,0.9418503841917982,-0.19325707118310315,left,0.000513613224029541,-0.6442908428703381,-1.6963637724131344,-7.654963549265265,-0.32321291372988176,0.004351017531007528,-0.0015802979469299316,5.890184412273764,0.0022348761558532715
1745973244768103200,8.777103271484375,-0.21709943607817986,0.011246544308960438,-0.07203866888460447,0.01070975698530674,-0.05648177304548845,0.9419033805261989,-0.19250620196334867,left,0.0015891790390014648,-0.644314516323045,-1.688835422734916,-7.656485059744119,-0.32316917188220295,0.0033493409864604473,-0.0009952634572982788,5.890369705712795,0.002665877342224121
1745973244808103400,8.817103515625,-0.21709943607817986,0.0032476643100380898,-0.07203866888460447,0.0029706130735576153,-0.05648177304548845,0.9419033805261989,-0.19250620196334867,left,0.002519845962524414,-0.644314516323045,-1.688835422734916,-7.656485059744119,-0.32316917188220295,0.0012469766661524773,-0.00009231269359588623,5.890369705712795,0.0024543404579162598
1745973244848103200,8.857103271484375,-0.21709943607817986,-0.004128501750528812,-0.07203866888460447,-0.00022532441653311253,-0.05648177304548845,0.9419033805261989,-0.19250620196334867,left,0.002768099308013916,-0.644314516323045,-1.688835422734916,-7.656485059744119,-0.32316917188220295,0.0010144691914319992,0.000811457633972168,5.890369705712795,0.000934898853302002
1745973244888103200,8.897103271484376,-0.21757914529363473,-0.028164494782686234,-0.07213498008965018,-0.002010645344853401,-0.05676022759521417,0.941851120980396,-0.19327439721390313,left,0.0006173253059387207,-0.644401853718882,-1.692397060739249,-7.655172223579883,-0.3232512732913286,-0.014150774106383324,0.0004980117082595825,5.891054765367508,0.0004126429557800293
1745973244928103200,8.937103271484375,-0.2183588674044324,-0.002066532149910927,-0.07231998364310299,-0.0027038082480430603,-0.05710973335480031,0.9417597917825222,-0.1943155077490667,left,0.004506587982177734,-0.6446226760639251,-1.6980835819430649,-7.652579868999123,-0.32341433109268447,-0.003893536515533924,-0.0015970468521118164,5.8927855346828695,0.00496983528137207
1745973244968103200,8.977103271484374,-0.2183588674044324,0.0015979870222508907,-0.07231998364310299,0.013720948249101639,-0.05710973335480031,0.9417597917825222,-0.1943155077490667,left,-0.0037337541580200195,-0.6446226760639251,-1.6980835819430649,-7.652579868999123,-0.32341433109268447,-0.003801648737862706,-0.0010788887739181519,5.8927855346828695,0.0032831430435180664
1745973245008103200,9.017103271484375,-0.21843192649872215,-0.024043770506978035,-0.07218985562866011,0.00434639398008585,-0.05745664386056683,0.9416605022564861,-0.19514546436753516,left,0.001935422420501709,-0.6451029894995787,-1.6980290752768517,-7.649691746342182,-0.32367095487189107,-0.02218744345009327,-0.0028610676527023315,5.896549855652451,-0.0002924203872680664
1745973245048103200,9.057103271484374,-0.219262958992873,-0.02955750934779644,-0.07226883823517928,0.004707660060375929,-0.058074186625965536,0.9414876021529849,-0.19683122223005828,left,0.001476287841796875,-0.6457231042846313,-1.7035899242743848,-7.644706943666934,-0.3240457019052861,-0.02297387085855007,-0.0026611685752868652,5.9014078170776365,-0.00046902894973754883
1745973245088103200,9.097103271484375,-0.21975374856508242,-0.013779660686850548,-0.07225221232019988,0.0069541968405246735,-0.05858220255062256,0.9413521375070447,-0.19815393980443777,left,0.0015287399291992188,-0.6462443277064405,-1.7066709391549229,-7.640867219373583,-0.3243513654175246,-0.016061119735240936,-0.002980262041091919,5.905489533433318,-0.00003790855407714844
1745973245128103200,9.137103271484374,-0.21983850253499548,-0.007280358579009771,-0.07214642479850177,0.0073316371999681,-0.05887794803075455,0.9412600950155269,-0.1988755048976355,left,0.0012001991271972656,-0.6466911980369767,-1.7067429814778268,-7.638146269977092,-0.3245886467532838,-0.010623268783092499,-0.0031925737857818604,5.908987896943092,-0.0001875162124633789
1745973245168103200,9.177103271484375,-0.2198865920666288,-0.00550492201000452,-0.07203448846395646,0.0067075639963150024,-0.05914285388068802,0.941168972034853,-0.19952133789876425,left,0.0021044015884399414,-0.6471539997745942,-1.7065135566361247,-7.635394925442338,-0.32482953211682025,-0.012364169582724571,-0.0026653259992599487,5.9126090100497,0.0021677017211914062
1745973245208103200,9.217103271484374,-0.21991024045757726,-0.0017305538058280945,-0.07194152432242189,0.0028991601429879665,-0.05931633487199579,0.9410805026219045,-0.19996833709570755,left,0.003324151039123535,-0.6476430301100201,-1.7060631825201213,-7.632531937226653,-0.3250747381993624,-0.00947452150285244,-0.0024986863136291504,5.916434705817699,0.0018239021301269531
1745973245248103200,9.257103271484375,-0.21991024045757726,0.0006436461117118597,-0.07194152432242189,0.008864758536219597,-0.05931633487199579,0.9410805026219045,-0.19996833709570755,left,0.001199483871459961,-0.6476430301100201,-1.7060631825201213,-7.632531937226653,-0.3250747381993624,-0.006649363320320845,-0.00035959482192993164,5.916434705817699,0.0016573667526245117
1745973245288103200,9.297103271484374,-0.21969264925965543,-0.0006134588038548827,-0.07177593759222406,0.004621835425496101,-0.059427572398538374,0.9410175736324847,-0.20019005740467316,left,0.0019101500511169434,-0.6480645655081781,-1.7038586582131683,-7.63046799043417,-0.3252731201728266,0.000288898590952158,-0.00041106343269348145,5.919730824753642,0.0023826956748962402
1745973245328103400,9.337103515625,-0.21969264925965543,0.0028365841135382652,-0.07177593759222406,-0.0009598718024790287,-0.059427572398538374,0.9410175736324847,-0.20019005740467316,left,0.002055227756500244,-0.6480645655081781,-1.7038586582131683,-7.63046799043417,-0.3252731201728266,0.0006933980621397495,0.000244826078414917,5.919730824753642,0.0030024051666259766
1745973245368103200,9.377103271484375,-0.21969264925965543,0.002876712242141366,-0.07177593759222406,-0.004032071214169264,-0.059427572398538374,0.9410175736324847,-0.20019005740467316,left,0.002749323844909668,-0.6480645655081781,-1.7038586582131683,-7.63046799043417,-0.3252731201728266,0.004268975928425789,-0.0008144080638885498,5.919730824753642,0.0014369487762451172
1745973245408103200,9.417103271484375,-0.21969264925965543,0.0046761841513216496,-0.07177593759222406,-0.0068023246712982655,-0.059427572398538374,0.9410175736324847,-0.20019005740467316,left,0.0015877485275268555,-0.6480645655081781,-1.7038586582131683,-7.63046799043417,-0.3252731201728266,0.0031164423562586308,-0.0014783740043640137,5.919730824753642,0.0013871192932128906
1745973245448103200,9.457103271484375,-0.21969264925965543,0.002809918485581875,-0.07177593759222406,-0.006324388552457094,-0.059427572398538374,0.9410175736324847,-0.20019005740467316,left,0.002827763557434082,-0.6480645655081781,-1.7038586582131683,-7.63046799043417,-0.3252731201728266,-0.0006540922913700342,-0.002451762557029724,5.919730824753642,0.0004975199699401855
1745973245488103200,9.497103271484375,-0.22040206355469552,-0.0011211731471121311,-0.0721215216454324,-0.010568892583251,-0.05923866828117164,0.9409723676959701,-0.20005607627394037,left,0.000977158546447754,-0.6482195117148738,-1.7090708399035035,-7.628361958065629,-0.3253617301420803,-0.00025424404884688556,-0.0035401135683059692,5.920941954109073,0.0010256171226501465
1745973245528103200,9.537103271484375,-0.22105376923592907,-0.004583702888339758,-0.07241337161277331,-0.00701473094522953,-0.05917059299058739,0.9409435547986452,-0.2001394244409161,left,0.001126408576965332,-0.6482381741111284,-1.7140177947863935,-7.627139138272404,-0.32539273334305185,0.0010100087383762002,-0.004118412733078003,5.921088084581494,0.0016705989837646484
1745973245568103400,9.577103515625,-0.22105376923592907,-0.0047086626291275024,-0.07241337161277331,-0.0028426642529666424,-0.05917059299058739,0.9409435547986452,-0.2001394244409161,left,-0.000005662441253662109,-0.6482381741111284,-1.7140177947863935,-7.627139138272404,-0.32539273334305185,0.0032438039779663086,-0.0036910921335220337,5.921088084581494,0.0015162825584411621
1745973245608103200,9.617103271484375,-0.2216899408561158,-0.0055663492530584335,-0.0726551202537568,0.0007527957204729319,-0.059285113363105955,0.9409383996066617,-0.20057359550765427,left,0.0005359649658203125,-0.6480357319028468,-1.7191330919735133,-7.627216295161843,-0.32533280157385386,-0.0003499304875731468,-0.0028448104858398438,5.919505199304223,0.001087188720703125
1745973245648103200,9.657103271484376,-0.2222329858224871,-0.005671588703989983,-0.0728380914278879,-0.0021398444660007954,-0.05941338675561095,0.9409092518432954,-0.201030104843215,left,0.0016567707061767578,-0.6480087008261314,-1.7233100853972136,-7.626437712004781,-0.3253528861061147,-0.0015724495751783252,-0.0016037225723266602,5.919294186902046,0.0006004571914672852
1745973245688103200,9.697103271484375,-0.2222329858224871,-0.009204675443470478,-0.0728380914278879,-0.001716361497528851,-0.05941338675561095,0.9409092518432954,-0.201030104843215,left,0.00047850608825683594,-0.6480087008261314,-1.7233100853972136,-7.626437712004781,-0.3253528861061147,-0.0009639111813157797,-0.0017571449279785156,5.919294186902046,0.00009179115295410156
1745973245728103200,9.737103271484376,-0.22289222976112513,-0.006051703356206417,-0.07302235360597033,0.002078878227621317,-0.05965911412922642,0.94085617696373,-0.2017866548182086,left,0.0018181800842285156,-0.648051625620447,-1.7282811518080532,-7.625051810604333,-0.32542013412682314,-0.00029907870339229703,-0.0015030652284622192,5.919629702466726,0.0021160244941711426
1745973245768103200,9.777103271484375,-0.22289222976112513,-0.0004566670395433903,-0.07302235360597033,0.0015806612791493535,-0.05965911412922642,0.94085617696373,-0.2017866548182086,left,0.00029712915420532227,-0.648051625620447,-1.7282811518080532,-7.625051810604333,-0.32542013412682314,0.007064937613904476,-0.0024597346782684326,5.919629702466726,0.0010657310485839844
1745973245808103400,9.817103515625,-0.22289222976112513,0.0027931546792387962,-0.07302235360597033,0.014573339372873306,-0.05965911412922642,0.94085617696373,-0.2017866548182086,left,-0.0007371306419372559,-0.648051625620447,-1.7282811518080532,-7.625051810604333,-0.32542013412682314,0.004365282598882914,-0.0025687813758850098,5.919629702466726,0.0034780502319335938
1745973245848103200,9.857103271484375,-0.22289222976112513,0.0014693968696519732,-0.07302235360597033,0.0062267594039440155,-0.05965911412922642,0.94085617696373,-0.2017866548182086,left,0.002218186855316162,-0.648051625620447,-1.7282811518080532,-7.625051810604333,-0.32542013412682314,0.00712940189987421,-0.0015052706003189087,5.919629702466726,0.0016418695449829102
1745973245888103200,9.897103271484376,-0.22289222976112513,0.0030582596082240343,-0.07302235360597033,-0.00007193908095359802,-0.05965911412922642,0.94085617696373,-0.2017866548182086,left,0.0022484660148620605,-0.648051625620447,-1.7282811518080532,-7.625051810604333,-0.32542013412682314,0.008428173139691353,-0.002583801746368408,5.919629702466726,-0.00003123283386230469
1745973245928103200,9.937103271484375,-0.22275787419789198,0.00427292101085186,-0.07300838361419353,-0.0025623010005801916,-0.059670348152646525,0.9409421283648576,-0.20168941468054663,left,0.0005176663398742676,-0.64753774403453,-1.7279285389780996,-7.628250314384698,-0.3251726455815706,0.0028266487643122673,-0.003389686346054077,5.915611114475131,-0.0018990635871887207
1745973245968103200,9.977103271484374,-0.22275787419789198,0.00329119386151433,-0.07300838361419353,0.0019805675838142633,-0.059670348152646525,0.9409421283648576,-0.20168941468054663,left,0.0011730194091796875,-0.64753774403453,-1.7279285389780996,-7.628250314384698,-0.3251726455815706,-0.008329501375555992,-0.0028000324964523315,5.915611114475131,-0.000836491584777832
1745973246008103200,10.017103271484375,-0.22260392005712176,0.0048882486298680305,-0.07291104786097408,0.0063120340928435326,-0.0596354081524529,0.9408709991868247,-0.20163670890993832,left,-0.000005245208740234375,-0.6480527465091104,-1.7260813036762177,-7.62554339351356,-0.32540658767982084,-0.013464866206049919,-0.0026071667671203613,5.919638470295071,0.00036841630935668945
1745973246048103200,10.057103271484374,-0.22260392005712176,0.003474095370620489,-0.07291104786097408,0.0024690134450793266,-0.0596354081524529,0.9408709991868247,-0.20163670890993832,left,0.0005540251731872559,-0.6480527465091104,-1.7260813036762177,-7.62554339351356,-0.32540658767982084,-0.009145459160208702,-0.0018409937620162964,5.919638470295071,0.00041550397872924805
1745973246088103200,10.097103271484375,-0.22244772360875018,0.001557131763547659,-0.07280376186228936,0.0028551232535392046,-0.05960174008751662,0.9407846282703433,-0.20159995847179546,left,0.0007286667823791504,-0.648664940344192,-1.7240902759894727,-7.622277085193991,-0.3256863955477573,-0.004993705544620752,-0.0021830201148986816,5.924423366484046,0.0013675093650817871
1745973246128103200,10.137103271484374,-0.22244772360875018,0.0023090157192200422,-0.07280376186228936,0.0024957640562206507,-0.05960174008751662,0.9407846282703433,-0.20159995847179546,left,0.0003725290298461914,-0.648664940344192,-1.7240902759894727,-7.622277085193991,-0.3256863955477573,-0.0013075433671474457,-0.0019005686044692993,5.924423366484046,0.0012333393096923828
1745973246168103200,10.177103271484375,-0.22244772360875018,0.0025240725371986628,-0.07280376186228936,0.003953509498387575,-0.05960174008751662,0.9407846282703433,-0.20159995847179546,left,0.0020586252212524414,-0.648664940344192,-1.7240902759894727,-7.622277085193991,-0.3256863955477573,0.000026939669623970985,-0.0013123899698257446,5.924423366484046,-0.00004029273986816406
1745973246208103200,10.217103271484374,-0.22244772360875018,-0.0018245757091790438,-0.07280376186228936,0.002434397116303444,-0.05960174008751662,0.9407846282703433,-0.20159995847179546,left,0.001394510269165039,-0.648664940344192,-1.7240902759894727,-7.622277085193991,-0.3256863955477573,-0.0014128551119938493,-0.0014103055000305176,5.924423366484046,0.0009109973907470703
1745973246248103200,10.257103271484375,-0.22237486471534765,-0.0016890413826331496,-0.07271227107940359,0.0027467873878777027,-0.0596491482231457,0.9407056632966453,-0.20174904254845116,left,0.0015682578086853027,-0.6491715209298938,-1.722872863023728,-7.619474302732944,-0.3259261283039121,-0.005319214425981045,-0.001228436827659607,5.928381748721003,0.0024653077125549316
1745973246288103200,10.297103271484374,-0.22237486471534765,-0.0019969516433775425,-0.07271227107940359,0.001589132589288056,-0.0596491482231457,0.9407056632966453,-0.20174904254845116,left,0.0025957822799682617,-0.6491715209298938,-1.722872863023728,-7.619474302732944,-0.3259261283039121,-0.005518777295947075,-0.0014416873455047607,5.928381748721003,0.002940058708190918
1745973246328103400,10.337103515625,-0.22237486471534765,-0.0015249049756675959,-0.07271227107940359,-0.002858685329556465,-0.0596491482231457,0.9407056632966453,-0.20174904254845116,left,0.0024987459182739258,-0.6491715209298938,-1.722872863023728,-7.619474302732944,-0.3259261283039121,-0.0028092178981751204,-0.0016045719385147095,5.928381748721003,0.003198862075805664
1745973246368103200,10.377103271484375,-0.22263540466308435,-0.00022701057605445385,-0.07275360588237541,-0.001736258971504867,-0.05968373446102573,0.9405950717156628,-0.20200206960546271,left,0.0006610751152038574,-0.6497854223124548,-1.7240540356323122,-7.615474419441819,-0.32622964027124957,-0.0026409414131194353,-0.0020156055688858032,5.9331759972602125,0.002360999584197998
1745973246408103200,10.417103271484375,-0.22263540466308435,-0.0008001720416359603,-0.07275360588237541,-0.0015558849554508924,-0.05968373446102573,0.9405950717156628,-0.20200206960546271,left,0.0007972121238708496,-0.6497854223124548,-1.7240540356323122,-7.615474419441819,-0.32622964027124957,-0.0014256959548220038,-0.0024046003818511963,5.9331759972602125,0.000841975212097168
1745973246448103200,10.457103271484375,-0.22299257661088343,-0.003985121380537748,-0.07284365228689789,-0.0012960284948349,-0.05975124542101046,0.9405136194675112,-0.20232563918915258,left,0.0014238357543945312,-0.6501709614181189,-1.7262680584199726,-7.612626628795265,-0.3264320057078704,-0.0013218293897807598,-0.0016825497150421143,5.9361862849920985,-0.0005192756652832031
1745973246488103200,10.497103271484375,-0.22299257661088343,-0.0017651065718382597,-0.07284365228689789,0.0009688185527920723,-0.05975124542101046,0.9405136194675112,-0.20232563918915258,left,0.001837313175201416,-0.6501709614181189,-1.7262680584199726,-7.612626628795265,-0.3264320057078704,-0.003300962969660759,-0.0015780776739120483,5.9361862849920985,0.00043708086013793945
1745973246528103200,10.537103271484375,-0.22299257661088343,0.0027007118333131075,-0.07284365228689789,-0.00031170062720775604,-0.05975124542101046,0.9405136194675112,-0.20232563918915258,left,0.0023013949394226074,-0.6501709614181189,-1.7262680584199726,-7.612626628795265,-0.3264320057078704,-0.0014696865109726787,-0.0024293512105941772,5.9361862849920985,0.001645207405090332
1745973246568103400,10.577103515625,-0.22299257661088343,0.010720310732722282,-0.07284365228689789,0.007915794849395752,-0.05975124542101046,0.9405136194675112,-0.20232563918915258,left,-0.001294255256652832,-0.6501709614181189,-1.7262680584199726,-7.612626628795265,-0.3264320057078704,0.003506716340780258,-0.00343342125415802,5.9361862849920985,0.003966391086578369
1745973246608103200,10.617103271484375,-0.22299257661088343,0.010856828652322292,-0.07284365228689789,0.0053373659029603004,-0.05975124542101046,0.9405136194675112,-0.20232563918915258,left,0.002009868621826172,-0.6501709614181189,-1.7262680584199726,-7.612626628795265,-0.3264320057078704,0.010687021538615227,-0.002233952283859253,5.9361862849920985,0.0023685693740844727
1745973246648103200,10.657103271484376,-0.22299257661088343,0.005828671157360077,-0.07284365228689789,0.002457132562994957,-0.05975124542101046,0.9405136194675112,-0.20232563918915258,left,0.002067089080810547,-0.6501709614181189,-1.7262680584199726,-7.612626628795265,-0.3264320057078704,0.012508722022175789,-0.0018512904644012451,5.9361862849920985,-0.00008779764175415039
1745973246688103200,10.697103271484375,-0.22255050868113757,0.005263799801468849,-0.07278280694379273,-0.0038728523068130016,-0.059474189032422006,0.9405975105380663,-0.2015407437711402,left,0.003001987934112549,-0.649879553442905,-1.723284220303595,-7.615075775513053,-0.32625427228678433,0.00623222766444087,-0.0016967952251434326,5.933911325797438,0.00021094083786010742
1745973246728103200,10.737103271484376,-0.22239300075056948,0.010287288576364517,-0.07280804185149031,-0.002522376598790288,-0.05922439690280435,0.9406273086492396,-0.20094881896727915,left,0.0016082525253295898,-0.6498370516261257,-1.7221404570959506,-7.615593077385425,-0.3262082103269897,0.0026593573857098818,-0.0021633505821228027,5.933579317364097,0.0009080767631530762
1745973246768103200,10.777103271484375,-0.2221499173877639,0.013324573636054993,-0.07280316005649579,0.00045543513260781765,-0.05893089579307791,0.9406462131080229,-0.2002504572788478,left,0.00038558244705200195,-0.6499059316104406,-1.7201989676393568,-7.615612366607785,-0.32620778091867847,0.0005116094835102558,-0.0015960633754730225,5.9341170775026075,0.0002624392509460449
1745973246808103400,10.817103515625,-0.2219068669612175,0.016361858695745468,-0.07279830887147613,0.0034332466311752796,-0.05863735174839093,0.9406650762230923,-0.19955202475969194,left,-0.0008372068405151367,-0.6499749033113537,-1.71825791657418,-7.615631071308255,-0.32620740478125687,-0.0016361386515200138,-0.0010287761688232422,5.93465542216301,-0.0003832578659057617
1745973246848103200,10.857103271484375,-0.2219068669612175,-0.0037260204553604126,-0.07279830887147613,0.0005030890461057425,-0.05863735174839093,0.9406650762230923,-0.19955202475969194,left,-0.0040000081062316895,-0.6499749033113537,-1.71825791657418,-7.615631071308255,-0.32620740478125687,0.002882499247789383,-0.0007748603820800781,5.93465542216301,-0.004038989543914795
1745973246888103200,10.897103271484376,-0.2219068669612175,-0.004072722978889942,-0.07279830887147613,0.011540792882442474,-0.05863735174839093,0.9406650762230923,-0.19955202475969194,left,0.0008631348609924316,-0.6499749033113537,-1.71825791657418,-7.615631071308255,-0.32620740478125687,0.004554348066449165,-0.0028287172317504883,5.93465542216301,0.0009794235229492188
1745973246928103200,10.937103271484375,-0.22147853295346445,0.0028880340978503227,-0.07262531294963845,0.003612007014453411,-0.05873679530913122,0.9407477602942913,-0.1995513966199151,left,0.0010527372360229492,-0.649534906749194,-1.7155691158816218,-7.618912577196955,-0.32598942525424957,0.011082464829087257,-0.0016083866357803345,5.931220187017321,0.0019826889038085938
1745973246968103200,10.977103271484374,-0.22131910131363425,0.009261371567845345,-0.07265572290367443,-0.003183621447533369,-0.05856648982681872,0.9408325023219224,-0.1990727134553398,left,0.0027144551277160645,-0.6491092341356549,-1.7149084600158035,-7.621648724162578,-0.32576862579680466,0.014000113122165203,-0.00042748451232910156,5.927894841986895,0.00014966726303100586
1745973247008103200,11.017103271484375,-0.22116010544954579,0.00008351635187864304,-0.07264142354586638,-0.00002870894968509674,-0.05843316920587313,0.9408577828714434,-0.19872543808895268,left,0.00002276897430419922,-0.649048026951859,-1.7137762411154807,-7.622275331628322,-0.3257227764118494,0.00012624915689229965,-0.0004369467496871948,5.92741670308113,-0.0012969970703125
1745973247048103200,11.057103271484374,-0.22116010544954579,-0.0018502481980249286,-0.07264142354586638,0.0010316090192645788,-0.05843316920587313,0.9408577828714434,-0.19872543808895268,left,0.0006499886512756348,-0.649048026951859,-1.7137762411154807,-7.622275331628322,-0.3257227764118494,-0.011719734407961369,-0.001876726746559143,5.92741670308113,0.0015841126441955566
1745973247088103200,11.097103271484375,-0.221590577886643,0.0006967076333239675,-0.07271822519453981,-0.0077720945701003075,-0.05848428917303047,0.9406851651405451,-0.1991206720793433,left,0.00456845760345459,-0.6500009045852259,-1.7158150534667074,-7.616023285496235,-0.32619461644778813,-0.0069853635504841805,-0.0014341920614242554,5.93485883578062,0.0012030601501464844
1745973247128103200,11.137103271484374,-0.221590577886643,0.004030830692499876,-0.07271822519453981,-0.008950155228376389,-0.05848428917303047,0.9406851651405451,-0.1991206720793433,left,0.0020363330841064453,-0.6500009045852259,-1.7158150534667074,-7.616023285496235,-0.32619461644778813,-0.0037330295890569687,-0.0017812848091125488,5.93485883578062,0.0029061436653137207
1745973247168103200,11.177103271484375,-0.22215843303502567,0.0040805344469845295,-0.07296741049077247,-0.006386857479810715,-0.05830832352892969,0.9405862210349436,-0.19902039736977217,left,0.00009238719940185547,-0.6505328051672894,-1.7194439114883542,-7.611967872625589,-0.3264558199975922,-0.0028274422511458397,-0.003086492419242859,5.939010110241174,0.0032153725624084473
1745973247208103200,11.217103271484374,-0.22215843303502567,-0.0012722816318273544,-0.07296741049077247,-0.0014635343104600906,-0.05830832352892969,0.9405862210349436,-0.19902039736977217,left,0.0003104209899902344,-0.6505328051672894,-1.7194439114883542,-7.611967872625589,-0.3264558199975922,-0.00027205003425478935,-0.003165915608406067,5.939010110241174,0.0004423856735229492
1745973247248103200,11.257103271484375,-0.22215843303502567,-0.003421546658501029,-0.07296741049077247,0.0024313009344041348,-0.05830832352892969,0.9405862210349436,-0.19902039736977217,left,0.0033194422721862793,-0.6505328051672894,-1.7194439114883542,-7.611967872625589,-0.3264558199975922,0.005487642250955105,-0.0024507343769073486,5.939010110241174,-0.0013927221298217773
1745973247288103200,11.297103271484374,-0.22275689868331403,-0.0007933708839118481,-0.07321584525268914,0.000069792615249753,-0.05836541844234803,0.9405916348105117,-0.19931547161142268,left,0.0019192099571228027,-0.6502979514076056,-1.7243071336105464,-7.612297542971372,-0.32637443143506745,0.004328212235122919,-0.0010391026735305786,5.937177634117007,0.001012563705444336
1745973247328103400,11.337103515625,-0.22289834117523905,0.013499675318598747,-0.07334594269351835,-0.00879391748458147,-0.058177507375506546,0.9406079554870644,-0.19895448611659966,left,0.0029184818267822266,-0.6502254879440845,-1.7254788077384233,-7.612472899538278,-0.3263315296830654,0.005059193819761276,-0.003432035446166992,5.93661181692779,0.00044345855712890625
1745973247368103200,11.377103271484375,-0.22215860869792078,0.0148021150380373,-0.0730995825308402,0.02404468134045601,-0.057979754966417114,0.9406388787656745,-0.19829208283741953,left,-0.007708847522735596,-0.6503270867944239,-1.7197143989928065,-7.61315912823677,-0.3263331802892113,-0.004437234252691269,-0.0009947419166564941,5.937405013132095,0.0024588704109191895
1745973247408103200,11.417103271484375,-0.22215860869792078,0.01100094523280859,-0.0730995825308402,-0.001425156369805336,-0.057979754966417114,0.9406388787656745,-0.19829208283741953,left,0.005284011363983154,-0.6503270867944239,-1.7197143989928065,-7.61315912823677,-0.3263331802892113,-0.0025958940386772156,-0.0032336264848709106,5.937405013132095,0.0037764310836791992
1745973247448103200,11.457103271484375,-0.22123716943614735,0.016105562448501587,-0.07283500958922305,-0.00041190325282514095,-0.05757929952719001,0.940666252221042,-0.19715766717671737,left,0.0010127425193786621,-0.6505816737508705,-1.7123668127089737,-7.613264926698803,-0.326384060550126,0.005236987955868244,-0.002960205078125,5.939391803035139,0.0010576844215393066
1745973247488103200,11.497103271484375,-0.2206060807531948,0.011245820671319962,-0.07271269226410484,0.0013038867618888617,-0.05720252054922354,0.9407330566696541,-0.19612435520347396,left,0.0002346634864807129,-0.65048893226553,-1.7076823081545531,-7.614881714245676,-0.32628504900183986,0.008885161951184273,-0.003488406538963318,5.938668164935708,-0.0009572505950927734
1745973247528103200,11.537103271484375,-0.2202980132869894,0.0016679437831044197,-0.07261948310762728,0.009003866463899612,-0.0571395489821066,0.9407736177918106,-0.19586315075630917,left,0.0005165338516235352,-0.6503459125764971,-1.7055219152502714,-7.61623663598597,-0.32619996051029654,0.003028461243957281,-0.0013042241334915161,5.937551728126406,-0.00033473968505859375
1745973247568103400,11.577103515625,-0.2202980132869894,0.0014875764027237892,-0.07261948310762728,0.00277810450643301,-0.0571395489821066,0.9407736177918106,-0.19586315075630917,left,0.002375781536102295,-0.6503459125764971,-1.7055219152502714,-7.61623663598597,-0.32619996051029654,-0.007399513851851225,-0.0020943135023117065,5.937551728126406,0.000773310661315918
1745973247608103200,11.617103271484375,-0.22014264272832254,0.002069274429231882,-0.07250029469887012,-0.008713919669389725,-0.05717916543292003,0.9407039474268152,-0.19596130387640642,left,0.004536569118499756,-0.6508195954075422,-1.7037242181785404,-7.613755340564251,-0.326420274622158,-0.007566885091364384,-0.0022955238819122314,5.9412482445567845,-0.0013463497161865234
1745973247648103200,11.657103271484376,-0.22028013699886506,-0.002131361048668623,-0.07252335245227826,0.007700961083173752,-0.057214394907703824,0.9406564487752364,-0.1961194952096855,left,-0.001449286937713623,-0.6510679647282691,-1.7044485869303345,-7.6120812698721885,-0.326545897880218,-0.0032534548081457615,-0.0012226700782775879,5.943185934621095,0.0017375349998474121
1745973247688103200,11.697103271484375,-0.22028211429765188,0.0029525859281420708,-0.07248934197379883,-0.0015341183170676231,-0.05723121656575541,0.940602974523606,-0.19620368548709896,left,0.0009598135948181152,-0.6514011322861865,-1.7040309460401535,-7.610145333373546,-0.3267045465230057,-0.007269170600920916,-0.001587003469467163,5.9457841344207525,0.0019791126251220703
1745973247728103200,11.737103271484376,-0.22028211429765188,-0.0011926437728106976,-0.07248934197379883,0.0011333741713315248,-0.05723121656575541,0.940602974523606,-0.19620368548709896,left,0.00044780969619750977,-0.6514011322861865,-1.7040309460401535,-7.610145333373546,-0.3267045465230057,0.00033632852137088776,-0.002117156982421875,5.9457841344207525,0.0001417398452758789
1745973247768103200,11.777103271484375,-0.22028211429765188,-0.0020706006325781345,-0.07248934197379883,-0.0037690612953156233,-0.05723121656575541,0.940602974523606,-0.19620368548709896,left,0.0010429620742797852,-0.6514011322861865,-1.7040309460401535,-7.610145333373546,-0.3267045465230057,0.0030857694800943136,-0.0017399489879608154,5.9457841344207525,0.0018972158432006836
1745973247808103400,11.817103515625,-0.22028211429765188,-0.0010935341706499457,-0.07248934197379883,0.00044538150541484356,-0.05723121656575541,0.940602974523606,-0.19620368548709896,left,0.00036638975143432617,-0.6514011322861865,-1.7040309460401535,-7.610145333373546,-0.3267045465230057,0.002501153387129307,-0.001961052417755127,5.9457841344207525,0.001212000846862793
1745973247848103200,11.857103271484375,-0.22028211429765188,0.0005472555058076978,-0.07248934197379883,-0.0011479913955554366,-0.05723121656575541,0.940602974523606,-0.19620368548709896,left,0.0033878684043884277,-0.6514011322861865,-1.7040309460401535,-7.610145333373546,-0.3267045465230057,0.0036071590147912502,-0.0035710930824279785,5.9457841344207525,0.0009301900863647461
1745973247888103200,11.897103271484376,-0.22028211429765188,0.00002485007280483842,-0.07248934197379883,-0.0000521285692229867,-0.05723121656575541,0.940602974523606,-0.19620368548709896,left,0.000612795352935791,-0.6514011322861865,-1.7040309460401535,-7.610145333373546,-0.3267045465230057,0.00016379565931856632,-0.0014078021049499512,5.9457841344207525,0.0007967948913574219
1745973247928103200,11.937103271484375,-0.22028211429765188,0.007096425164490938,-0.07248934197379883,0.002903405576944351,-0.05723121656575541,0.940602974523606,-0.19620368548709896,left,0.0007204413414001465,-0.6514011322861865,-1.7040309460401535,-7.610145333373546,-0.3267045465230057,0.0037457372527569532,-0.004223853349685669,5.9457841344207525,0.0011119246482849121
1745973247968103200,11.977103271484374,-0.21967135853581413,0.04620229825377464,-0.07253450254484607,0.002327163005247712,-0.05655787987117753,0.9407880146559253,-0.19445441553506912,left,0.00024020671844482422,-0.6506617133890422,-1.7003401286981998,-7.615472665876149,-0.3262785230626417,0.03081371821463108,-0.0027069449424743652,5.940016072413325,0.0015810132026672363
1745973248008103200,12.017103271484375,-0.21818363352976733,0.03525190055370331,-0.07226842507406507,0.0003044898621737957,-0.055739907305453855,0.9410264130086883,-0.19209055532500027,left,0.0010115504264831543,-0.6498898685575512,-1.6900005209915339,-7.622468223851919,-0.3257906421978705,0.02571934647858143,-0.002071782946586609,5.933991989818215,0.0007236599922180176
1745973248048103200,12.057103271484374,-0.21736871228285803,0.02098686993122101,-0.07216872630515189,-0.007505160290747881,-0.055129797906561785,0.9411487139976673,-0.19046772723605243,left,0.0018415451049804688,-0.6495766197374885,-1.684188912103325,-7.6256573752820485,-0.3255631075179283,0.011380752548575401,-0.0018937736749649048,5.931545765709877,-0.0014399290084838867
1745973248088103200,12.097103271484375,-0.21731589160739567,0.0018872842192649841,-0.07226865854770521,-0.0057505033910274506,-0.054860938656583716,0.9412202255362528,-0.1898303021467397,left,0.0018827319145202637,-0.6492366573868917,-1.6842209146767855,-7.627715476855635,-0.32537974698067657,0.012511387467384338,-0.0022983551025390625,5.928890282765031,-0.0027919411659240723
1745973248128103200,12.137103271484374,-0.21731589160739567,-0.008110793307423592,-0.07226865854770521,-0.0008885725401341915,-0.054860938656583716,0.9412202255362528,-0.1898303021467397,left,0.0017355680465698242,-0.6492366573868917,-1.6842209146767855,-7.627715476855635,-0.32537974698067657,-0.009937535971403122,-0.0031177550554275513,5.928890282765031,-0.0014405250549316406
1745973248168103200,12.177103271484375,-0.2184690245048254,-0.03702491521835327,-0.0724997063625965,0.010698145255446434,-0.055467838671705606,0.9410641351934848,-0.19157979970606728,left,-0.0003479123115539551,-0.6496685684681114,-1.6924603352338075,-7.62326726527512,-0.32567670275501376,-0.020273247733712196,-0.004001811146736145,5.932263558590412,-0.0029259324073791504
1745973248208103200,12.217103271484374,-0.21831220162621204,-0.028631852939724922,-0.0721053702940711,0.03712476044893265,-0.05631970568099348,0.9409575880343165,-0.19339302435252517,left,0.00039315223693847656,-0.650070865925036,-1.6907478322274982,-7.621202149438858,-0.3259258088233616,-0.0159195214509964,-0.0035393834114074707,5.935404779225587,0.007792830467224121
1745973248248103200,12.257103271484375,-0.21792979411415903,-0.008008703589439392,-0.07180908484046401,0.02000058814883232,-0.05682302827706971,0.9410111478350904,-0.19427045542092206,left,0.0002346634864807129,-0.6496480287817872,-1.6883756962686776,-7.624297777366638,-0.32574905748905747,0.023730050772428513,-0.0006279796361923218,5.932103399592638,0.008133888244628906
1745973248288103200,12.297103271484374,-0.2175380404651835,0.001444016583263874,-0.07167053906792269,0.014268221333622932,-0.057118824008882095,0.9412410372283582,-0.19455608372718017,left,0.0029291510581970215,-0.6481824413818635,-1.6872634972430764,-7.633440284243226,-0.32506336185621,0.05248541384935379,-0.0008107423782348633,5.920652031251787,0.005533933639526367
1745973248328103400,12.337103515625,-0.21698868129648916,-0.003477885853499174,-0.07155076577099098,0.004776256158947945,-0.05716456190145027,0.9414888843748879,-0.19425998093325414,left,0.004165530204772949,-0.6467399832290084,-1.6849065588533878,-7.642697357410192,-0.3243629820931776,0.03255603462457657,0.0006278753280639648,5.909369589737057,0.0014781355857849121
1745973248368103200,12.377103271484375,-0.21654859026347256,0.011526379734277725,-0.07149245344024997,0.00004335865378379822,-0.05704058861791247,0.9416654068940447,-0.19371072123103017,left,0.0028153061866760254,-0.6457858178716382,-1.6827536186031997,-7.648941220235824,-0.3238847569905172,0.027327710762619972,-0.0011701881885528564,5.9018993999868625,-0.0022315382957458496
1745973248408103200,12.417103271484375,-0.21596067953109,0.010723122395575047,-0.07141021405225262,-0.006630558520555496,-0.05673662432437806,0.9418155668052981,-0.19276851415143198,left,0.0027276277542114258,-0.6451124413037569,-1.6791076633162796,-7.653809703055024,-0.3235195175077099,0.013469343073666096,-0.0016932636499404907,5.896624089932441,-0.0036922693252563477
1745973248448103200,12.457103271484375,-0.21632748249822772,-0.005026892758905888,-0.0716729516179524,-0.030383799225091934,-0.056508058038322005,0.9418710998586133,-0.19235651162281556,left,0.004624545574188232,-0.6447374417176872,-1.682389461465925,-7.655352840843796,-0.32333978940585656,0.01329281646758318,-0.0034478604793548584,5.893685113871097,-0.007971525192260742
1745973248488103200,12.497103271484375,-0.21760702451518615,-0.02127547189593315,-0.07218953833727326,-0.021480262279510498,-0.05663527576547741,0.941857484831383,-0.1930184839229218,left,-0.0008443593978881836,-0.6444007801929449,-1.6926117264032363,-7.6551307225257155,-0.3232423444250163,-0.005895319394767284,-0.0070517659187316895,5.8910459975391625,0.0017313361167907715
1745973248528103200,12.537103271484375,-0.21923427853952232,-0.03374359756708145,-0.07265117114613193,-0.004119668155908585,-0.05716195345103608,0.9416900942234995,-0.19475095240742685,left,-0.004242241382598877,-0.6447906897930679,-1.704566660352051,-7.65012370801866,-0.3235336843152673,-0.024900078773498535,-0.0057565271854400635,5.894102462500333,0.0025599002838134766
1745973248568103400,12.577103515625,-0.2200642559410423,-0.02232266589999199,-0.07275342429768394,0.014208322390913963,-0.05772901505380007,0.9415316366379357,-0.1963189247965566,left,-0.00010347366333007812,-0.6453393137244562,-1.7102093424141407,-7.645549239709973,-0.3238709634062767,-0.01678856462240219,-0.0032581686973571777,5.898401620998978,0.00045603513717651367
1745973248608103200,12.617103271484375,-0.22030630576975124,-0.02016563154757023,-0.07265488422405217,0.01885700225830078,-0.058321387238458325,0.94149246170039,-0.19765266491588748,left,0.0004795193672180176,-0.6452843044983466,-1.7121308119960128,-7.645451624554395,-0.32390077135927303,0.002083573490381241,-0.001384451985359192,5.8979708283662795,-0.00025969743728637695
1745973248648103200,12.657103271484376,-0.2202280599828006,-0.020366322249174118,-0.07242300152064196,0.02497289329767227,-0.05888062511478074,0.9414487695322121,-0.1988252379212613,left,0.0003237724304199219,-0.6453644574982293,-1.7114292395979165,-7.64512429229617,-0.3239784677761436,-0.013868287205696106,0.0015907436609268188,5.898598604875803,-0.0005845427513122559
1745973248688103200,12.697103271484375,-0.22038964220219356,-0.01623842865228653,-0.07222814482465938,0.005597980692982674,-0.05943548684876106,0.9412804673974687,-0.20017581173408588,left,0.0044307708740234375,-0.6461730982712193,-1.711621401169151,-7.640191512069106,-0.32440983226496384,-0.028147432953119278,-0.00035236775875091553,5.904931899550557,0.000779271125793457
1745973248728103200,12.737103271484376,-0.22122737235400272,-0.0017555011436343193,-0.07242495299026959,-0.00940396822988987,-0.05968057663257132,0.9411087821921292,-0.20109360144796187,left,0.0036932826042175293,-0.6469232434103249,-1.7170486869148909,-7.634430464324355,-0.32481840916515303,-0.016943257302045822,-0.0015236884355545044,5.910803421932458,0.005922675132751465
1745973248768103200,12.777103271484375,-0.22181861934572902,-0.0001599116949364543,-0.0726707295261682,-0.015216661617159843,-0.05955169736531852,0.9410120684819556,-0.20109549338355812,left,0.0007797479629516602,-0.6474190180630117,-1.7209173450417816,-7.630554499673843,-0.32506758705558175,-0.006178637966513634,-0.0008583217859268188,5.914682309192418,0.00138777494430542
1745973248808103400,12.817103515625,-0.22181861934572902,-0.008785644546151161,-0.0726707295261682,-0.0052853235974907875,-0.05955169736531852,0.9410120684819556,-0.20109549338355812,left,-0.0004927515983581543,-0.6474190180630117,-1.7209173450417816,-7.630554499673843,-0.32506758705558175,-0.00036075012758374214,-0.001850321888923645,5.914682309192418,-0.0012916922569274902
1745973248848103200,12.857103271484375,-0.22282752596116748,-0.006307134870439768,-0.07300416703083047,-0.0043735262006521225,-0.05970763378892554,0.9409008297363358,-0.20182581657772128,left,0.0014075636863708496,-0.6477653764498754,-1.7281620554730295,-7.626815897667408,-0.32528601388996803,-0.004220166243612766,-0.0027570724487304688,5.917391568151116,0.0014272332191467285
1745973248888103200,12.897103271484376,-0.22282752596116748,0.000022121239453554153,-0.07300416703083047,-0.013483544811606407,-0.05970763378892554,0.9409008297363358,-0.20182581657772128,left,0.005019783973693848,-0.6477653764498754,-1.7281620554730295,-7.626815897667408,-0.32528601388996803,-0.001008081715553999,-0.0030251741409301758,5.917391568151116,0.001073300838470459
1745973248928103200,12.937103271484375,-0.22411582121726037,-0.002610723488032818,-0.07357656205409117,-0.011959702707827091,-0.05956705763799467,0.9408320744405368,-0.2019885423933139,left,0.0006228089332580566,-0.6478757939314564,-1.7378411534443496,-7.623946479710936,-0.32538190972346187,0.00437921704724431,-0.003862053155899048,5.918254906982183,-0.002034008502960205
1745973248968103200,12.977103271484374,-0.22411582121726037,-0.002607031725347042,-0.07357656205409117,0.002319877967238426,-0.05956705763799467,0.9408320744405368,-0.2019885423933139,left,0.0015187859535217285,-0.6478757939314564,-1.7378411534443496,-7.623946479710936,-0.32538190972346187,-0.005705794785171747,-0.004948705434799194,5.918254906982183,-0.0006607770919799805
