time,seconds_elapsed,roll,rotationRateZ,quaternionY,rotationRateY,quaternionZ,quaternionW,yaw,devicelocation,accelerationZ,pitch,gravityX,gravityZ,quaternionX,rotationRateX,accelerationX,gravityY,accelerationY
1745973305941486600,0.318486572265625,0.6634124036158022,-0.04977388679981232,0.2960921796275786,-0.009157178923487663,1.0198101946002518e-17,0.9214545833522245,0.16887720229318287,left,-0.06843167543411255,-0.4819251762909666,5.35120496110022,-6.84658555791974,-0.25149689887556315,-0.01087985374033451,-0.7997217774391174,4.545244844551384,0.12726342678070068
1745973305981486600,0.358486572265625,0.07082450274483947,-0.023235388100147247,0.06359557277607077,-0.02771625854074955,-0.10271053670348437,0.9439930067614115,-0.1934924989633897,left,0.036091506481170654,-0.6345076417573292,0.5588986419998109,-7.8781188091784715,-0.30705587001822376,0.0030555184930562973,-0.31294485926628113,5.813197034183144,-0.004695892333984375
1745973306021486600,0.398486572265625,-0.2237053546417532,-0.002385759726166725,-0.04390566870940065,0.010322457179427147,-0.1464968279785184,0.9323908286241516,-0.3862036479203633,left,-0.0029163360595703125,-0.6408257530640382,-1.7439247111417353,-7.665152934846281,-0.32750303539889253,0.023044506087899208,-0.07663041353225708,5.862980179005861,-0.01649796962738037
1745973306061486600,0.438486572265625,-0.3165087847610826,-0.02920013852417469,-0.07807861065401768,0.008609479293227196,-0.1603523132305966,0.926158347050647,-0.4470764029117079,left,-0.01094818115234375,-0.6316531522596904,-2.4633877168461678,-7.521351197633146,-0.3322973433318945,0.022861886769533157,-0.007909536361694336,5.790628644022346,-0.01589721441268921
1745973306101486600,0.478486572265625,-0.3196100828596049,-0.03538094460964203,-0.07978478439650391,0.026731807738542557,-0.16201084705781876,0.9266036524823311,-0.45031098986307894,left,-0.008016884326934814,-0.6253785950161146,-2.4980685696050524,-7.548020593371987,-0.32983695723812534,0.019563334062695503,0.0007790327072143555,5.740854851549863,-0.008479058742523193
1745973306141486600,0.518486572265625,-0.32009375824539604,-0.0186022762209177,-0.0803506016798052,0.032018162310123444,-0.16348094051922937,0.927108594341521,-0.4524152846993086,left,-0.00014448165893554688,-0.6200458496040577,-2.511316465973854,-7.575763755822181,-0.32754742190192204,0.007887150160968304,0.005432546138763428,5.698374723216891,-0.00034946203231811523
1745973306181486600,0.558486572265625,-0.31819830066333477,-0.0006945990025997162,-0.07975735883882765,0.031839270144701004,-0.16423087717983875,0.9274986021248077,-0.45275268595219503,left,0.0009009838104248047,-0.6174059348244998,-2.501650227484107,-7.594771823152899,-0.32621030092247866,-0.007572396658360958,0.006749778985977173,5.677285173436999,0.0020121335983276367
1745973306221486600,0.598486572265625,-0.3170916019570986,-0.0006814115331508219,-0.07918488739049245,0.025401176884770393,-0.1642858577050666,0.9274728696182436,-0.45262522788364906,left,0.001981973648071289,-0.6180265788995071,-2.4921444402530786,-7.594186716741323,-0.3263954339738225,-0.012936403043568134,0.006969541311264038,5.682247179758549,0.0009970664978027344
1745973306261486600,0.638486572265625,-0.3161852568085869,-0.012949038296937943,-0.0786089341130961,-0.006303923204541206,-0.1643656362965709,0.9273604314575882,-0.4527267843902262,left,0.002255737781524658,-0.6191053864882322,-2.483352938771248,-7.590611780864,-0.3268136184410737,-0.010050900280475616,0.005886554718017578,5.690866539543867,-0.0002548098564147949
1745973306301486600,0.678486572265625,-0.31567982531390587,-0.026263590902090073,-0.07823559523475626,-0.005456802435219288,-0.1646064170866558,0.927277867790657,-0.45318296446286116,left,-0.00005829334259033203,-0.6196049528320089,-2.4786329245120284,-7.5891621665775775,-0.3270161932759678,-0.005808692425489426,0.003244251012802124,5.694855316919088,-0.00029224157333374023
1745973306341486600,0.718486572265625,-0.31618413921896,-0.03331474959850311,-0.07832085479208006,-0.009343269281089306,-0.16492616575599237,0.9271807625791297,-0.45405976739175236,left,-0.003457963466644287,-0.6196449723771769,-2.4823893544360995,-7.587695016634464,-0.32711015782042535,-0.00455721840262413,0.0022795796394348145,5.695175050392747,0.0031207799911499023
1745973306381486600,0.758486572265625,-0.31646058949578487,-0.03814990818500519,-0.07830629304270612,0.0023003341630101204,-0.16542351950414902,0.9271165826794712,-0.45516290746305377,left,-0.0026360750198364258,-0.6193536014819486,-2.485003044065833,-7.588584658950567,-0.3270442821736102,0.002779820002615452,0.002072751522064209,5.692848653271794,0.0023030638694763184
1745973306421486600,0.798486572265625,-0.3169409697718575,-0.0497293621301651,-0.07832869194996397,0.009435445070266724,-0.16670807468260995,0.9271020294495801,-0.4577168838140086,left,0.002536952495574951,-0.6176819344973435,-2.491610771767795,-7.596422512969374,-0.3264274099328501,0.03963163122534752,-0.0007528960704803467,5.679492328092455,-0.0010522007942199707
1745973306461486600,0.838486572265625,-0.3171653520547007,-0.04472492262721062,-0.07849766629626706,0.004588662646710873,-0.16721273273942508,0.9272211200870315,-0.45853246951220633,left,0.0009543895721435547,-0.6161610939171419,-2.496006084117293,-7.604061045023799,-0.3257896575826988,0.04991414025425911,-0.002536267042160034,5.667327258524298,0.000840604305267334
1745973306501486600,0.878486572265625,-0.31778495338891405,-0.029392363503575325,-0.0789140502535144,-0.012268648482859135,-0.1678029928908169,0.9273986821039918,-0.4595108714642366,left,0.0040760040283203125,-0.6139496330169352,-2.5046269052073358,-7.614399483686685,-0.32487878814504645,0.05194574594497681,-0.006370335817337036,5.649614491701126,0.0015627741813659668
1745973306541486600,0.918486572265625,-0.31904209404008,0.01975657232105732,-0.0797887974793724,-0.03479788452386856,-0.16777738211874632,0.9276268607478333,-0.45940699844904054,left,-0.0004152059555053711,-0.611842658202764,-2.517925362719595,-7.622531352216005,-0.3240259388769024,0.037129271775484085,-0.007598280906677246,5.632713041260838,0.0018126964569091797
1745973306581486600,0.958486572265625,-0.3190924600740123,0.03348312899470329,-0.08003567324016529,-0.014311326667666435,-0.16723523354148512,0.9277536825980165,-0.4582046122513394,left,-0.005435466766357422,-0.6116220337602697,-2.5186992697015405,-7.6235840761393305,-0.3238821806656133,0.023307301104068756,-0.001755744218826294,5.630941939935088,-0.004706680774688721
1745973306621486600,0.998486572265625,-0.31861062192409906,0.028852978721261024,-0.07999356316772815,0.007235784083604813,-0.1666037161380913,0.9278424365268833,-0.4567667284948788,left,-0.0036121606826782227,-0.6120178613143165,-2.514327045966685,-7.622679236254095,-0.3239637759760564,-0.000692710280418396,0.0006850063800811768,5.634119400927424,-0.007393836975097656
1745973306661486600,1.038486572265625,-0.31760895817842455,0.0010106228291988373,-0.0796662353024436,0.028301449492573738,-0.16639563946288533,0.9279560763287887,-0.4559573557440911,left,-0.013147115707397461,-0.6119691898769251,-2.5067761921957135,-7.625455130708217,-0.323826005667032,-0.0030356161296367645,0.0021465718746185303,5.633728355783224,-0.006709754467010498
1745973306701486600,1.078486572265625,-0.3171397769882342,-0.016044117510318756,-0.07954764071987987,0.00045375339686870575,-0.16665704393152586,0.928085542717704,-0.4561308220976296,left,0.0009171962738037109,-0.610987804663374,-2.5049209197178484,-7.631879026275873,-0.3233490633653434,0.021957745775580406,-0.00010952353477478027,5.625848416188359,-0.0014309883117675781
1745973306741486600,1.118486572265625,-0.3172939031474404,-0.004973807372152805,-0.07995173358819786,-0.004343208856880665,-0.16685796205792458,0.9284002112945416,-0.4560495378767498,left,0.0003528594970703125,-0.6085223164931658,-2.510417471307516,-7.644648491477966,-0.3222407826506095,0.0512235127389431,0.001696556806564331,5.606027278909087,-0.0006667375564575195
1745973306781486600,1.158486572265625,-0.31701433779091065,0.003787582740187645,-0.08007569695584865,0.0006755730137228966,-0.1667921376748669,0.9286203269704456,-0.45551334193943605,left,0.0010836124420166016,-0.6072288273008841,-2.510538467338681,-7.652233247518539,-0.321609302076799,0.04505554214119911,0.0005247294902801514,5.5956151904880995,-0.002043306827545166
1745973306821486600,1.198486572265625,-0.3166198898426531,0.002314601093530655,-0.08010653626721281,-0.0010854610009118915,-0.16664143079655636,0.9287973708795171,-0.4548589659871079,left,-0.0006219744682312012,-0.6063868214317097,-2.5089859771996736,-7.6576979426652185,-0.321168183089231,0.014495952054858208,5.960464477539062e-7,5.588831813958287,-0.00158005952835083
1745973306861486600,1.238486572265625,-0.3166198898426531,0.002877820050343871,-0.08010653626721281,0.006563436705619097,-0.16664143079655636,0.9287973708795171,-0.4548589659871079,left,-0.0031688809394836426,-0.6063868214317097,-2.5089859771996736,-7.6576979426652185,-0.321168183089231,-0.010613000020384789,-0.0034540295600891113,5.588831813958287,0.0009624361991882324
1745973306901486600,1.278486572265625,-0.3166198898426531,0.016459183767437935,-0.08010653626721281,-0.01424465887248516,-0.16664143079655636,0.9287973708795171,-0.4548589659871079,left,0.00269395112991333,-0.6063868214317097,-2.5089859771996736,-7.6576979426652185,-0.321168183089231,-0.008588079363107681,-0.0029674172401428223,5.588831813958287,0.0020877718925476074
1745973306941486600,1.318486572265625,-0.31603882307359676,0.01694374717772007,-0.07991488670061872,0.010045040398836136,-0.16625659368911427,0.928829703095865,-0.45394980586567596,left,-0.00026100873947143555,-0.6069124062185792,-2.5036226966008543,-7.656361725625396,-0.32132195227333343,-0.002846738323569298,-0.001291722059249878,5.593066090527176,-0.0013875961303710938
1745973306981486600,1.358486572265625,-0.31603882307359676,0.005505815148353577,-0.07991488670061872,-0.010213112458586693,-0.16625659368911427,0.928829703095865,-0.45394980586567596,left,0.0038673877716064453,-0.6069124062185792,-2.5036226966008543,-7.656361725625396,-0.32132195227333343,-0.0027425887528806925,-0.000863492488861084,5.593066090527176,-0.000803530216217041
1745973307021486600,1.398486572265625,-0.31603882307359676,0.0009198850020766258,-0.07991488670061872,-0.004316330887377262,-0.16625659368911427,0.928829703095865,-0.45394980586567596,left,0.00047510862350463867,-0.6069124062185792,-2.5036226966008543,-7.656361725625396,-0.32132195227333343,-0.001064067822881043,0.00009122490882873535,5.593066090527176,0.0006718039512634277
1745973307061486600,1.438486572265625,-0.31603882307359676,-0.007893271744251251,-0.07991488670061872,0.00898811686784029,-0.16625659368911427,0.928829703095865,-0.45394980586567596,left,-0.0017586946487426758,-0.6069124062185792,-2.5036226966008543,-7.656361725625396,-0.32132195227333343,0.0027317050844430923,0.0012342631816864014,5.593066090527176,-0.0014966726303100586
1745973307101486600,1.478486572265625,-0.31603882307359676,-0.017940985038876534,-0.07991488670061872,0.015399393625557423,-0.16625659368911427,0.928829703095865,-0.45394980586567596,left,-0.005082964897155762,-0.6069124062185792,-2.5036226966008543,-7.656361725625396,-0.32132195227333343,0.015444550663232803,0.0006728172302246094,5.593066090527176,-0.0033530592918395996
1745973307141486600,1.518486572265625,-0.3158727444974486,-0.017782967537641525,-0.07985623424339396,0.014147138223052025,-0.1666493717013378,0.9288981695671477,-0.4545377089611698,left,-0.0009161829948425293,-0.6060373050672501,-2.5038702416211365,-7.66142602327764,-0.32093449947755753,0.010149539448320866,0.00154954195022583,5.586015002971887,-0.0030146241188049316
1745973307181486600,1.558486572265625,-0.3159002407666656,-0.020785074681043625,-0.07984858364274183,0.0012952880933880806,-0.16702343060226407,0.9289261028343485,-0.4552003563861712,left,0.0024228692054748535,-0.6053723737230976,-2.505234515711665,-7.664886977386474,-0.32066139701911095,0.0074829780496656895,0.0007814764976501465,5.580654352721572,-0.003022432327270508
1745973307221486600,1.598486572265625,-0.3167494458379992,-0.014098236337304115,-0.0801836377818761,-0.017551466822624207,-0.16734140518164242,0.9288956284454218,-0.4560436513843204,left,0.0018997788429260254,-0.6047860656548741,-2.5127614040851594,-7.6658642979860305,-0.3205000480148515,-0.0010317959822714329,-0.0012757182121276855,5.575925570634007,0.0003151893615722656
1745973307261486600,1.638486572265625,-0.3179342659521412,0.018157275393605232,-0.08076934998994106,-0.034421585500240326,-0.16711327510126772,0.9288742856878264,-0.4559305713909492,left,0.0022864937782287598,-0.6046523507667513,-2.52207546813637,-7.66358992331326,-0.32053388174002445,0.006643260363489389,-0.005850642919540405,5.574846543225646,0.0039403438568115234
1745973307301486600,1.678486572265625,-0.3181762456299332,0.03609137982130051,-0.08114524267996401,-0.027179986238479614,-0.16644356230401017,0.9290177918750132,-0.45450870913132146,left,-0.0009492039680480957,-0.6043763983784247,-2.524410633085668,-7.664439818140864,-0.32037129093645145,0.032774053514003754,-0.007275134325027466,5.572620099347829,-0.0009078383445739746
1745973307341486600,1.718486572265625,-0.31742197095223185,0.02662729099392891,-0.08130257397831954,0.0014430303126573563,-0.16553587248060767,0.9293667958820289,-0.45208245285617993,left,-0.004692733287811279,-0.603449258956641,-2.520240653924644,-7.6712471600681535,-0.3197891794719374,0.028151120990514755,-0.005639880895614624,5.565135881072282,-0.005373835563659668
1745973307381486600,1.758486572265625,-0.3173790272535314,0.0041443463414907455,-0.08140502101502922,0.0021801539696753025,-0.16537220363451294,0.9294548933941932,-0.45162707894830395,left,-0.0032483339309692383,-0.6030631090747539,-2.520581722447276,-7.673396447056532,-0.31959171616848453,0.014674096368253231,-0.004613310098648071,5.562017456790804,-0.007849693298339844
1745973307421486600,1.798486572265625,-0.31717946099316474,-0.016858378425240517,-0.08129378457197167,0.03312072530388832,-0.16577632047135046,0.9294927615416705,-0.45227630200991936,left,-0.003944337368011475,-0.6023999566304759,-2.5202000296533105,-7.677402175566554,-0.319300380051759,-0.0018563000485301018,-0.0025202035903930664,5.556660313671827,-0.005059361457824707
1745973307461486600,1.838486572265625,-0.3162415054630476,-0.02019648626446724,-0.0805608355155591,0.057111263275146484,-0.16671834653422044,0.9293671603693385,-0.45401555078002404,left,0.0012767910957336426,-0.6025504121081486,-2.512737730948627,-7.678968109709024,-0.31936114410454647,-0.02827577292919159,-0.002655237913131714,5.557876119202375,-0.0013676285743713379
1745973307501486600,1.878486572265625,-0.3149016722622389,-0.0118071548640728,-0.07962735401814927,0.03998783230781555,-0.16754667406450102,0.9292229350192801,-0.4554753128101342,left,0.0034627318382263184,-0.6031530882995916,-2.501409112204611,-7.6791411281883715,-0.3195813365153684,-0.02932443656027317,-0.0024820566177368164,5.562744602021574,0.0005385875701904297
1745973307541486600,1.918486572265625,-0.31435454770751753,-0.004596312064677477,-0.07918987353667901,0.02353442646563053,-0.16788669064350678,0.9291146098115435,-0.45615169816295303,left,0.006406009197235107,-0.6037348850575232,-2.496206282864511,-7.6774296480953685,-0.31982648158330984,-0.022933419793844223,-0.0020097196102142334,5.567442404448986,0.0034804344177246094
1745973307581486600,1.958486572265625,-0.31411680708923906,-0.003448718460276723,-0.07901446627621117,0.017698874697089195,-0.16800673897815527,0.9290770643696322,-0.4563788163499481,left,0.0015282630920410156,-0.6039564370222577,-2.493999712730944,-7.6768498023808,-0.31991606638384085,-0.007508644834160805,0.001086592674255371,5.569230456909537,0.0021227598190307617
1745973307621486600,1.998486572265625,-0.31411680708923906,-0.0046808160841465,-0.07901446627621117,0.0050676316022872925,-0.16800673897815527,0.9290770643696322,-0.4563788163499481,left,0.001158595085144043,-0.6039564370222577,-2.493999712730944,-7.6768498023808,-0.31991606638384085,-0.0029250807128846645,0.0018915534019470215,5.569230456909537,0.0009362101554870605
1745973307661486600,2.038486572265625,-0.31411680708923906,-0.0054751206189394,-0.07901446627621117,-0.004066170193254948,-0.16800673897815527,0.9290770643696322,-0.4563788163499481,left,0.000511467456817627,-0.6039564370222577,-2.493999712730944,-7.6768498023808,-0.31991606638384085,-0.0034247352741658688,0.0013795793056488037,5.569230456909537,0.0002345442771911621
1745973307701486600,2.078486572265625,-0.31411680708923906,0.001321655698120594,-0.07901446627621117,-0.013774599879980087,-0.16800673897815527,0.9290770643696322,-0.4563788163499481,left,0.001702427864074707,-0.6039564370222577,-2.493999712730944,-7.6768498023808,-0.31991606638384085,-0.0037524253129959106,0.0018646717071533203,5.569230456909537,0.0009919404983520508
1745973307741486600,2.118486572265625,-0.31411680708923906,0.0024514389224350452,-0.07901446627621117,-0.019459158182144165,-0.16800673897815527,0.9290770643696322,-0.4563788163499481,left,0.0013688206672668457,-0.6039564370222577,-2.493999712730944,-7.6768498023808,-0.31991606638384085,0.0010254266671836376,0.0005269348621368408,5.569230456909537,0.0010651350021362305
1745973307781486600,2.158486572265625,-0.3156780133510422,-0.0012592235580086708,-0.07967585147635653,-0.022684071213006973,-0.16782394315577176,0.9289673289335737,-0.45657918356429017,left,-0.000441133975982666,-0.6042018026316384,-2.505557464055717,-7.671647557562589,-0.3201664841944586,0.011261237785220146,-0.002697378396987915,5.571210817071795,0.0009178519248962402
1745973307821486600,2.198486572265625,-0.31624222051852435,-0.006043102592229843,-0.08004522655773165,-0.008731457404792309,-0.16773996223655926,0.9290393500788046,-0.45644181421955293,left,-0.0033023953437805176,-0.6035427585410543,-2.511026835377514,-7.6737202721834175,-0.3199091917570363,0.020986780524253845,-0.0032303929328918457,5.565891083353757,0.001082301139831543
1745973307861486600,2.238486572265625,-0.3162978076593836,0.001427485141903162,-0.08016397429566907,0.004559586755931377,-0.16780860896942001,0.9291275880156225,-0.45644372888174256,left,-0.0016438961029052734,-0.6028225459286263,-2.5126994447648525,-7.677388731563091,-0.3195869902519444,0.011936002410948277,-0.004699200391769409,5.560074506029486,0.0037134885787963867
1745973307901486600,2.278486572265625,-0.3162978076593836,0.009379452094435692,-0.08016397429566907,0.001842724159359932,-0.16780860896942001,0.9291275880156225,-0.45644372888174256,left,0.0007600188255310059,-0.6028225459286263,-2.5126994447648525,-7.677388731563091,-0.3195869902519444,-0.0007628835737705231,-0.003199458122253418,5.560074506029486,-0.00025969743728637695
1745973307941486600,2.318486572265625,-0.3162978076593836,-0.0011225305497646332,-0.08016397429566907,-0.0013053270522505045,-0.16780860896942001,0.9291275880156225,-0.45644372888174256,left,0.0012893080711364746,-0.6028225459286263,-2.5126994447648525,-7.677388731563091,-0.3195869902519444,-0.00023977819364517927,-0.0017705559730529785,5.560074506029486,-0.005038082599639893
1745973307981486600,2.358486572265625,-0.3162978076593836,-0.000020766165107488632,-0.08016397429566907,0.005078649148344994,-0.16780860896942001,0.9291275880156225,-0.45644372888174256,left,0.004223048686981201,-0.6028225459286263,-2.5126994447648525,-7.677388731563091,-0.3195869902519444,0.0016990195726975799,0.000054389238357543945,5.560074506029486,-0.0043942928314208984
1745973308021486600,2.398486572265625,-0.3154406359688206,0.005049122963100672,-0.07993270062117944,0.03414387255907059,-0.1676885249434167,0.9292770089653991,-0.4557821647603325,left,-0.013008952140808105,-0.6023485476622169,-2.506935182149708,-7.682044448414445,-0.319273393212844,0.008508885279297829,0.001652747392654419,5.5562447186082595,-0.004901289939880371
1745973308061486600,2.438486572265625,-0.3145074900665951,0.00044818781316280365,-0.07957955830367326,0.0003938712179660797,-0.16774477441193164,0.9293734905685126,-0.45551572377642113,left,0.005126059055328369,-0.6020548470949241,-2.500270171302557,-7.68593151898086,-0.31905113216028425,0.002022000029683113,-0.004167735576629639,5.553871559736132,-0.0008636116981506348
1745973308101486600,2.478486572265625,-0.3145074900665951,0.00794775690883398,-0.07957955830367326,0.00548537215217948,-0.16774477441193164,0.9293734905685126,-0.45551572377642113,left,-0.0008722543716430664,-0.6020548470949241,-2.500270171302557,-7.68593151898086,-0.31905113216028425,0.0005394961917772889,-0.001469939947128296,5.553871559736132,0.0011233091354370117
1745973308141486600,2.518486572265625,-0.3145074900665951,0.010816398076713085,-0.07957955830367326,0.005774305202066898,-0.16774477441193164,0.9293734905685126,-0.45551572377642113,left,0.0011271238327026367,-0.6020548470949241,-2.500270171302557,-7.68593151898086,-0.31905113216028425,0.00008879840606823564,-0.00021967291831970215,5.553871559736132,-0.0011820793151855469
1745973308181486600,2.558486572265625,-0.3145074900665951,0.003434211015701294,-0.07957955830367326,0.008487235754728317,-0.16774477441193164,0.9293734905685126,-0.45551572377642113,left,0.0005851984024047852,-0.6020548470949241,-2.500270171302557,-7.68593151898086,-0.31905113216028425,-0.003788513131439686,5.960464477539063e-8,5.553871559736132,-0.0017232298851013184
1745973308221486600,2.598486572265625,-0.3134076449054286,0.0023920289240777493,-0.07910499442642473,0.014023952186107635,-0.1675400851668921,0.9294032454346459,-0.4548270344273388,left,-0.0009299516677856445,-0.602623513966667,-2.4908412487000224,-7.685671406739949,-0.3191899346050563,-0.016031568869948387,-0.0006082057952880859,5.558466486310959,0.003644406795501709
1745973308261486600,2.638486572265625,-0.3134076449054286,0.0058462913148105145,-0.07910499442642473,-0.005021261051297188,-0.1675400851668921,0.9294032454346459,-0.4548270344273388,left,0.0033180713653564453,-0.602623513966667,-2.4908412487000224,-7.685671406739949,-0.3191899346050563,-0.017495188862085342,-0.0018808245658874512,5.558466486310959,0.0021308064460754395
1745973308301486600,2.678486572265625,-0.3128126194317282,0.0007907343097031116,-0.07867450420666741,0.02160436473786831,-0.16752136579412052,0.9292775273301287,-0.45484789499319506,left,-0.0005156993865966797,-0.6037925085928576,-2.484266546484828,-7.680964251962304,-0.3196718961611592,-0.007531940005719662,0.00023218989372253418,5.567907099351286,0.0006833076477050781
1745973308341486600,2.718486572265625,-0.3128126194317282,-0.00837705098092556,-0.07867450420666741,0.009234102442860603,-0.16752136579412052,0.9292775273301287,-0.45484789499319506,left,-0.0015667080879211426,-0.6037925085928576,-2.484266546484828,-7.680964251962304,-0.3196718961611592,-0.00011555617675185204,-0.001320183277130127,5.567907099351286,0.0007261037826538086
1745973308381486600,2.758486572265625,-0.31239832028448195,-0.0068792859092354774,-0.07835576778676512,0.006347683258354664,-0.16796164976798852,0.9292284056453618,-0.45564963073441106,left,0.002533853054046631,-0.6037777550095492,-2.481109251497686,-7.68207075189948,-0.319661924373077,0.003080105409026146,-0.000042319297790527344,5.56778844140768,0.0014133453369140625
1745973308421486600,2.798486572265625,-0.31239832028448195,0.0015677250921726227,-0.07835576778676512,0.0004502176307141781,-0.16796164976798852,0.9292284056453618,-0.45564963073441106,left,0.002055346965789795,-0.6037777550095492,-2.481109251497686,-7.68207075189948,-0.319661924373077,0.003847433254122734,0.00045680999755859375,5.56778844140768,-0.000929713249206543
1745973308461486600,2.838486572265625,-0.31239832028448195,0.00007738289423286915,-0.07835576778676512,0.000022222724510356784,-0.16796164976798852,0.9292284056453618,-0.45564963073441106,left,0.0008823871612548828,-0.6037777550095492,-2.481109251497686,-7.68207075189948,-0.319661924373077,0.00018990924581885338,0.001675635576248169,5.56778844140768,-0.0013418793678283691
1745973308501486600,2.878486572265625,-0.31239832028448195,-0.004475187510251999,-0.07835576778676512,-0.005247938446700573,-0.16796164976798852,0.9292284056453618,-0.45564963073441106,left,0.00012475252151489258,-0.6037777550095492,-2.481109251497686,-7.68207075189948,-0.319661924373077,-0.0049373977817595005,0.000023990869522094727,5.56778844140768,0.000012874603271484375
1745973308541486600,2.918486572265625,-0.31309118668632796,-0.007108948193490505,-0.0785724044447702,-0.009841108694672585,-0.16814862893511304,0.9291448159302429,-0.45629434599387986,left,-0.0007868409156799316,-0.6037947823850449,-2.486402097208798,-7.680259318563341,-0.3197531985200529,0.00363730126991868,-0.0009722411632537842,5.5679258040517565,-0.0003625154495239258
1745973308581486600,2.958486572265625,-0.31345435666600735,-0.0005068820901215076,-0.07876859623135735,-0.004153409041464329,-0.16814058591659106,0.929160736434934,-0.4563406029683494,left,-0.00019043684005737305,-0.6035250450239245,-2.489654084742069,-7.68078480374217,-0.31966304484194774,0.006897148676216602,-0.0009176135063171387,5.565747875490785,0.0002682805061340332
1745973308621486600,2.998486572265625,-0.31380214473227563,0.001641782931983471,-0.07897313179223962,0.009997406974434853,-0.1681962554087,0.9291980473711906,-0.4564683806198623,left,0.0017677545547485352,-0.60303482171782,-2.4931670612990855,-7.682512650448084,-0.3194747274557156,0.02318963035941124,-0.0018286406993865967,5.561788908731937,-0.0014531612396240234
1745973308661486600,3.038486572265625,-0.31380214473227563,-0.015296933241188526,-0.07897313179223962,-0.002639411948621273,-0.1681962554087,0.9291980473711906,-0.4564683806198623,left,0.0025403499603271484,-0.60303482171782,-2.4931670612990855,-7.682512650448084,-0.3194747274557156,0.002915887162089348,-0.0017696619033813477,5.561788908731937,-0.002797424793243408
1745973308701486600,3.078486572265625,-0.3148182828412023,-0.011179482564330101,-0.07933712371776627,-0.0031318713445216417,-0.16864859856686362,0.9291367202948873,-0.4576494369051102,left,0.00497967004776001,-0.60241284578754,-2.5020430261939763,-7.683263176554441,-0.31932460094293386,0.0009302045218646526,-0.003431975841522217,5.556764358568191,-0.0018026232719421387
1745973308741486600,3.118486572265625,-0.3148182828412023,0.011791244149208069,-0.07933712371776627,0.013283896259963512,-0.16864859856686362,0.9291367202948873,-0.4576494369051102,left,-0.0018001198768615723,-0.60241284578754,-2.5020430261939763,-7.683263176554441,-0.31932460094293386,0.0004784336779266596,-0.004955291748046875,5.556764358568191,-0.0012722611427307129
1745973308781486600,3.158486572265625,-0.31324933131133403,0.02778141386806965,-0.07867107978235875,0.025264637544751167,-0.1684843369742436,0.9292041792613811,-0.456866151959001,left,-0.0019721388816833496,-0.6028931944232957,-2.4891625018328427,-7.684639141082763,-0.3193795647675425,-0.012020326219499111,-0.0031380653381347656,5.56064499939382,0.0022199153900146484
1745973308821486600,3.198486572265625,-0.31227403383249563,0.020351704210042953,-0.07827564886695297,0.004974210634827614,-0.16812567873086534,0.9292310760328121,-0.45592254027607904,left,0.0011447668075561523,-0.6036131553129722,-2.4804358822807666,-7.683250901594757,-0.31958742852369804,-0.006731992121785879,-0.0004013478755950928,5.566459238630533,0.00020903348922729492
1745973308861486600,3.238486572265625,-0.3113640687233358,0.010577999986708164,-0.07796161024315261,0.011205538176000118,-0.16786152794871742,0.9293125204639935,-0.45508514770966224,left,0.002272188663482666,-0.6038073752957889,-2.473112115263939,-7.684476059475541,-0.3195664712540033,0.0035531199537217617,0.0007744133472442627,5.568027510860562,-0.002292931079864502
1745973308901486600,3.278486572265625,-0.3113640687233358,0.0010126633569598198,-0.07796161024315261,-0.0071077244356274605,-0.16786152794871742,0.9293125204639935,-0.45508514770966224,left,0.006081998348236084,-0.6038073752957889,-2.473112115263939,-7.684476059475541,-0.3195664712540033,-0.0004920978099107742,0.0011042952537536621,5.568027510860562,0.0000718235969543457
1745973308941486600,3.318486572265625,-0.3113640687233358,0.0010277748806402087,-0.07796161024315261,-0.015694858506321907,-0.16786152794871742,0.9293125204639935,-0.45508514770966224,left,-0.00033611059188842773,-0.6038073752957889,-2.473112115263939,-7.684476059475541,-0.3195664712540033,-0.007205435074865818,-0.0009186267852783203,5.568027510860562,0.003606259822845459
1745973308981486600,3.358486572265625,-0.31177622280560496,0.026093287393450737,-0.07817994504066733,-0.014840408228337765,-0.16749870974581044,0.9292835553178821,-0.4545494908199762,left,0.005381762981414795,-0.6042637768883323,-2.4754993026614187,-7.681036148154735,-0.31978746076043907,0.004008500836789608,-0.0008127093315124512,5.571711167809367,0.006577789783477783
1745973309021486600,3.398486572265625,-0.31126439766556224,0.046979911625385284,-0.07828294391523358,-0.023041531443595886,-0.16668462369056358,0.9294935433688809,-0.45257665377992357,left,0.003562033176422119,-0.6040653761913886,-2.4719062466055153,-7.6833549464911215,-0.31957738074076436,0.033556535840034485,0.00087013840675354,5.570110162353515,0.004891514778137207
1745973309061486600,3.438486572265625,-0.3109524244254579,0.04250525310635567,-0.07867350041672559,-0.04509516805410385,-0.16544185177297702,0.9298177150338168,-0.44966987182281576,left,-0.0009889602661132812,-0.6035073301770197,-2.470459554928541,-7.687083027103543,-0.3191837973331947,0.03155913203954697,-0.0005470216274261475,5.565605252149701,-0.002106964588165283
1745973309101486600,3.478486572265625,-0.3119042057477533,0.015481211245059967,-0.07948773792338241,-0.05598645284771919,-0.16450801925059869,0.9300107159709134,-0.4478452826185905,left,0.005084633827209473,-0.6028743826861452,-2.478855627351999,-7.688079636925458,-0.3189023515680267,0.030952902510762215,-0.0015827417373657227,5.560493023702502,-0.005025029182434082
1745973309141486600,3.518486572265625,-0.3136754257830876,0.008074487559497356,-0.08062242991653826,-0.04688996449112892,-0.16386560756413887,0.9301700185665642,-0.44681111982522753,left,-0.002871572971343994,-0.6017244697796699,-2.4944401499748228,-7.68975429213941,-0.318483381826392,0.033208850771188736,-0.0010897517204284668,5.551200879222154,-0.002086460590362549
1745973309181486600,3.558486572265625,-0.3144480887421844,0.01147663127630949,-0.0812704685613859,-0.023328902199864388,-0.1633987293474397,0.9303509277037487,-0.445834397300346,left,-0.0037969350814819336,-0.6006752218325452,-2.5021812656208873,-7.693359038633107,-0.3180297854462499,0.02501654252409935,-0.0031299889087677,5.542715374949574,-0.0024930834770202637
1745973309221486600,3.598486572265625,-0.31448212983042734,0.01612267829477787,-0.08148472894023741,-0.007670482620596886,-0.16309102675666842,0.9304870604750507,-0.4450523918951126,left,0.003003537654876709,-0.6000905412540539,-2.503445294207334,-7.696354713317751,-0.31773470010209304,0.007166925817728043,-0.0025505125522613525,5.537984254774451,0.0032165050506591797
1745973309261486600,3.638486572265625,-0.31492015956646796,0.03772609680891037,-0.08187607546533096,-0.04278833419084549,-0.16236889314749597,0.9305519015585331,-0.44369897343116993,left,0.008415460586547852,-0.6003077638195181,-2.506443306979537,-7.694113071870803,-0.31781392827078075,0.007061242125928402,-0.004502981901168823,5.539742496618628,0.003024876117706299
1745973309301486600,3.678486572265625,-0.31621687391440834,0.03819730877876282,-0.08275409749378908,-0.06727266311645508,-0.16127218101628996,0.9306271291829746,-0.44182609907183157,left,0.007434725761413574,-0.6004899384421953,-2.5161045770332215,-7.689897500002384,-0.3179246651434068,0.007729155942797661,-0.0028773248195648193,5.541216076302528,-0.0009084343910217285
1745973309341486600,3.718486572265625,-0.3184467496630654,0.021142855286598206,-0.08399896452524225,-0.06844925135374069,-0.1601795787552691,0.9306216833939653,-0.44030299651276766,left,-0.001963675022125244,-0.6007672482283283,-2.5327646199330687,-7.682808418524265,-0.31816655065171306,0.012917978689074516,-0.0015044212341308594,5.543460055837035,-0.0023130178451538086
1745973309381486600,3.758486572265625,-0.3202751484581847,0.009570806287229061,-0.08501883218374366,-0.03882613033056259,-0.15953337083923053,0.9306477879287903,-0.4394724307200463,left,-0.004323780536651611,-0.6004735355313008,-2.547320091769099,-7.679709867987036,-0.31814394514214783,0.01553691178560257,-0.0028541386127471924,5.541083389833569,-0.0019451379776000977
1745973309421486600,3.798486572265625,-0.32068535375409646,0.004498609341681004,-0.08534886291809778,-0.0009461678564548492,-0.15926990569822938,0.930727746213256,-0.43894589635594955,left,-0.0006841421127319336,-0.6000328494417471,-2.5512396033003926,-7.680980618575215,-0.31795366475826936,0.009285608306527138,-0.0019242167472839355,5.537517221784591,0.0003730654716491699
1745973309461486600,3.838486572265625,-0.32068535375409646,0.013243489898741245,-0.08534886291809778,0.010194544680416584,-0.15926990569822938,0.930727746213256,-0.43894589635594955,left,-0.0021594762802124023,-0.6000328494417471,-2.5512396033003926,-7.680980618575215,-0.31795366475826936,0.013460401445627213,-0.002368837594985962,5.537517221784591,-0.0007567405700683594
1745973309501486600,3.878486572265625,-0.31871134368742976,0.012276972644031048,-0.08476065278581435,0.013472857885062695,-0.15897829912128109,0.9310256267392424,-0.4374710431711851,left,0.0018322467803955078,-0.5992651196755954,-2.537403677910566,-7.690037200734019,-0.3173843930442082,0.01113378070294857,-0.0034804344177246094,5.531302000531554,-0.0003064870834350586
1745973309541486600,3.918486572265625,-0.31871134368742976,0.002034813165664673,-0.08476065278581435,-0.00978024024516344,-0.15897829912128109,0.9310256267392424,-0.4374710431711851,left,0.0025423765182495117,-0.5992651196755954,-2.537403677910566,-7.690037200734019,-0.3173843930442082,0.002888444811105728,-0.0011351406574249268,5.531302000531554,-0.001231074333190918
1745973309581486600,3.958486572265625,-0.31871134368742976,0.005669100675731897,-0.08476065278581435,-0.004190049599856138,-0.15897829912128109,0.9310256267392424,-0.4374710431711851,left,0.0012646913528442383,-0.5992651196755954,-2.537403677910566,-7.690037200734019,-0.3173843930442082,0.002040592022240162,-0.0016884803771972656,5.531302000531554,-0.0011483430862426758
1745973309621486600,3.998486572265625,-0.31871134368742976,0.004532004706561565,-0.08476065278581435,0.00038556288927793503,-0.15897829912128109,0.9310256267392424,-0.4374710431711851,left,0.0017638802528381348,-0.5992651196755954,-2.537403677910566,-7.690037200734019,-0.3173843930442082,0.0016788928769528866,-0.002049058675765991,5.531302000531554,-0.0016840696334838867
1745973309661486600,4.038486572265625,-0.3189305434750729,0.01024477556347847,-0.08502391717682327,-0.001821761718019843,-0.15850200234488424,0.9311011158416421,-0.4365075190086752,left,0.0003758072853088379,-0.5991985181894156,-2.5392048821136353,-7.6898302799850695,-0.31733058462325486,-0.002111575799062848,-0.002569526433944702,5.530762486827373,0.0012646913528442383
1745973309701486600,4.078486572265625,-0.3189305434750729,0.00904933176934719,-0.08502391717682327,-0.006879519671201706,-0.15850200234488424,0.9311011158416421,-0.4365075190086752,left,-0.0001748800277709961,-0.5991985181894156,-2.5392048821136353,-7.6898302799850695,-0.31733058462325486,-0.007544264197349548,-0.002828836441040039,5.530762486827373,0.0011875629425048828
1745973309741486600,4.118486572265625,-0.31869384062632755,0.009224227629601955,-0.08496028232719917,0.008425785228610039,-0.15811240564251372,0.9310952648979104,-0.43572959190679533,left,-0.0009063482284545898,-0.5998142577498417,-2.536317051717639,-7.687195839828252,-0.3175591883565284,-0.0010161837562918663,-0.00203743577003479,5.53574787402451,0.000056743621826171875
1745973309781486600,4.158486572265625,-0.31869384062632755,-0.0038541099056601524,-0.08496028232719917,0.005343740340322256,-0.15811240564251372,0.9310952648979104,-0.43572959190679533,left,-0.000830531120300293,-0.5998142577498417,-2.536317051717639,-7.687195839828252,-0.3175591883565284,0.002194569678977132,-0.0011044144630432129,5.53574787402451,-0.00029969215393066406
1745973309821486600,4.198486572265625,-0.31869384062632755,-0.0021902925800532103,-0.08496028232719917,0.0027807450387626886,-0.15811240564251372,0.9310952648979104,-0.43572959190679533,left,0.001388251781463623,-0.5998142577498417,-2.536317051717639,-7.687195839828252,-0.3175591883565284,-0.002437615068629384,-0.001814424991607666,5.53574787402451,0.0011042952537536621
1745973309861486600,4.238486572265625,-0.31869384062632755,-0.005078830756247044,-0.08496028232719917,0.0070504434406757355,-0.15811240564251372,0.9310952648979104,-0.43572959190679533,left,0.0006316900253295898,-0.5998142577498417,-2.536317051717639,-7.687195839828252,-0.3175591883565284,0.002799420850351453,-0.00008535385131835938,5.53574787402451,0.0005626678466796875
1745973309901486600,4.278486572265625,-0.31859476704538076,0.0003651469014585018,-0.08483821782433514,0.002557124476879835,-0.1584448388541974,0.931074281892499,-0.436364700487819,left,0.0017489790916442871,-0.5996149566485822,-2.535900872132182,-7.688494647467136,-0.31748755634040693,-0.001107001444324851,-0.0009060800075531006,5.534134593608975,0.0010061264038085938
1745973309941486600,4.318486572265625,-0.31859476704538076,-0.00209555821493268,-0.08483821782433514,0.001951566431671381,-0.1584448388541974,0.931074281892499,-0.436364700487819,left,0.001212000846862793,-0.5996149566485822,-2.535900872132182,-7.688494647467136,-0.31748755634040693,0.0026398671325296164,-0.0009827613830566406,5.534134593608975,0.00041872262954711914
1745973309981486600,4.358486572265625,-0.31859476704538076,-0.0006206105463206768,-0.08483821782433514,-0.0002957920078188181,-0.1584448388541974,0.931074281892499,-0.436364700487819,left,0.0013918876647949219,-0.5996149566485822,-2.535900872132182,-7.688494647467136,-0.31748755634040693,0.005729431286454201,-0.002159297466278076,5.534134593608975,0.0025191307067871094
1745973310021486600,4.398486572265625,-0.31859476704538076,0.004469980951398611,-0.08483821782433514,0.003057360416278243,-0.1584448388541974,0.931074281892499,-0.436364700487819,left,0.0002555251121520996,-0.5996149566485822,-2.535900872132182,-7.688494647467136,-0.31748755634040693,-0.0009105168282985687,-0.0012353360652923584,5.534134593608975,0.0023366212844848633
1745973310061486600,4.438486572265625,-0.31859476704538076,0.0030461561400443316,-0.08483821782433514,0.008466989733278751,-0.1584448388541974,0.931074281892499,-0.436364700487819,left,-0.00026291608810424805,-0.5996149566485822,-2.535900872132182,-7.688494647467136,-0.31748755634040693,-0.005182503256946802,-0.0005212128162384033,5.534134593608975,0.0005272626876831055
1745973310101486600,4.478486572265625,-0.31859476704538076,-0.0016519438941031694,-0.08483821782433514,0.0037234434857964516,-0.1584448388541974,0.931074281892499,-0.436364700487819,left,0.0021854639053344727,-0.5996149566485822,-2.535900872132182,-7.688494647467136,-0.31748755634040693,-0.004881669767200947,-0.000733107328414917,5.534134593608975,0.0006197094917297363
1745973310141486600,4.518486572265625,-0.31859476704538076,-0.00564153864979744,-0.08483821782433514,-0.0020659691654145718,-0.1584448388541974,0.931074281892499,-0.436364700487819,left,0.00035858154296875,-0.5996149566485822,-2.535900872132182,-7.688494647467136,-0.31748755634040693,0.0031505925580859184,0.00011667609214782715,5.534134593608975,0.0002976059913635254
1745973310181486600,4.558486572265625,-0.31859476704538076,0.002036172430962324,-0.08483821782433514,-0.0010135797783732414,-0.1584448388541974,0.931074281892499,-0.436364700487819,left,0.00409543514251709,-0.5996149566485822,-2.535900872132182,-7.688494647467136,-0.31748755634040693,0.017949029803276062,0.000035434961318969727,5.534134593608975,0.0018231868743896484
1745973310221486600,4.598486572265625,-0.31790662460511454,0.007027789019048214,-0.08477044677750481,0.014366247691214085,-0.15834662151526738,0.9313014985971155,-0.4356630238380807,left,-0.010357916355133057,-0.5984828164440693,-2.532566467012465,-7.696184032925963,-0.31688763895726596,0.03512498736381531,0.0004703104496002197,5.524965198725462,-0.001185774803161621
1745973310261486600,4.638486572265625,-0.31679412139197455,-0.007358900271356106,-0.08446634413019098,0.009073560126125813,-0.15842602779179032,0.9315271272652784,-0.4352004260095472,left,0.0027680397033691406,-0.5973532921243292,-2.5259452953070403,-7.704922050654888,-0.31626529894605293,0.024671245366334915,-0.004663556814193726,5.51581041688919,0.0014195442199707031
1745973310301486600,4.678486572265625,-0.31681012954982757,-0.003038172610104084,-0.08452601956530015,0.00964938011020422,-0.15859060634810204,0.9315955163594508,-0.4354059493682106,left,-0.0012364387512207031,-0.5966732145444529,-2.527236504161358,-7.708444379562139,-0.31596529524045247,0.008175453171133995,-0.0020458102226257324,5.510294868338108,0.003204822540283203
1745973310341486600,4.718486572265625,-0.31681012954982757,0.008989076130092144,-0.08452601956530015,-0.0015953276306390762,-0.15859060634810204,0.9315955163594508,-0.4354059493682106,left,0.005413949489593506,-0.5966732145444529,-2.527236504161358,-7.708444379562139,-0.31596529524045247,0.005772587843239307,-0.002477198839187622,5.510294868338108,-0.001488327980041504
1745973310381486600,4.758486572265625,-0.31681012954982757,0.0019911061972379684,-0.08452601956530015,-0.00407577957957983,-0.15859060634810204,0.9315955163594508,-0.4354059493682106,left,0.0035390853881835938,-0.5966732145444529,-2.527236504161358,-7.708444379562139,-0.31596529524045247,0.0047654565423727036,-0.0015082955360412598,5.510294868338108,-0.00571364164352417
1745973310421486600,4.798486572265625,-0.31681012954982757,-0.001252531073987484,-0.08452601956530015,0.003672586288303137,-0.15859060634810204,0.9315955163594508,-0.4354059493682106,left,-0.002071201801300049,-0.5966732145444529,-2.527236504161358,-7.708444379562139,-0.31596529524045247,-0.01577874831855297,-0.0005828440189361572,5.510294868338108,-0.0006541609764099121
1745973310461486600,4.838486572265625,-0.3170307886511215,-0.013492762111127377,-0.08453790607747486,-0.004953501280397177,-0.15850333030890018,0.9314979044104026,-0.43544635635853385,left,0.000040590763092041016,-0.5973515098728223,-2.5277716339513656,-7.704333437111973,-0.3162936163854811,-0.01972411572933197,-0.001940697431564331,5.515795803841948,-0.0000972747802734375
1745973310501486600,4.878486572265625,-0.3172992993808224,-0.023615464568138123,-0.0844161382455062,0.02002614364027977,-0.15899222780342248,0.9313366492008639,-0.43668060131596603,left,-0.0005824565887451172,-0.5977646240816675,-2.529129186040163,-7.7014885690748685,-0.3165553235298093,-0.011887606233358383,0.000014483928680419922,5.519145114269852,0.0005230903625488281
1745973310541486600,4.918486572265625,-0.3175074752333569,-0.016190502792596817,-0.08434407333797765,-0.001271599903702736,-0.15948113852728457,0.9312462081182915,-0.43778954164498135,left,0.002593696117401123,-0.5977124345692323,-2.53082225369364,-7.701236055618524,-0.31659488167248273,-0.0007842285558581352,-0.0010840296745300293,5.5187219204217195,0.003568589687347412
1745973310581486600,4.958486572265625,-0.3175074752333569,0.003868965432047844,-0.08434407333797765,-0.0060472795739769936,-0.15948113852728457,0.9312462081182915,-0.43778954164498135,left,0.003086686134338379,-0.5977124345692323,-2.53082225369364,-7.701236055618524,-0.31659488167248273,-0.0013166621793061495,-0.0006360709667205811,5.5187219204217195,0.003529787063598633
1745973310621486600,4.998486572265625,-0.3175074752333569,0.00548532884567976,-0.08434407333797765,-0.010146544314920902,-0.15948113852728457,0.9312462081182915,-0.43778954164498135,left,0.0032801032066345215,-0.5977124345692323,-2.53082225369364,-7.701236055618524,-0.31659488167248273,-0.0023371889255940914,-0.0021840333938598633,5.5187219204217195,-0.000844120979309082
1745973310661486600,5.038486572265625,-0.3175074752333569,-0.0018263780511915684,-0.08434407333797765,-0.0032859118655323982,-0.15948113852728457,0.9312462081182915,-0.43778954164498135,left,0.00336456298828125,-0.5977124345692323,-2.53082225369364,-7.701236055618524,-0.31659488167248273,-0.002291862852871418,-0.0033318698406219482,5.5187219204217195,-0.0009990930557250977
1745973310701486600,5.078486572265625,-0.3183858818166089,0.002225290983915329,-0.0847236845503606,-0.010877639055252075,-0.15940720917717216,0.9311914629626533,-0.4379396111673091,left,0.0023387670516967773,-0.5977573383206444,-2.537508599589765,-7.698774049419164,-0.316691712777182,0.0046994551084935665,-0.006628692150115967,5.519086077558994,0.0037738680839538574
1745973310741486600,5.118486572265625,-0.31858574006493284,0.009797381237149239,-0.0849006871904864,-0.011620886623859406,-0.15913689257649372,0.9312262846745786,-0.4374230951481984,left,0.0008389949798583984,-0.5977400760884192,-2.5390768718197942,-7.698357285311817,-0.3166778634720163,0.004631652496755123,-0.005423992872238159,5.518946376827359,0.0007922053337097168
1745973310781486600,5.158486572265625,-0.31858574006493284,0.0011158352717757225,-0.0849006871904864,0.005847319960594177,-0.15913689257649372,0.9312262846745786,-0.4374230951481984,left,-0.0026953816413879395,-0.5977400760884192,-2.5390768718197942,-7.698357285311817,-0.3166778634720163,-0.014527984894812107,-0.0018752515316009521,5.518946376827359,-0.0012177824974060059
1745973310821486600,5.198486572265625,-0.31889613101354974,-0.00416696909815073,-0.08486159573967851,0.012625218369066715,-0.15916882148413847,0.9310603112931171,-0.4378168532340163,left,-0.001562952995300293,-0.598708003224357,-2.5397905730471013,-7.692492777192593,-0.31716007259411516,-0.01880573481321335,-0.00047263503074645996,5.526790076065063,-0.0013543367385864258
1745973310861486600,5.238486572265625,-0.31889613101354974,-0.0025674221105873585,-0.08486159573967851,0.011188291013240814,-0.15916882148413847,0.9310603112931171,-0.4378168532340163,left,0.002219557762145996,-0.598708003224357,-2.5397905730471013,-7.692492777192593,-0.31716007259411516,-0.004709755070507526,-0.0009781718254089355,5.526790076065063,-0.0020317435264587402
1745973310901486600,5.278486572265625,-0.31829505229626737,-0.005792808718979359,-0.08445377091861853,0.014133915305137634,-0.15954256697047453,0.9310084588662257,-0.43846154621583827,left,0.0034931302070617676,-0.5989135097077931,-2.5348104465469716,-7.692938767394423,-0.317233081154576,-0.0009512461256235838,0.0011445581912994385,5.528454209885001,-0.00012624263763427734
1745973310941486600,5.318486572265625,-0.3178776933308278,-0.008227996528148651,-0.08418400375297451,0.014964034780859947,-0.15978387830664514,0.9309820381463396,-0.4388599568876641,left,-0.0017769336700439453,-0.5990115377494107,-2.531430448719859,-7.693481788229942,-0.31726115735951144,-0.005221143364906311,-0.00021019577980041504,5.529248575133085,-0.0023532509803771973
1745973310981486600,5.358486572265625,-0.3171315055510826,-0.00792816374450922,-0.08366404747468201,0.029700089246034622,-0.1601600012923801,0.9308934712931567,-0.4395325525060781,left,-0.005799293518066406,-0.5995364963478901,-2.5247832657903433,-7.692609097048639,-0.31746872913750945,-0.027545509859919548,-0.0036259591579437256,5.533499218314886,0.0045316219329833984
1745973311021486600,5.398486572265625,-0.31700614307791875,-0.008209873922169209,-0.08337357441672838,0.004635525867342949,-0.16046941315734217,0.9307299329812276,-0.44034139949465284,left,0.007586181163787842,-0.6003611957558497,-2.5223954938709734,-7.688587001925707,-0.3178679122853627,-0.018964288756251335,-0.002478986978530884,5.540174458295106,0.0019495487213134766
1745973311061486600,5.438486572265625,-0.3169504213078063,0.003928093239665031,-0.08326138449753984,0.009767978452146053,-0.16058823689646523,0.9306700614124683,-0.44064592134059655,left,0.001642763614654541,-0.6006621079088884,-2.521447399365902,-7.68714381738007,-0.3180130280568903,-0.004383072257041931,-0.0010658800601959229,5.542609576487541,0.0011452436447143555
1745973311101486600,5.478486572265625,-0.3169504213078063,0.008117083460092545,-0.08326138449753984,-0.002520347014069557,-0.16058823689646523,0.9306700614124683,-0.44064592134059655,left,0.00633084774017334,-0.6006621079088884,-2.521447399365902,-7.68714381738007,-0.3180130280568903,-0.006841653026640415,-0.0040597617626190186,5.542609576487541,-0.0011232495307922363
1745973311141486600,5.518486572265625,-0.3169504213078063,0.009499243460595608,-0.08326138449753984,-0.005686863325536251,-0.16058823689646523,0.9306700614124683,-0.44064592134059655,left,0.0016695261001586914,-0.6006621079088884,-2.521447399365902,-7.68714381738007,-0.3180130280568903,-0.01825753226876259,-0.002938210964202881,5.542609576487541,0.0008491873741149902
1745973311181486600,5.558486572265625,-0.31712156774045075,0.004108520690351725,-0.08315486195466884,-0.006572716403752565,-0.16021166892274505,0.9304504224075311,-0.4403232296221859,left,0.003877699375152588,-0.6025496641831202,-2.519496265298128,-7.676758032444119,-0.3188722948571016,-0.026250232011079788,-0.0032054483890533447,5.557869689461588,0.0016524791717529297
1745973311221486600,5.598486572265625,-0.3175797266272659,-0.004107356537133455,-0.08315611760247281,0.007105973083525896,-0.1602546990683448,0.9302576974477931,-0.4408138533511253,left,-0.003040492534637451,-0.6036105521991617,-2.5211703359901905,-7.669996867746114,-0.31941204180002725,-0.025170695036649704,-0.0007989704608917236,5.566438195842504,0.0028012990951538086
1745973311261486600,5.638486572265625,-0.3175797266272659,-0.011068934574723244,-0.08315611760247281,0.012016039341688156,-0.1602546990683448,0.9302576974477931,-0.4408138533511253,left,-0.0016140341758728027,-0.6036105521991617,-2.5211703359901905,-7.669996867746114,-0.31941204180002725,-0.0074813514947891235,-0.0012644529342651367,5.566438195842504,0.0014103055000305176
1745973311301486600,5.678486572265625,-0.3170038652693692,-0.006367324851453304,-0.0827230344804929,0.01924154907464981,-0.16066001992172352,0.9301760486401405,-0.4415681935120723,left,0.000994563102722168,-0.6039654802905885,-2.516137017998099,-7.669569582244754,-0.3195585647634182,0.005273698829114437,0.000012218952178955078,5.569303522145748,-0.0010535717010498047
1745973311341486600,5.718486572265625,-0.3164696496995886,-0.006789942272007465,-0.08241790904700896,0.01744554005563259,-0.1609217451555483,0.9301711397226419,-0.4419419441440407,left,0.0031276941299438477,-0.6039413538635895,-2.512081312866509,-7.671040239319205,-0.3195200652688347,-0.009006999433040619,-0.0005812644958496094,5.569108876356482,-0.00301361083984375
1745973311381486600,5.758486572265625,-0.3162313405530237,-0.013361478224396706,-0.08208350300180438,0.019793594256043434,-0.16131107978059447,0.9300282613553219,-0.4428408775526158,left,0.0009658336639404297,-0.6045740247305115,-2.509156949852407,-7.66828831026256,-0.3198255584461045,-0.030193917453289032,-0.001489013433456421,5.574214675062895,-0.0018616318702697754
1745973311421486600,5.798486572265625,-0.31615747322720994,-0.003288913518190384,-0.08175044142794881,0.008904101327061653,-0.16162953609906722,0.9298055677332893,-0.4437698372333961,left,0.0033016204833984375,-0.6057599795761623,-2.5065333233505487,-7.662184732690453,-0.32039685998273215,-0.03254516050219536,-0.0012047886848449707,5.583779206743836,0.0036129355430603027
1745973311461486600,5.838486572265625,-0.31621842686395424,0.006037900224328041,-0.08162176772666364,0.003373517654836178,-0.16167837175931213,0.9296708169261446,-0.4440866544342572,left,0.0010063648223876953,-0.6065986231721852,-2.5055431432694197,-7.657578700199723,-0.32079589786032303,-0.014761341735720634,-0.0008704662322998047,5.590538617876172,0.0014466643333435059
1745973311501486600,5.878486572265625,-0.3159704739324123,0.012047842144966125,-0.0814891269887281,-0.0026741973124444485,-0.16152008936334222,0.9296388504562565,-0.44378011290483216,left,0.000788569450378418,-0.6071241957492488,-2.5027313007190823,-7.655406616857648,-0.32100218760894395,-0.007254272233694792,-0.0029841959476470947,5.594772309923171,0.0023983120918273926
1745973311541486600,5.918486572265625,-0.3159704739324123,0.004623499698936939,-0.0814891269887281,0.001299054827541113,-0.16152008936334222,0.9296388504562565,-0.44378011290483216,left,0.0005393624305725098,-0.6071241957492488,-2.5027313007190823,-7.655406616857648,-0.32100218760894395,0.0006089820526540279,-0.002494305372238159,5.594772309923171,-0.0004603862762451172
1745973311581486600,5.958486572265625,-0.3159704739324123,-0.011414003558456898,-0.0814891269887281,0.010305233299732208,-0.16152008936334222,0.9296388504562565,-0.44378011290483216,left,0.00028395652770996094,-0.6071241957492488,-2.5027313007190823,-7.655406616857648,-0.32100218760894395,-0.0013126045232638717,0.000019818544387817383,5.594772309923171,-0.001295626163482666
1745973311621486600,5.998486572265625,-0.3159704739324123,-0.019952204078435898,-0.0814891269887281,0.005251016467809677,-0.16152008936334222,0.9296388504562565,-0.44378011290483216,left,0.007580816745758057,-0.6071241957492488,-2.5027313007190823,-7.655406616857648,-0.32100218760894395,0.003953361418098211,-0.0008611977100372314,5.594772309923171,-0.00413435697555542
1745973311661486600,6.038486572265625,-0.315940725177276,-0.007786414586007595,-0.08132113430319861,0.015262479893863201,-0.16221848482872084,0.929595404201035,-0.4451535771047051,left,-0.004175901412963867,-0.6066019369851248,-2.5034108074158428,-7.658257330113649,-0.3208183485706462,0.007915542460978031,-0.0018444955348968506,5.590564921361207,0.0016182661056518555
1745973311701486600,6.078486572265625,-0.315940725177276,-0.0012181606143712997,-0.08132113430319861,0.006877581588923931,-0.16221848482872084,0.929595404201035,-0.4451535771047051,left,0.003440678119659424,-0.6066019369851248,-2.5034108074158428,-7.658257330113649,-0.3208183485706462,-0.010885714553296566,-0.004236936569213867,5.590564921361207,0.004845321178436279
1745973311741486600,6.118486572265625,-0.3153267440841338,-0.004474461078643799,-0.08089594217760325,0.013702860102057457,-0.16247601113593374,0.9295167221348776,-0.44561386184101814,left,0.0006288290023803711,-0.6071214603670538,-2.4978072883203626,-7.657030418667197,-0.3210232728801072,-0.01074752677232027,-0.0007743537425994873,5.594750098091364,0.0008854866027832031
1745973311781486600,6.158486572265625,-0.3146416416009742,-0.0008035630453377962,-0.08050106541889901,0.01748714968562126,-0.16269809876268415,0.9294911644098022,-0.44590757402389153,left,0.004563748836517334,-0.6073523724292887,-2.492161099126935,-7.657511480182409,-0.3210843176916515,0.003012624569237232,-0.0011822879314422607,5.596610046744346,-0.0006840229034423828
1745973311821486600,6.198486572265625,-0.3146416416009742,0.010402495972812176,-0.08050106541889901,-0.009306961670517921,-0.16269809876268415,0.9294911644098022,-0.44590757402389153,left,0.007444560527801514,-0.6073523724292887,-2.492161099126935,-7.657511480182409,-0.3210843176916515,0.013259496539831161,-0.0038954317569732666,5.596610046744346,-0.0008578896522521973
1745973311861486600,6.238486572265625,-0.31465705808397504,0.01633676327764988,-0.08070129086628391,-0.014868753962218761,-0.1622561658078672,0.9296041585694755,-0.44490463226020827,left,0.003102540969848633,-0.6070995411474096,-2.492716979444027,-7.658817886605858,-0.32093028897251336,-0.004353314638137817,-0.004042685031890869,5.594573572480678,0.0009429454803466797
1745973311901486600,6.278486572265625,-0.31541002752822483,0.004221942275762558,-0.08098714796049047,0.005989263765513897,-0.1619996572678536,0.9294982268095642,-0.4447671961943355,left,-0.008653402328491211,-0.6077790123598239,-2.4973031381905075,-7.653323380842805,-0.32129453492341825,-0.020088452845811844,-0.0030475854873657227,5.600045281890035,-0.003773927688598633
1745973311941486600,6.318486572265625,-0.3147684688321237,-0.004552311263978481,-0.0804975565426943,0.03815317898988724,-0.16226274929871054,0.9293744999699205,-0.4453007547131582,left,-0.002445399761199951,-0.6086119267932902,-2.4909476316839454,-7.650486111590266,-0.32164250623417456,-0.019273629412055016,-0.0017982721328735352,5.60674857892096,0.00028187036514282227
1745973311981486600,6.358486572265625,-0.3136499264289733,-0.0020999526605010033,-0.07985103829482319,0.030955124646425247,-0.16267662346101935,0.9293374389612364,-0.44586782673477804,left,0.0022936463356018066,-0.608891907834028,-2.4819042012676595,-7.651773813313246,-0.32170158682283045,-0.004010060802102089,0.00011679530143737793,5.609000741761922,0.0028406381607055664
1745973312021486600,6.398486572265625,-0.3126460057018751,0.0004618291277438402,-0.07937892807698933,0.018140725791454315,-0.16290423349645813,0.9293814073838121,-0.4459862546488391,left,0.0028978586196899414,-0.6087861435616614,-2.474403908640146,-7.654826771143078,-0.3215764945347328,0.0014653573743999004,0.0018675625324249268,5.608150262412429,0.0022791624069213867
1745973312061486600,6.438486572265625,-0.3126460057018751,-0.0061559854075312614,-0.07937892807698933,0.007885271683335304,-0.16290423349645813,0.9293814073838121,-0.4459862546488391,left,0.002510249614715576,-0.6087861435616614,-2.474403908640146,-7.654826771143078,-0.3215764945347328,-0.002239227294921875,0.002898961305618286,5.608150262412429,0.0003851652145385742
1745973312101486600,6.478486572265625,-0.3124776434037663,-0.00744986766949296,-0.07913013802856617,-0.004643292166292667,-0.16326584841897274,0.9292803214225289,-0.4467820516228609,left,0.004882454872131348,-0.6091212169865414,-2.472537237985432,-7.653454313746094,-0.3217465336848059,-0.0064734346233308315,0.0005949437618255615,5.610845492845773,0.002403080463409424
1745973312141486600,6.518486572265625,-0.3124776434037663,0.0029050330631434917,-0.07913013802856617,-0.011221342720091343,-0.16326584841897274,0.9292803214225289,-0.4467820516228609,left,0.0033344030380249023,-0.6091212169865414,-2.472537237985432,-7.653454313746094,-0.3217465336848059,-0.005456302314996719,-0.0005473494529724121,5.610845492845773,0.0032195448875427246
1745973312181486600,6.558486572265625,-0.31308014655141275,0.006039133295416832,-0.07932240374519063,-0.0050995005294680595,-0.1631427157430142,0.9291743688612965,-0.44685967225422785,left,-0.000804603099822998,-0.6097123013083233,-2.4761262023881074,-7.648806195679307,-0.32206730486931,-0.0029705753549933434,-0.001089334487915039,5.615598240330815,0.004469871520996094
1745973312221486600,6.598486572265625,-0.31308014655141275,0.007405771873891354,-0.07932240374519063,-0.005357815884053707,-0.1631427157430142,0.9291743688612965,-0.44685967225422785,left,0.0001538395881652832,-0.6097123013083233,-2.4761262023881074,-7.648806195679307,-0.32206730486931,0.0019146059639751911,-0.0019422471523284912,5.615598240330815,0.003428518772125244
1745973312261486600,6.638486572265625,-0.31308014655141275,0.002383883111178875,-0.07932240374519063,-0.00608108751475811,-0.1631427157430142,0.9291743688612965,-0.44685967225422785,left,0.0022448301315307617,-0.6097123013083233,-2.4761262023881074,-7.648806195679307,-0.32206730486931,0.011900443583726883,-0.001112431287765503,5.615598240330815,-0.00022089481353759766
1745973312301486600,6.678486572265625,-0.31344131004136183,-0.0034654010087251663,-0.07965285822818607,-0.0012852740474045277,-0.16285237400098912,0.9292743792189638,-0.44624598828462964,left,0.00020462274551391602,-0.6092100094144826,-2.4797578368887305,-7.650594248139858,-0.32184416932427834,0.013042726553976536,-0.001684337854385376,5.611559194073081,0.0004426240921020508
1745973312341486600,6.718486572265625,-0.31344131004136183,-0.001281476579606533,-0.07965285822818607,0.00810762494802475,-0.16285237400098912,0.9292743792189638,-0.44624598828462964,left,0.0019002556800842285,-0.6092100094144826,-2.4797578368887305,-7.650594248139858,-0.32184416932427834,0.008865324780344963,-0.0018833577632904053,5.611559194073081,-0.0009177923202514648
1745973312381486600,6.758486572265625,-0.31287870744669616,0.0012099212035536766,-0.07947220002333748,0.03657463192939758,-0.1630332985541524,0.9293811859078667,-0.44628528983993676,left,-0.007994651794433594,-0.6085245908146669,-2.476636489997804,-7.655645686310529,-0.32148851283742585,0.008240208961069584,-0.0007647871971130371,5.606045399087667,-0.0006286501884460449
1745973312421486600,6.798486572265625,-0.31200418318538553,0.0007434021099470556,-0.07912323268132632,0.006556708365678787,-0.16312050459527574,0.9294602077393838,-0.44611654812812296,left,0.004776060581207275,-0.6082858855017598,-2.470351126118004,-7.6590820904999966,-0.3213020239858446,0.0046008676290512085,-0.004695892333984375,5.604124660158157,0.0019540786743164062
1745973312461486600,6.838486572265625,-0.31200418318538553,0.007972264662384987,-0.07912323268132632,0.004367435351014137,-0.16312050459527574,0.9294602077393838,-0.44611654812812296,left,0.0033398866653442383,-0.6082858855017598,-2.470351126118004,-7.6590820904999966,-0.3213020239858446,0.0022807028144598007,-0.0025688111782073975,5.604124660158157,0.0014404058456420898
1745973312501486600,6.878486572265625,-0.31200418318538553,0.00813992414623499,-0.07912323268132632,0.003307197941467166,-0.16312050459527574,0.9294602077393838,-0.44611654812812296,left,0.0019594430923461914,-0.6082858855017598,-2.470351126118004,-7.6590820904999966,-0.3213020239858446,0.0001729645300656557,-0.0021179616451263428,5.604124660158157,0.00032383203506469727
1745973312541486600,6.918486572265625,-0.31138650095437637,0.006028367206454277,-0.07896444802513239,0.009191060438752174,-0.16281066433429323,0.9295445360239231,-0.44525450395176586,left,-0.0007908940315246582,-0.6083662442087424,-2.4654817665159703,-7.660177484521269,-0.32125416093656295,0.002137503819540143,-0.0013467967510223389,5.60477172589004,-0.0007800459861755371
1745973312581486600,6.958486572265625,-0.31138650095437637,0.008820271119475365,-0.07896444802513239,0.015751946717500687,-0.16281066433429323,0.9295445360239231,-0.44525450395176586,left,0.0006576180458068848,-0.6083662442087424,-2.4654817665159703,-7.660177484521269,-0.32125416093656295,0.0037773598451167345,0.00045558810234069824,5.60477172589004,0.0008234381675720215
1745973312621486600,6.998486572265625,-0.310172538389615,0.009380401112139225,-0.07854829672507595,-0.00350365974009037,-0.16256698318385843,0.9296659992946197,-0.44431557428903723,left,0.003359973430633545,-0.6083874694072969,-2.4561446138501166,-7.663051578652858,-0.32112808690830247,-0.002761746058240533,-0.000742107629776001,5.604942406281829,-0.0006965398788452148
1745973312661486600,7.038486572265625,-0.310172538389615,-0.003249349072575569,-0.07854829672507595,0.011259939521551132,-0.16256698318385843,0.9296659992946197,-0.44431557428903723,left,0.0012835860252380371,-0.6083874694072969,-2.4561446138501166,-7.663051578652858,-0.32112808690830247,-0.0022477353923022747,0.00004178285598754883,5.604942406281829,-0.0028744935989379883
1745973312701486600,7.078486572265625,-0.310172538389615,-0.003330664476379752,-0.07854829672507595,0.0012152530252933502,-0.16256698318385843,0.9296659992946197,-0.44431557428903723,left,0.002192080020904541,-0.6083874694072969,-2.4561446138501166,-7.663051578652858,-0.32112808690830247,-0.00371227553114295,-0.0007970631122589111,5.604942406281829,0.0021677613258361816
1745973312741486600,7.118486572265625,-0.310172538389615,0.006764005869626999,-0.07854829672507595,0.003716094419360161,-0.16256698318385843,0.9296659992946197,-0.44431557428903723,left,0.001157522201538086,-0.6083874694072969,-2.4561446138501166,-7.663051578652858,-0.32112808690830247,-0.0009237073827534914,-0.0016802549362182617,5.604942406281829,0.002441585063934326
1745973312781486600,7.158486572265625,-0.30926327479512156,0.00476995250210166,-0.07813533912787932,0.0070326924324035645,-0.16251048232454682,0.9296826276094198,-0.4439632073279404,left,0.002385735511779785,-0.6087584974412503,-2.448542614413798,-7.663300000455975,-0.32120910368858635,-0.005212950520217419,-0.000693008303642273,5.607927559572458,0.0006372928619384766
1745973312821486600,7.198486572265625,-0.3088998840925957,-0.010657716542482376,-0.07791339163681076,0.012212732806801796,-0.16267102093498237,0.9296629760046581,-0.44420750975595996,left,0.0009322166442871094,-0.6088677233231443,-2.445571489648521,-7.663606289926171,-0.32123874031939004,0.004414244554936886,-0.001118496060371399,5.608806095972657,-0.00010734796524047852
1745973312861486600,7.238486572265625,-0.3089055425354897,-0.015105972066521645,-0.07784871109361753,0.00205122958868742,-0.1630199620772097,0.9296497213456474,-0.44488620269282164,left,0.00410008430480957,-0.6085379203452768,-2.446177054326236,-7.665354010376333,-0.32111570179901666,0.002930685877799988,-0.001675426959991455,5.606152951115369,0.0049898624420166016
1745973312901486600,7.278486572265625,-0.3090106953325369,-0.0022801486775279045,-0.07784765298874165,0.0015270515577867627,-0.16319328132694766,0.9296265497663746,-0.4452736610228276,left,0.0018506050109863281,-0.6084409612786972,-2.447148529706895,-7.665614707139134,-0.32109524487763624,0.0008259094320237637,-0.0005652010440826416,5.605372614392638,0.0034353137016296387
1745973312941486600,7.318486572265625,-0.3090106953325369,0.0011311371345072985,-0.07784765298874165,0.0034318347461521626,-0.16319328132694766,0.9296265497663746,-0.4452736610228276,left,0.0014233589172363281,-0.6084409612786972,-2.447148529706895,-7.665614707139134,-0.32109524487763624,-0.0023058168590068817,-0.0013295412063598633,5.605372614392638,0.00014156103134155273
1745973312981486600,7.358486572265625,-0.3090106953325369,0.002547804731875658,-0.07784765298874165,0.0007029671687632799,-0.16319328132694766,0.9296265497663746,-0.4452736610228276,left,0.003311455249786377,-0.6084409612786972,-2.447148529706895,-7.665614707139134,-0.32109524487763624,-0.013878990896046162,-0.00040471553802490234,5.605372614392638,0.0012021064758300781
1745973313021486600,7.398486572265625,-0.30907297380215903,-0.004951315000653267,-0.07771201307932417,-0.0006471610395237803,-0.1632159729787618,0.9294802512989985,-0.44555550496755725,left,0.0007455945014953613,-0.6093833154562582,-2.4460179182417687,-7.660426490846276,-0.3215396829337214,-0.004069375805556774,-0.00009115040302276611,5.612953278779983,0.00027054548263549805
1745973313061486600,7.438486572265625,-0.30907297380215903,-0.002841766458004713,-0.07771201307932417,-0.004151748027652502,-0.1632159729787618,0.9294802512989985,-0.44555550496755725,left,0.0027540922164916992,-0.6093833154562582,-2.4460179182417687,-7.660426490846276,-0.3215396829337214,0.007715991698205471,-0.0009322017431259155,5.612953278779983,0.0019066333770751953
1745973313101486600,7.478486572265625,-0.30907297380215903,0.012065036222338676,-0.07771201307932417,-0.00466472702100873,-0.1632159729787618,0.9294802512989985,-0.44555550496755725,left,0.002805948257446289,-0.6093833154562582,-2.4460179182417687,-7.660426490846276,-0.3215396829337214,0.012859180569648743,-0.003209933638572693,5.612953278779983,0.0005066394805908203
1745973313141486600,7.518486572265625,-0.30907297380215903,0.01128053106367588,-0.07771201307932417,0.014443648979067802,-0.1632159729787618,0.9294802512989985,-0.44555550496755725,left,-0.005637705326080322,-0.6093833154562582,-2.4460179182417687,-7.660426490846276,-0.3215396829337214,0.00021469686180353165,-0.0012860745191574097,5.612953278779983,-0.0004845261573791504
1745973313181486600,7.558486572265625,-0.30907297380215903,0.0010418379679322243,-0.07771201307932417,-0.004890035837888718,-0.1632159729787618,0.9294802512989985,-0.44555550496755725,left,0.0026075243949890137,-0.6093833154562582,-2.4460179182417687,-7.660426490846276,-0.3215396829337214,-0.00564101617783308,-0.0017871707677841187,5.612953278779983,0.0015875697135925293
1745973313221486600,7.598486572265625,-0.30892206778000114,0.005730351898819208,-0.07774211468770954,0.0016900813207030296,-0.16296331606579892,0.9295387254601308,-0.444953531538307,left,0.0016527175903320312,-0.6093559523065097,-2.444908641825616,-7.660942039152979,-0.3214915409945587,0.0003116130828857422,0.00009991228580474854,5.612732914027571,0.00243455171585083
1745973313261486600,7.638486572265625,-0.30892206778000114,0.006229790858924389,-0.07774211468770954,-0.0048339650966227055,-0.16296331606579892,0.9295387254601308,-0.444953531538307,left,0.004605591297149658,-0.6093559523065097,-2.444908641825616,-7.660942039152979,-0.3214915409945587,0.0023016133345663548,-0.0004958212375640869,5.612732914027571,0.0008709430694580078
1745973313301486600,7.678486572265625,-0.30892383267848444,0.0009726034477353096,-0.07781448859825009,-0.00018845032900571823,-0.16265909315208948,0.9295616216794198,-0.44434594292533475,left,-0.0000947713851928711,-0.6095626040190514,-2.4445694729991256,-7.659832616606354,-0.32156198627417043,-0.0022706007584929466,-0.0009916573762893677,5.61439470975995,-0.0006203651428222656
1745973313341486600,7.718486572265625,-0.30892383267848444,-0.00040116801392287016,-0.07781448859825009,0.00027111932286061347,-0.16265909315208948,0.9295616216794198,-0.44434594292533475,left,0.0010514259338378906,-0.6095626040190514,-2.4445694729991256,-7.659832616606354,-0.32156198627417043,-0.011503071524202824,-0.0012077242136001587,5.61439470975995,0.002706468105316162
1745973313381486600,7.758486572265625,-0.3092127128820228,0.0003735765931196511,-0.07781590828997384,-0.006882073823362589,-0.16263617044280917,0.9294335890374685,-0.44456879335749694,left,0.00493776798248291,-0.6103298349390588,-2.4454705134920776,-7.655020247888564,-0.3219429269580946,-0.0019131628796458244,-0.001505821943283081,5.620562000218033,-0.0006326436996459961
1745973313421486600,7.798486572265625,-0.3092127128820228,0.00008830492151901126,-0.07781590828997384,-0.0016267639584839344,-0.16263617044280917,0.9294335890374685,-0.44456879335749694,left,0.002041161060333252,-0.6103298349390588,-2.4454705134920776,-7.655020247888564,-0.3219429269580946,-0.00045222765766084194,-0.001958101987838745,5.620562000218033,0.00044471025466918945
1745973313461486600,7.838486572265625,-0.3092127128820228,-0.008303253911435604,-0.07781590828997384,-0.006794207729399204,-0.16263617044280917,0.9294335890374685,-0.44456879335749694,left,-0.0009034872055053711,-0.6103298349390588,-2.4454705134920776,-7.655020247888564,-0.3219429269580946,-0.000829805270768702,-0.0037383437156677246,5.620562000218033,0.00242537260055542
1745973313501486600,7.878486572265625,-0.3092127128820228,-0.01785896345973015,-0.07781590828997384,0.010118003003299236,-0.16263617044280917,0.9294335890374685,-0.44456879335749694,left,-0.00009417533874511719,-0.6103298349390588,-2.4454705134920776,-7.655020247888564,-0.3219429269580946,0.011186279356479645,-0.001392453908920288,5.620562000218033,0.0005266666412353516
1745973313541486600,7.918486572265625,-0.3099461546500476,-0.017693256959319115,-0.07802372332588668,0.0024549742229282856,-0.16329222056997145,0.9293910840489452,-0.44604810201313755,left,0.0051615238189697266,-0.609500619240418,-2.452505380564928,-7.657661117786168,-0.32168342077786455,0.019242653623223305,-0.00046506524085998535,5.613896697109937,0.0023759007453918457
1745973313581486600,7.958486572265625,-0.310271488425489,-0.011128975078463554,-0.07819691037601981,-0.004589144606143236,-0.16358060719136042,0.9294440751542042,-0.44658812359994093,left,0.0035971403121948242,-0.6086429473372309,-2.4564655163675546,-7.66144472797811,-0.32134134777461415,0.013575099408626556,-0.001399695873260498,5.606998169767857,0.002656400203704834
1745973313621486600,7.998486572265625,-0.310271488425489,-0.007396916393190622,-0.07819691037601981,-0.00725799473002553,-0.16358060719136042,0.9294440751542042,-0.44658812359994093,left,0.0024966001510620117,-0.6086429473372309,-2.4564655163675546,-7.66144472797811,-0.32134134777461415,0.005198191851377487,-0.003153294324874878,5.606998169767857,0.0011377334594726562
1745973313661486600,8.038486572265626,-0.3109574903094407,-0.0036283188965171576,-0.07850229532957238,-0.0023317718878388405,-0.16367340534167416,0.9294323762411626,-0.4469465669336011,left,-0.00002491474151611328,-0.6082951486071969,-2.462317165005207,-7.6616136548042295,-0.32125345612040923,0.0029659715946763754,-0.0012149512767791748,5.604199478960037,0.0009776949882507324
1745973313701486600,8.078486572265625,-0.3109574903094407,-0.002474428154528141,-0.07850229532957238,0.00038372399285435677,-0.16367340534167416,0.9294323762411626,-0.4469465669336011,left,0.00023686885833740234,-0.6082951486071969,-2.462317165005207,-7.6616136548042295,-0.32125345612040923,0.004465137608349323,-0.001744389533996582,5.604199478960037,0.001102745532989502
1745973313741486600,8.118486572265626,-0.3109574903094407,0.0020566238090395927,-0.07850229532957238,-0.008018091320991516,-0.16367340534167416,0.9294323762411626,-0.4469465669336011,left,0.0012163519859313965,-0.6082951486071969,-2.462317165005207,-7.6616136548042295,-0.32125345612040923,0.008947344496846199,-0.0027462244033813477,5.604199478960037,-0.000966489315032959
1745973313781486600,8.158486572265625,-0.3114312556035229,0.0031632082536816597,-0.07882121095206134,-0.01402602344751358,-0.16361543026636652,0.9295046791970492,-0.44684043337775675,left,0.0038890838623046875,-0.6076521674857093,-2.467050623267889,-7.663875169995427,-0.3209958124646079,0.008730961009860039,-0.0023818016052246094,5.599023537626862,-0.003512442111968994
1745973313821486600,8.198486572265624,-0.3114312556035229,0.005055244546383619,-0.07882121095206134,-0.005411459133028984,-0.16361543026636652,0.9295046791970492,-0.44684043337775675,left,0.0012194514274597168,-0.6076521674857093,-2.467050623267889,-7.663875169995427,-0.3209958124646079,-0.011750338599085808,-0.0007116496562957764,5.599023537626862,-0.002107858657836914
1745973313861486600,8.238486572265625,-0.3120821361957266,0.004907848313450813,-0.07899570131469276,-0.0029682323802262545,-0.16344375616148288,0.9293553596059211,-0.44690502403695415,left,0.005809366703033447,-0.608577519800228,-2.4704461109250784,-7.657333201006055,-0.321472109642561,-0.027577104046940804,-0.0035326480865478516,5.606471515545248,-0.005424857139587402
1745973313901486600,8.278486572265624,-0.31220944773366743,0.0033765186090022326,-0.0789610771488063,0.012041764333844185,-0.16340654562198015,0.9292641619140968,-0.44700675890414876,left,-0.006794989109039307,-0.6091864407754336,-2.470372168906033,-7.653768786522746,-0.321763163050999,-0.00925762951374054,-0.0036264359951019287,5.611369808980823,-0.0020697712898254395
1745973313941486600,8.318486572265625,-0.31220944773366743,0.006196409929543734,-0.0789610771488063,0.011651414446532726,-0.16340654562198015,0.9292641619140968,-0.44700675890414876,left,-0.0008190274238586426,-0.6091864407754336,-2.470372168906033,-7.653768786522746,-0.321763163050999,0.0011998694390058517,-0.003285825252532959,5.611369808980823,0.003270745277404785
1745973313981486600,8.358486572265624,-0.31121454655397374,0.00376788224093616,-0.07860923298853763,0.015399141237139702,-0.1634025883791918,0.9293803456126525,-0.446579651295977,left,0.0019484162330627441,-0.608857859625653,-2.463320496828854,-7.657977928650379,-0.3215157500718532,0.011879059486091137,-0.00013333559036254883,5.608727185517549,0.0016789436340332031
1745973314021486600,8.398486572265625,-0.31121454655397374,-0.0034370652865618467,-0.07860923298853763,-0.0006431639194488525,-0.1634025883791918,0.9293803456126525,-0.446579651295977,left,0.0036995410919189453,-0.608857859625653,-2.463320496828854,-7.657977928650379,-0.3215157500718532,0.006912426091730595,-0.00110548734664917,5.608727185517549,-0.0021938681602478027
1745973314061486600,8.438486572265624,-0.31132400856852843,-0.006746931932866573,-0.07868725839290908,-0.00677867978811264,-0.16355254509901018,0.9294228501475142,-0.44682257617877696,left,0.00336611270904541,-0.6083367358975779,-2.4650538964927193,-7.660489034688473,-0.3212974481205865,0.0021075778640806675,-0.0015158355236053467,5.604533825480938,-0.0006935000419616699
1745973314101486600,8.478486572265625,-0.31132400856852843,-0.006803097203373909,-0.07868725839290908,-0.004912731237709522,-0.16355254509901018,0.9294228501475142,-0.44682257617877696,left,0.0011205673217773438,-0.6083367358975779,-2.4650538964927193,-7.660489034688473,-0.3212974481205865,0.0003432052908465266,-0.0023165643215179443,5.604533825480938,-0.0003522634506225586
1745973314141486600,8.518486572265624,-0.31132400856852843,-0.0027623679488897324,-0.07868725839290908,-0.0022862351033836603,-0.16355254509901018,0.9294228501475142,-0.44682257617877696,left,0.003331482410430908,-0.6083367358975779,-2.4650538964927193,-7.660489034688473,-0.3212974481205865,-0.00008100963896140456,-0.004336506128311157,5.604533825480938,0.0003141164779663086
1745973314181486600,8.558486572265625,-0.3114432797020196,-0.004047797992825508,-0.07871271224417249,0.011457670480012894,-0.16384409569021977,0.9294327483225588,-0.4473842071582419,left,0.0006273984909057617,-0.6078629570659285,-2.4667808664157986,-7.662721908307075,-0.32111401157925684,0.00921095721423626,-0.002800196409225464,5.600720989194512,-0.0004381537437438965
1745973314221486600,8.598486572265625,-0.3114432797020196,-0.009994098916649818,-0.07871271224417249,0.0021453993394970894,-0.16384409569021977,0.9294327483225588,-0.4473842071582419,left,0.002153158187866211,-0.6078629570659285,-2.4667808664157986,-7.662721908307075,-0.32111401157925684,0.011360330507159233,-0.0036287009716033936,5.600720989194512,-0.0033542513847351074
1745973314261486600,8.638486572265625,-0.3114982230070197,-0.005162416025996208,-0.07878889199078049,0.0024116039276123047,-0.16417675006936258,0.9295209026263633,-0.44788613058190213,left,0.0018424391746520996,-0.6068318899468287,-2.4689704854145647,-7.668079051426052,-0.32066974566219114,0.0070970747619867325,-0.002691119909286499,5.592417855751514,-0.0008305907249450684
1745973314301486600,8.678486572265625,-0.3114982230070197,0.006106201559305191,-0.07878889199078049,0.005206631496548653,-0.16417675006936258,0.9295209026263633,-0.44788613058190213,left,0.0006769299507141113,-0.6068318899468287,-2.4689704854145647,-7.668079051426052,-0.32066974566219114,-0.008670281618833542,-0.0018987953662872314,5.592417855751514,0.0006660223007202148
1745973314341486600,8.718486572265626,-0.3112026514789889,0.0035038976930081844,-0.0785421554373202,0.009772643446922302,-0.16422748178896582,0.9294353036831797,-0.4480427280536568,left,-0.001329958438873291,-0.6074938057112099,-2.4655697370603677,-7.665282698705792,-0.32095242370117766,-0.02748221345245838,-0.00010558962821960449,5.597748695385456,0.0005826354026794434
1745973314381486600,8.758486572265625,-0.31101895960490117,-0.0015120357275009155,-0.07824316729817744,0.008405382744967937,-0.1643297551061254,0.9292611015938856,-0.4484594404474111,left,0.0023909807205200195,-0.6086456760505893,-2.462186816623807,-7.659591793587803,-0.3214770456555678,-0.027922874316573143,0.0014163553714752197,5.607019797077775,0.0012761950492858887
1745973314421486600,8.798486572265626,-0.3109220637981559,0.00005493452772498131,-0.07805828189930347,-0.0005998993292450905,-0.1644366488446722,0.9291519192911787,-0.4488053089618912,left,0.006922662258148193,-0.6093066785939499,-2.460310209096968,-7.656300350826978,-0.32178286193448236,-0.005343446508049965,-0.00148850679397583,5.6123366081863635,0.0025565028190612793
1745973314461486600,8.838486572265625,-0.3109220637981559,0.01275479793548584,-0.07805828189930347,-0.014659058302640915,-0.1644366488446722,0.9291519192911787,-0.4488053089618912,left,0.0035515427589416504,-0.6093066785939499,-2.460310209096968,-7.656300350826978,-0.32178286193448236,0.00994869414716959,-0.004814624786376953,5.6123366081863635,0.004725754261016846
1745973314501486600,8.878486572265626,-0.3113056147321519,0.018121404573321342,-0.07846334346824108,-0.020211128517985344,-0.16382227414915554,0.92926629602803,-0.44756674185156853,left,0.0012614727020263672,-0.6090897921029244,-2.4636194797754287,-7.6565148703604935,-0.32166735309599465,0.013058839365839958,-0.005781412124633789,5.610592394867539,0.0016933679580688477
1745973314541486600,8.918486572265625,-0.31156263468148127,0.007403126917779446,-0.07869345892656986,0.002341417595744133,-0.16348225913999315,0.92931535071888,-0.4469138297483689,left,-0.003772258758544922,-0.6090450817199835,-2.465664137345552,-7.656119733563065,-0.3216424169585086,0.0026009203866124153,-0.0025652647018432617,5.6102329139053815,-0.0023990273475646973
1745973314581486600,8.958486572265626,-0.31156263468148127,0.0021055429242551327,-0.07869345892656986,0.022575421258807182,-0.16348225913999315,0.92931535071888,-0.4469138297483689,left,-0.0005723834037780762,-0.6090450817199835,-2.465664137345552,-7.656119733563065,-0.3216424169585086,0.0019077023025602102,-0.001103818416595459,5.6102329139053815,-0.0028839111328125
1745973314621486600,8.998486572265625,-0.3104234248716806,0.008313290774822235,-0.07818243218018116,0.014589973725378513,-0.16356623604708354,0.929363110896239,-0.4467224195629631,left,0.004820108413696289,-0.6091430722347114,-2.456772682620585,-7.658400537976622,-0.321586297116795,0.0005098338006064296,-0.0013810694217681885,5.61102084941268,-0.001487135887145996
1745973314661486600,9.038486572265626,-0.3104234248716806,0.010703891515731812,-0.07818243218018116,0.019899336621165276,-0.16356623604708354,0.929363110896239,-0.4467224195629631,left,-0.0071332454681396484,-0.6091430722347114,-2.456772682620585,-7.658400537976622,-0.321586297116795,-0.012699252925813198,0.0010094791650772095,5.61102084941268,-0.001998722553253174
1745973314701486600,9.078486572265625,-0.30935065986179555,0.0033951271325349808,-0.07758855576792816,0.007593197748064995,-0.16347536117619738,0.9292833932909499,-0.44641291424670504,left,0.0013052821159362793,-0.6102869942459549,-2.4465998097829518,-7.654912695860863,-0.32200634889479623,-0.019509807229042053,-0.0014303475618362427,5.6202177168250085,0.0005498528480529785
1745973314741486600,9.118486572265626,-0.30905143076041236,0.01579340174794197,-0.0774047917521519,0.005672373343259096,-0.16336644254461619,0.9292333297684962,-0.4462115712112395,left,0.0010135173797607422,-0.6108953593520576,-2.443268911794573,-7.652385807731747,-0.32225049491814417,-0.006661505438387394,-0.0012662559747695923,5.625106073388457,0.004673182964324951
1745973314781486600,9.158486572265625,-0.308223234155077,0.02260037511587143,-0.07713840166215966,0.007261896971613169,-0.16300143483546628,0.9293036953333804,-0.4452138369533927,left,0.001538097858428955,-0.6112296821468554,-2.436359716928005,-7.6526143557906146,-0.3222962937578338,-0.000005381647497415543,-0.0014266669750213623,5.6277907824277875,0.003225088119506836
1745973314821486600,9.198486572265624,-0.308223234155077,0.009282918646931648,-0.07713840166215966,0.00966204795986414,-0.16300143483546628,0.9293036953333804,-0.4452138369533927,left,0.0004553794860839844,-0.6112296821468554,-2.436359716928005,-7.6526143557906146,-0.3222962937578338,-0.004008781164884567,-0.00022242963314056396,5.6277907824277875,0.00019466876983642578
1745973314861486600,9.238486572265625,-0.308223234155077,-0.00031154416501522064,-0.07713840166215966,0.00054921954870224,-0.16300143483546628,0.9293036953333804,-0.4452138369533927,left,0.00403064489364624,-0.6112296821468554,-2.436359716928005,-7.6526143557906146,-0.3222962937578338,-0.0073630656115710735,-0.0007875412702560425,5.6277907824277875,0.0030813217163085938
1745973314901486600,9.278486572265624,-0.30772226456624546,0.0011116857640445232,-0.07686402791500024,-0.008757172152400017,-0.16282060540601181,0.9292490010474991,-0.4448332740561003,left,0.008170604705810547,-0.612043622041582,-2.4311374522350726,-7.649466120892763,-0.3226107361286136,-0.0037154133897274733,-0.002861037850379944,5.634326321676373,0.003304719924926758
1745973314941486600,9.318486572265625,-0.30772226456624546,0.006131861824542284,-0.07686402791500024,0.0007685655727982521,-0.16282060540601181,0.9292490010474991,-0.4448332740561003,left,0.0005667805671691895,-0.612043622041582,-2.4311374522350726,-7.649466120892763,-0.3226107361286136,0.005063222721219063,-0.0023667365312576294,5.634326321676373,0.0021291375160217285
1745973314981486600,9.358486572265624,-0.30772226456624546,-0.0010030679404735565,-0.07686402791500024,0.002459288574755192,-0.16282060540601181,0.9292490010474991,-0.4448332740561003,left,0.0015103816986083984,-0.612043622041582,-2.4311374522350726,-7.649466120892763,-0.3226107361286136,0.004130329936742783,-0.0018462836742401123,5.634326321676373,-0.00046193599700927734
1745973315021486600,9.398486572265625,-0.30772226456624546,0.008000955916941166,-0.07686402791500024,-0.007334967143833637,-0.16282060540601181,0.9292490010474991,-0.4448332740561003,left,0.004622280597686768,-0.612043622041582,-2.4311374522350726,-7.649466120892763,-0.3226107361286136,0.00007127784192562103,-0.0009250640869140625,5.634326321676373,0.004848599433898926
1745973315061486600,9.438486572265624,-0.3079745154321635,0.02334010787308216,-0.07720716076456022,-0.03352970629930496,-0.16212919945262338,0.9293530833328989,-0.4434327758211399,left,0.0052193403244018555,-0.6120433969268375,-2.433067251253873,-7.648853541952371,-0.32257718313241124,0.015888242051005363,-0.0008620172739028931,5.634323983588814,0.0015616416931152344
1745973315101486600,9.478486572265625,-0.3087511110966494,0.019339241087436676,-0.07780212118646687,-0.032618481665849686,-0.16138905561778072,0.9294487701191059,-0.4420809978940744,left,-0.0014609098434448242,-0.6119158970147431,-2.439224897100776,-7.647645919728278,-0.3225296594772254,0.008065203204751015,-0.0007336437702178955,5.633301070281862,-0.0025232434272766113
1745973315141486600,9.518486572265624,-0.3095649187929721,0.005033800378441811,-0.07824426757437557,-0.01589054800570011,-0.1609751341301146,0.929434993420225,-0.4415200494818615,left,-0.00199127197265625,-0.6121266840634654,-2.4450860442191362,-7.644527495446801,-0.3226691822814788,-0.002833835780620575,-0.0007946789264678955,5.634992676630616,-0.0010396838188171387
1745973315181486600,9.558486572265625,-0.3095649187929721,0.003472583368420601,-0.07824426757437557,0.00017534568905830383,-0.1609751341301146,0.929434993420225,-0.4415200494818615,left,-0.001258552074432373,-0.6121266840634654,-2.4450860442191362,-7.644527495446801,-0.3226691822814788,-0.005550382658839226,-0.0029127001762390137,5.634992676630616,0.0012166500091552734
1745973315221486600,9.598486572265625,-0.3095649187929721,0.002947567030787468,-0.07824426757437557,0.005761813838034868,-0.1609751341301146,0.929434993420225,-0.4415200494818615,left,0.001782834529876709,-0.6121266840634654,-2.4450860442191362,-7.644527495446801,-0.3226691822814788,-0.000011964701116085052,-0.0037071406841278076,5.634992676630616,0.0019956231117248535
1745973315261486600,9.638486572265625,-0.3095649187929721,-0.00401579774916172,-0.07824426757437557,0.002344203880056739,-0.1609751341301146,0.929434993420225,-0.4415200494818615,left,0.0017111897468566895,-0.6121266840634654,-2.4450860442191362,-7.644527495446801,-0.3226691822814788,0.0010548545978963375,-0.003680884838104248,5.634992676630616,0.000013113021850585938
1745973315301486600,9.678486572265625,-0.3095649187929721,-0.012413153424859047,-0.07824426757437557,0.006966797634959221,-0.1609751341301146,0.929434993420225,-0.4415200494818615,left,0.00046539306640625,-0.6121266840634654,-2.4450860442191362,-7.644527495446801,-0.3226691822814788,-0.006078892853111029,-0.002537339925765991,5.634992676630616,0.0006263852119445801
1745973315341486600,9.718486572265626,-0.3098843883538588,-0.010801265947520733,-0.07819431804226727,0.012791338376700878,-0.16137059180849805,0.9293058599680099,-0.4425418064609203,left,-0.0001976490020751953,-0.6123927949394724,-2.4470707882955667,-7.642318002703785,-0.32285581125556223,0.00010430440306663513,-0.0026839375495910645,5.637128519615531,0.0008321404457092285
1745973315381486600,9.758486572265625,-0.3098843883538588,-0.006021110340952873,-0.07819431804226727,0.013796824961900711,-0.16137059180849805,0.9293058599680099,-0.4425418064609203,left,-0.00019478797912597656,-0.6123927949394724,-2.4470707882955667,-7.642318002703785,-0.32285581125556223,0.0038904789835214615,-0.0011050105094909668,5.637128519615531,-0.0008814334869384766
1745973315421486600,9.798486572265626,-0.3093688672786594,-0.0052148462273180485,-0.07787523539463939,0.01809605211019516,-0.16182915575926365,0.9293066693310705,-0.44327928327244487,left,0.003327012062072754,-0.6120797549317372,-2.4436677018538115,-7.645258147808909,-0.322700715455542,-0.003931919112801552,-0.0009958744049072266,5.634616244533658,-0.000552058219909668
1745973315461486600,9.838486572265625,-0.30906892369755096,-0.005373855121433735,-0.07766109071683254,0.012510386295616627,-0.1621052967478788,0.9292826075999182,-0.4437634904117642,left,0.0000027418136596679688,-0.6120532686571172,-2.4414199229270217,-7.64613317707777,-0.32268319256808004,0.0019216989167034626,-0.0007613301277160645,5.634403478565812,-0.002064943313598633
1745973315501486600,9.878486572265626,-0.3084983899077196,-0.0011683222837746143,-0.0773478691952147,0.019752448424696922,-0.16232241088643254,0.9292786440827454,-0.44403915608485606,left,-0.002365291118621826,-0.6120822077235094,-2.4370076594427226,-7.647369440874457,-0.3226607452296455,-0.004460329655557871,-0.0018954575061798096,5.6346355337560174,0.00201570987701416
1745973315541486600,9.918486572265625,-0.3084983899077196,-0.0018819279503077269,-0.0773478691952147,0.008821719326078892,-0.16232241088643254,0.9292786440827454,-0.44403915608485606,left,0.0017250776290893555,-0.6120822077235094,-2.4370076594427226,-7.647369440874457,-0.3226607452296455,-0.010351506993174553,-0.0004061758518218994,5.6346355337560174,0.0013496875762939453
1745973315581486600,9.958486572265626,-0.308005933790026,-0.007984702475368977,-0.076948035214564,0.015842311084270477,-0.16261998053716978,0.9291731591768491,-0.4446400026858,left,0.0010998249053955078,-0.6126682625197352,-2.4322398605190214,-7.645420644894242,-0.32291022633540584,-0.015016861259937286,0.0006053447723388672,5.639338596880435,0.0006684660911560059
1745973315621486600,9.998486572265625,-0.3076776537239107,-0.006847372278571129,-0.0766359245142647,0.015010220929980278,-0.162952186564361,0.9290801158718561,-0.4453271645629748,left,0.001397550106048584,-0.6130526506962635,-2.4290732131816446,-7.644152232393622,-0.32308455363952754,-0.004638854414224625,0.0012910515069961548,5.642421949848532,0.0018756985664367676
1745973315661486600,10.038486572265626,-0.3071268751556304,0.002683202736079693,-0.07634765181258993,0.00661398284137249,-0.16311341188649034,0.9290818991820485,-0.4454927384625131,left,0.006909668445587158,-0.6130974280090634,-2.424786183512211,-7.645248210936784,-0.3230663309609962,0.0044080475345253944,-0.0013186931610107422,5.64278143081069,0.0031630992889404297
1745973315701486600,10.078486572265625,-0.3071451752832111,0.014756335876882076,-0.0764513074171929,-0.014210173860192299,-0.16287612366626072,0.9291347412477302,-0.4449694868819637,left,0.005120992660522461,-0.6130133470997392,-2.425069530498236,-7.645656207215786,-0.32300962282694073,0.003788435598835349,-0.005782619118690491,5.642106892549991,0.001713395118713379
1745973315741486600,10.118486572265626,-0.3080075542204543,0.015340724028646946,-0.07695364516346541,-0.020194854587316513,-0.16243451046773158,0.9291514625781369,-0.44432342020722165,left,-0.0017347931861877441,-0.6130342959328802,-2.431626258665323,-7.643449052560329,-0.32306451277996967,-0.0031275346409529448,-0.006950318813323975,5.6422746503323316,0.0007274150848388672
1745973315781486600,10.158486572265625,-0.30816213693292926,0.01909361593425274,-0.07705855299236551,0.004595983773469925,-0.1620256504419087,0.9291213364793168,-0.443635681433768,left,-0.004106044769287109,-0.6136522308095981,-2.4317497389145193,-7.6397490289986125,-0.32333134396215973,-0.011532469652593136,-0.008913561701774597,5.647230226913094,0.0019916296005249023
1745973315821486600,10.198486572265624,-0.30742399679333715,0.011361723765730858,-0.07675158249670615,0.028582999482750893,-0.16182370398352208,0.9291366795284329,-0.4430487872723243,left,-0.00479358434677124,-0.6141196024207541,-2.425310938038677,-7.63902597542107,-0.32346137946578035,-0.0026367465034127235,-0.004517003893852234,5.650977012225985,-0.002346634864807129
1745973315861486600,10.238486572265625,-0.3062448167160285,-0.007852286100387573,-0.07615432651225659,0.03744697570800781,-0.1620477066298048,0.9291414544604044,-0.4431726282252626,left,-0.0005398392677307129,-0.6143529912411816,-2.4159037888765336,-7.640622889223694,-0.32347669293071313,-0.014012391678988934,0.00004999339580535889,5.652846897751092,-0.0047386884689331055
1745973315901486600,10.278486572265624,-0.30568718035320497,-0.03548170626163483,-0.07555086807870141,0.04105033725500107,-0.16285981926456589,0.9289516047350923,-0.4448545700255519,left,0.00012046098709106445,-0.6149256805850115,-2.4106680801801383,-7.638879844948649,-0.32375541252227497,-0.032318178564310074,0.004398971796035767,5.657435394585132,-0.003404855728149414
1745973315941486600,10.318486572265625,-0.3056751282054004,-0.02666012942790985,-0.07513103512601488,0.022379454225301743,-0.16382362396719027,0.9287112502805425,-0.44703390049280844,left,0.004641830921173096,-0.6154097088721275,-2.409751695987582,-7.636296842718124,-0.3240563683765566,-0.021230634301900864,0.004568040370941162,5.661311943757534,0.004470467567443848
1745973315981486600,10.358486572265624,-0.3056751282054004,0.005699828267097473,-0.07513103512601488,-0.007380478084087372,-0.16382362396719027,0.9287112502805425,-0.44703390049280844,left,0.007023811340332031,-0.6154097088721275,-2.409751695987582,-7.636296842718124,-0.3240563683765566,-0.00340951606631279,0.0008149892091751099,5.661311943757534,0.006823182106018066
1745973316021486600,10.398486572265625,-0.3056751282054004,0.017142200842499733,-0.07513103512601488,-0.01675036922097206,-0.16382362396719027,0.9287112502805425,-0.44703390049280844,left,0.002072155475616455,-0.6154097088721275,-2.409751695987582,-7.636296842718124,-0.3240563683765566,0.005980764515697956,-0.0010504871606826782,5.661311943757534,0.002687513828277588
1745973316061486600,10.438486572265624,-0.3061251812792597,0.0006604883819818497,-0.07539478121943051,-0.009352227672934532,-0.1634871038328512,0.9287069347466173,-0.4465173588287205,left,-0.0019469857215881348,-0.6156379459406505,-2.4127986624680458,-7.633979213425516,-0.32417740649622667,0.008439481258392334,-0.001984894275665283,5.663139159184694,-0.0011414289474487305
1745973316101486600,10.478486572265625,-0.3061251812792597,-0.005923811346292496,-0.07539478121943051,-0.008857576176524162,-0.1634871038328512,0.9287069347466173,-0.4465173588287205,left,0.00026673078536987305,-0.6156379459406505,-2.4127986624680458,-7.633979213425516,-0.32417740649622667,0.017528166994452477,-0.003269106149673462,5.663139159184694,0.001607656478881836
1745973316141486600,10.518486572265624,-0.3067777939984052,-0.004172768909484148,-0.07584310987659967,-0.00670589180663228,-0.16349932808850667,0.9288306890233087,-0.4465152268174163,left,0.0016440749168395996,-0.6144950254310743,-2.4197331379063427,-7.638568294781446,-0.32371163067615744,0.020345160737633705,-0.0034973174333572388,5.653985546392202,0.0003172159194946289
1745973316181486600,10.558486572265625,-0.30710381138597875,-0.011201471090316772,-0.07607170926357186,0.008325247094035149,-0.16365086968308704,0.9289167968290982,-0.4467511847267342,left,0.0014504194259643555,-0.6135855980048037,-2.4237768603391943,-7.642677483665943,-0.3233341803994295,0.014335652813315392,-0.001226857304573059,5.646695973905921,0.00014495849609375
1745973316221486600,10.598486572265625,-0.3073088477339655,-0.0014629904180765152,-0.07618391585849116,0.0014298390597105026,-0.1638353860296267,0.9289546079680291,-0.44709236882025766,left,0.00404125452041626,-0.6130174232962664,-2.426313977601379,-7.64523710502088,-0.3231058389816717,0.010913270525634289,-0.0037590712308883667,5.642139625775814,0.0046805739402771
1745973316261486600,10.638486572265625,-0.3073088477339655,0.009722153656184673,-0.07618391585849116,0.007426542229950428,-0.1638353860296267,0.9289546079680291,-0.44709236882025766,left,-0.005870640277862549,-0.6130174232962664,-2.426313977601379,-7.64523710502088,-0.3231058389816717,0.015486625023186207,-0.004796966910362244,5.642139625775814,0.0017974376678466797
1745973316301486600,10.678486572265625,-0.3063792296166079,0.006646808236837387,-0.0759846279688109,0.015268969349563122,-0.163683723459819,0.9291587142157941,-0.446267332913705,left,0.0005474686622619629,-0.6122339748966559,-2.420538316809386,-7.6517013325989245,-0.32264240041842146,0.020019393414258957,-0.005046561360359192,5.635853677374124,-0.00026029348373413086
1745973316341486600,10.718486572265626,-0.3057961729595655,-0.0015902286395430565,-0.0758685319309162,0.015124648809432983,-0.16373355757552632,0.9293149688282751,-0.44598068403777696,left,0.002511322498321533,-0.6113763892592974,-2.4175306594260038,-7.657717816409468,-0.32219405756269265,0.02323923073709011,-0.00209103524684906,5.628969178557395,-0.00041484832763671875
1745973316381486600,10.758486572265625,-0.3050065260258154,-0.001568861654959619,-0.0756683517175726,0.021925590932369232,-0.16386653925018874,0.9294967179239769,-0.4457615840014457,left,0.0019367337226867676,-0.6103368371767908,-2.4132388074509796,-7.665201450163125,-0.3216485469200672,0.02465996891260147,0.0001535862684249878,5.620618114319443,-0.001400768756866455
1745973316421486600,10.798486572265626,-0.30444892746671653,-0.009604413993656635,-0.07551126749159895,0.015000060200691223,-0.1640622292607853,0.9296247660534285,-0.44579946824934263,left,-0.00021851062774658203,-0.6094812461148487,-2.410404899199307,-7.671130840212106,-0.3212152381321965,0.013453599996864796,0.00021952390670776367,5.613740629765391,-0.0024913549423217773
1745973316461486600,10.838486572265625,-0.3041385656340959,-0.011339221149682999,-0.0753666655699571,0.011416506953537464,-0.16434148851267483,0.9296674359738271,-0.4461849026826353,left,-0.0010012388229370117,-0.6089944964273527,-2.4088420337967573,-7.674484826815128,-0.3209829281676112,0.002190791070461273,0.0002126842737197876,5.60982608667016,-0.0008344650268554688
1745973316501486600,10.878486572265626,-0.3040024741993908,-0.0014453362673521042,-0.0752423535722724,0.002327696420252323,-0.16456986394137169,0.9296453743955411,-0.44661519309174225,left,0.00702357292175293,-0.6089312762261307,-2.4079038761638105,-7.675151181769371,-0.32095916357152793,-0.004375465214252472,-0.00170038640499115,5.609317552626132,0.00031495094299316406
1745973316541486600,10.918486572265625,-0.3040024741993908,0.00955283734947443,-0.0752423535722724,0.0007734061218798161,-0.16456986394137169,0.9296453743955411,-0.44661519309174225,left,0.0022922754287719727,-0.6089312762261307,-2.4079038761638105,-7.675151181769371,-0.32095916357152793,-0.004507261794060469,-0.0004092603921890259,5.609317552626132,0.00023567676544189453
1745973316581486600,10.958486572265626,-0.3039043573085458,0.012736343778669834,-0.07525801204947485,-0.01439504325389862,-0.1642173136408452,0.9296545447224508,-0.4459131543950509,left,0.0031961798667907715,-0.6093379063406495,-2.406467998141795,-7.673210569095611,-0.321109594605872,-0.005134269595146179,-0.0030213892459869385,5.612587952598929,-0.0009465813636779785
1745973316621486600,10.998486572265625,-0.30411106968833657,0.012704595923423767,-0.07539217422130949,-0.008243950083851814,-0.16386424039313338,0.9296375052666837,-0.4453242846750406,left,-0.00011593103408813477,-0.6097851056763842,-2.4073022570088503,-7.670317185741663,-0.32130775087296026,-0.00858059898018837,-0.0020680874586105347,5.616183931264281,0.00006592273712158203
1745973316661486600,11.038486572265626,-0.30411106968833657,0.004737683571875095,-0.07539217422130949,-0.001030320767313242,-0.16386424039313338,0.9296375052666837,-0.4453242846750406,left,0.001924753189086914,-0.6097851056763842,-2.4073022570088503,-7.670317185741663,-0.32130775087296026,-0.016490252688527107,-0.0027221590280532837,5.616183931264281,-0.0007826089859008789
1745973316701486600,11.078486572265625,-0.3045046933973884,-0.00804015714675188,-0.07538707510682252,0.0019278069958090782,-0.16378788935799343,0.9294500957966829,-0.4455602402313365,left,-0.000052869319915771484,-0.6109732124879671,-2.4083188867054877,-7.662997218117117,-0.3218891809829038,-0.0297990795224905,-0.001897186040878296,5.625730927288532,0.0005831122398376465
1745973316741486600,11.118486572265626,-0.3048210206983275,-0.018249735236167908,-0.07523561987461587,0.014224718324840069,-0.16414915932467958,0.9292244561484625,-0.44666068059597475,left,-0.0006874203681945801,-0.6119311433246784,-2.4091245039999483,-7.6570917934656135,-0.32239195398738546,-0.020776163786649704,-0.0013362914323806763,5.6334232353568074,0.0019092559814453125
1745973316781486600,11.158486572265625,-0.30507998996770763,-0.014071171171963215,-0.07515853978964386,0.005624987185001373,-0.1645971420711178,0.9291031107386397,-0.44775239430641367,left,0.002903461456298828,-0.6120996405458914,-2.4108219555675983,-7.655561515158414,-0.3225308994684669,0.0020556673407554626,-0.0005121678113937378,5.634775819009542,0.00408625602722168
1745973316821486600,11.198486572265624,-0.30524103921714213,0.010249645449221134,-0.07530571858150213,-0.01566140539944172,-0.16460959110750337,0.9291678982830588,-0.4477176947148079,left,0.00718379020690918,-0.611573712929183,-2.412945377462357,-7.657998971438407,-0.3223038210164578,0.0176616869866848,-0.0009153187274932861,5.630553817400336,0.006483912467956543
1745973316861486600,11.238486572265625,-0.3057436891893907,0.01883154921233654,-0.07575560998139075,-0.03182440996170044,-0.1640941485028721,0.9292851316565615,-0.4466924774973123,left,0.0021662116050720215,-0.6111700977941132,-2.4174780524559316,-7.658951157596707,-0.3221230063241281,0.01810489594936371,-0.0048058778047561646,5.627312643522024,0.0011605620384216309
1745973316901486600,11.278486572265624,-0.3063038095582394,0.007613745518028736,-0.07619070896285397,-0.015034075826406479,-0.16364170983464,0.9293723043049267,-0.4458451904220179,left,-0.0015543699264526367,-0.6108669208767102,-2.422281945606321,-7.659222375753521,-0.3219989275148146,0.013945214450359344,-0.00522245466709137,5.624877525329589,-0.0033017992973327637
1745973316941486600,11.318486572265625,-0.30669588712305806,-0.0034205084666609764,-0.07641594860849879,0.0009111817926168442,-0.16357730381032254,0.9293961912267887,-0.4457838645823995,left,0.003262460231781006,-0.6106048604520073,-2.425729747972637,-7.659677133783697,-0.3219095167801428,0.004714262671768665,-0.0019520074129104614,5.622772077482939,-0.0019847750663757324
1745973316981486600,11.358486572265624,-0.30669588712305806,-0.012233415618538857,-0.07641594860849879,0.008007017895579338,-0.16357730381032254,0.9293961912267887,-0.4457838645823995,left,0.001717209815979004,-0.6106048604520073,-2.425729747972637,-7.659677133783697,-0.3219095167801428,-0.0009929160587489605,-0.0018258243799209595,5.622772077482939,-0.001563429832458496
1745973317021486600,11.398486572265625,-0.30684234496698043,-0.013630948960781097,-0.07636122733034444,0.013806338422000408,-0.16404590555206475,0.929346868893477,-0.44677746343310665,left,-0.0034046173095703125,-0.6103117624061594,-2.427349165868014,-7.660892354792356,-0.3218262637391771,-0.010353028774261475,-0.0015864521265029907,5.620417038789391,0.000795900821685791
1745973317061486600,11.438486572265624,-0.30700424693321743,-0.014377041719853878,-0.0762242366723142,0.015318239107728004,-0.16454815496754036,0.9292210387234706,-0.44795463609228303,left,0.0013682842254638672,-0.6104910704077049,-2.428284985413402,-7.659539186617732,-0.32196591875251895,-0.009322233498096466,0.0004971027374267578,5.6218578852474685,0.0004063248634338379
1745973317101486600,11.478486572265625,-0.30669526823498444,-0.008088119328022003,-0.0759590503132912,0.0298223327845335,-0.164965709183369,0.9291727832982679,-0.4487383409527688,left,-0.0050193071365356445,-0.6104554653464433,-2.4259786081671715,-7.660479682338237,-0.32195411332408885,0.001557065173983574,0.0010048747062683105,5.621571469521522,-0.00013828277587890625
1745973317141486600,11.518486572265624,-0.3059559427837058,-0.005283732432872057,-0.07561127445997654,0.01117953471839428,-0.16525182602391547,0.9292192791713513,-0.44902458731194017,left,0.0026777982711791992,-0.6101270712674475,-2.4208701791122555,-7.6640306528180835,-0.3217547380559462,0.008353191427886486,-0.0021713078022003174,5.618932353189587,-0.0011613965034484863
1745973317181486600,11.558486572265625,-0.3059559427837058,-0.0037879301235079765,-0.07561127445997654,0.0022896239534020424,-0.16525182602391547,0.9292192791713513,-0.44902458731194017,left,0.0004715919494628906,-0.6101270712674475,-2.4208701791122555,-7.6640306528180835,-0.3217547380559462,0.0012563299387693405,-0.0025579482316970825,5.618932353189587,0.00007456541061401367
1745973317221486600,11.598486572265625,-0.30622728148352496,-0.011050228029489517,-0.07569373859858362,-0.001013667555525899,-0.1654744210391938,0.9292053943050397,-0.4495310961281116,left,0.0034750699996948242,-0.6098296113634608,-2.4234534736037254,-7.664967056885361,-0.32166114826851433,0.002880900399759412,-0.0044040679931640625,5.616541658660769,-0.002675294876098633
1745973317261486600,11.638486572265625,-0.30622728148352496,-0.007735949009656906,-0.07569373859858362,0.0037790678907185793,-0.1654744210391938,0.9292053943050397,-0.4495310961281116,left,0.0024864673614501953,-0.6098296113634608,-2.4234534736037254,-7.664967056885361,-0.32166114826851433,0.0002505425363779068,-0.00387418270111084,5.616541658660769,0.0015268325805664062
1745973317301486600,11.678486572265625,-0.30622728148352496,0.006348638795316219,-0.07569373859858362,0.013368912041187286,-0.1654744210391938,0.9292053943050397,-0.4495310961281116,left,0.000010728836059570312,-0.6098296113634608,-2.4234534736037254,-7.664967056885361,-0.32166114826851433,-0.004328080918639898,-0.00260046124458313,5.616541658660769,0.0023265480995178223
1745973317341486600,11.718486572265626,-0.3057357785213753,0.0034099407494068146,-0.0753788864089018,0.011815570294857025,-0.16565406654643855,0.9291595409892198,-0.44981835516471835,left,0.003169834613800049,-0.6101459215483659,-2.419150954104215,-7.664462614494561,-0.32177503973268956,-0.00891860295087099,-0.0015059858560562134,5.619083744359016,0.0005057454109191895
1745973317381486600,11.758486572265625,-0.30542318799041396,-0.007306783460080624,-0.0751362841782104,0.012998300604522228,-0.16583725535003807,0.9291014476467698,-0.4501746729852652,left,-0.0007380843162536621,-0.6104601666102374,-2.4162239607416094,-7.663534393733739,-0.3219053021010272,-0.006853577680885792,-0.0002304166555404663,5.621609463444352,0.00008040666580200195
1745973317421486600,11.798486572265626,-0.30542318799041396,-0.005593466572463512,-0.0751362841782104,0.0024672159925103188,-0.16583725535003807,0.9291014476467698,-0.4501746729852652,left,0.0013301372528076172,-0.6104601666102374,-2.4162239607416094,-7.663534393733739,-0.3219053021010272,-0.005190589465200901,-0.001537606120109558,5.621609463444352,0.002592146396636963
1745973317461486600,11.838486572265625,-0.30542318799041396,0.004408414475619793,-0.0751362841782104,-0.0014468557201325893,-0.16583725535003807,0.9291014476467698,-0.4501746729852652,left,0.002057790756225586,-0.6104601666102374,-2.4162239607416094,-7.663534393733739,-0.3219053021010272,-0.0035949405282735825,-0.0019730329513549805,5.621609463444352,0.0034826993942260742
1745973317501486600,11.878486572265626,-0.30518232522777716,0.005385510623455048,-0.07493737991549859,0.0035359617322683334,-0.16588960702444633,0.9290340016534478,-0.4503164487429821,left,0.002947688102722168,-0.6109636591743882,-2.41352726900354,-7.661415501883625,-0.3221193838239056,-0.004669255577027798,-0.00144881010055542,5.625654354920983,-0.0000013113021850585938
1745973317541486600,11.918486572265625,-0.30505884768098745,-0.003527345135807991,-0.07477397357133954,0.0071664368733763695,-0.1659665207600369,0.9289507069239541,-0.4505571209806829,left,0.0014533400535583496,-0.6114911462961369,-2.411689678312838,-7.658881599491834,-0.3223577881330825,-0.01656283810734749,-0.0007067769765853882,5.629890969577431,-0.0004099607467651367
1745973317581486600,11.958486572265626,-0.3050238002147801,-0.0039925300516188145,-0.07453715809762933,0.012315710075199604,-0.16617979840711664,0.9287811802708964,-0.4512069606677553,left,0.0015398859977722168,-0.6123977931956402,-2.4098873050659892,-7.654094365215301,-0.322790938480554,-0.026606794446706772,-0.0012473911046981812,5.6371682671040295,0.0035486221313476562
1745973317621486600,11.998486572265625,-0.3049491092968965,0.0007832525297999382,-0.07430632984793896,0.0054843793623149395,-0.16632867700589943,0.9286256182028385,-0.45170444529732284,left,0.0038110017776489258,-0.61330399426611,-2.407780834306031,-7.649398316353559,-0.32321474661864774,-0.018656091764569283,-0.0016322731971740723,5.644437965846062,0.0054416656494140625
1745973317661486600,12.038486572265626,-0.30482389438150526,0.008039236068725586,-0.07418747281676875,-0.0024031675420701504,-0.16624844069428407,0.9285620347479268,-0.45161868278380535,left,0.004139542579650879,-0.6138874470797956,-2.4058342302829026,-7.646557539969682,-0.32346603812529356,-0.005051149986684322,-0.0018385499715805054,5.649115894529223,0.005636811256408691
1745973317701486600,12.078486572265625,-0.30482389438150526,-0.00027037039399147034,-0.07418747281676875,-0.0012754456838592887,-0.16624844069428407,0.9285620347479268,-0.45161868278380535,left,0.00026607513427734375,-0.6138874470797956,-2.4058342302829026,-7.646557539969682,-0.32346603812529356,0.008202390745282173,-0.002360805869102478,5.649115894529223,0.002524077892303467
1745973317741486600,12.118486572265626,-0.30482389438150526,-0.01034183893352747,-0.07418747281676875,0.0014020452508702874,-0.16624844069428407,0.9285620347479268,-0.45161868278380535,left,-0.0008411407470703125,-0.6138874470797956,-2.4058342302829026,-7.646557539969682,-0.32346603812529356,0.02021479420363903,-0.0026366710662841797,5.649115894529223,0.001530766487121582
1745973317781486600,12.158486572265625,-0.3052646908333633,-0.01628098078072071,-0.07450164823973221,0.0043625724501907825,-0.1664841155612519,0.9286853560609413,-0.45198433857845116,left,-0.0002917051315307617,-0.6125689126154727,-2.411440964248776,-7.652593313002586,-0.32291768668960585,0.026819271966814995,-0.0011980235576629639,5.638541309022903,-0.0003273487091064453
1745973317821486600,12.198486572265624,-0.3056324361429392,-0.014143353328108788,-0.07472593344676585,0.001983086345717311,-0.16674680282694995,0.928762516234655,-0.45245196851899366,left,0.0007883310317993164,-0.6115611085467906,-2.415963556239754,-7.6571210195600985,-0.32250813935756284,0.013630131259560585,-0.000837668776512146,5.63045269511342,-0.0009249448776245117
1745973317861486600,12.238486572265625,-0.30596824362082575,-0.011017423123121262,-0.07489899153274045,-0.001656361622735858,-0.16694317920143378,0.9287984194176735,-0.45284932695683644,left,0.0010584592819213867,-0.6109274852421784,-2.4196090731352564,-7.65971045153141,-0.3222632403592549,0.011796812526881695,-0.0018794238567352295,5.625363847541808,-0.002641916275024414
1745973317901486600,12.278486572265624,-0.30596824362082575,-0.004727451130747795,-0.07489899153274045,0.00023176474496722221,-0.16694317920143378,0.9287984194176735,-0.45284932695683644,left,0.00018090009689331055,-0.6109274852421784,-2.4196090731352564,-7.65971045153141,-0.3222632403592549,0.004533200990408659,-0.0011944174766540527,5.625363847541808,-0.0021386146545410156
1745973317941486600,12.318486572265625,-0.3060864611016525,0.004357986152172089,-0.07496668471371855,0.0033446461893618107,-0.167074829023735,0.9288252083469289,-0.4530849749007697,left,0.0022788643836975098,-0.6105314784360507,-2.4211856748022136,-7.661547603830694,-0.32210209795275957,0.0002938280813395977,-0.0011842846870422363,5.622182294896245,-0.001915276050567627
1745973317981486600,12.358486572265624,-0.3060864611016525,0.002542346715927124,-0.07496668471371855,0.002592940116301179,-0.167074829023735,0.9288252083469289,-0.4530849749007697,left,-0.004404246807098389,-0.6105314784360507,-2.4211856748022136,-7.661547603830694,-0.32210209795275957,0.00718015618622303,-0.002229243516921997,5.622182294896245,-0.004556715488433838
1745973318021486600,12.398486572265625,-0.3060864611016525,0.0025840895250439644,-0.07496668471371855,-0.0014801111537963152,-0.167074829023735,0.9288252083469289,-0.4530849749007697,left,-0.00005459785461425781,-0.6105314784360507,-2.4211856748022136,-7.661547603830694,-0.32210209795275957,0.006848755292594433,-0.0032696574926376343,5.622182294896245,-0.0006676316261291504
1745973318061486600,12.438486572265624,-0.3062296832233148,0.006859478075057268,-0.07522258648238847,-0.008488408289849758,-0.16689912164801243,0.9289694686133408,-0.4525698802659897,left,0.0035150647163391113,-0.6097004348108034,-2.4236906433604655,-7.665653285583853,-0.32171728124847804,0.0149575499817729,-0.0016935467720031738,5.615502963262796,-0.00005888938903808594
1745973318101486600,12.478486572265625,-0.3062336714658533,0.0074398331344127655,-0.07539408088483442,-0.0014167348854243755,-0.16668637723839566,0.9290935316141264,-0.4519817587827061,left,0.0024625062942504883,-0.6091138112545778,-2.424713848928362,-7.668782815781236,-0.3214289974551718,0.008999424055218697,-0.0015340149402618408,5.610785871613025,-0.00018131732940673828
1745973318141486600,12.518486572265624,-0.3062336714658533,0.004542051814496517,-0.07539408088483442,-0.0005554283270612359,-0.16668637723839566,0.9290935316141264,-0.4519817587827061,left,0.0005794167518615723,-0.6091138112545778,-2.424713848928362,-7.668782815781236,-0.3214289974551718,-0.007945194840431213,-0.0022216737270355225,5.610785871613025,0.0005823373794555664
1745973318181486600,12.558486572265625,-0.3060974054522507,0.008997597731649876,-0.07532110991550227,-0.0020733545534312725,-0.1664509426111999,0.9290562947958557,-0.4515627616579489,left,-0.0009360909461975098,-0.6097162394283133,-2.4226499021358787,-7.665888847905397,-0.3216755518937989,-0.014124542474746704,-0.004428759217262268,5.615629804512858,0.0028322935104370117
1745973318221486600,12.598486572265625,-0.306021409405068,0.010850878432393074,-0.07522320460486766,-0.0022307420149445534,-0.16623301931762186,0.9289726037167982,-0.4512619119007634,left,0.0006867051124572754,-0.6105849613361327,-2.420596622867882,-7.661418424493074,-0.3220525464989018,-0.02026611752808094,-0.003122091293334961,5.622611918485164,0.0029293298721313477
1745973318261486600,12.638486572265625,-0.3059529366917098,0.0022778520360589027,-0.07509036351864308,0.014158478938043118,-0.16617566468174944,0.9288754138229044,-0.4512852853298649,left,-0.004146575927734375,-0.6113462871884111,-2.4187821207918225,-7.657500374266505,-0.3223935069545334,-0.012699348852038383,-0.0010008513927459717,5.628727771016955,-0.0008625388145446777
1745973318301486600,12.678486572265625,-0.30558982274839247,-0.0009332227054983377,-0.07484566840599703,0.01002156175673008,-0.16632064320484435,0.9288321341595315,-0.45153433621138017,left,-0.0003649592399597168,-0.6116271949118934,-2.415525457083434,-7.656869675147533,-0.32250024820169376,-0.002578519284725189,-0.00159473717212677,5.630982856467366,0.0005713701248168945
1745973318341486600,12.718486572265626,-0.30558982274839247,0.0036883533466607332,-0.07484566840599703,-0.0015512220561504364,-0.16632064320484435,0.9288321341595315,-0.45153433621138017,left,-0.00021135807037353516,-0.6116271949118934,-2.415525457083434,-7.656869675147533,-0.32250024820169376,0.0060533806681632996,-0.0005896091461181641,5.630982856467366,0.0000864863395690918
1745973318381486600,12.758486572265625,-0.30558982274839247,0.006961653009057045,-0.07484566840599703,-0.00611911853775382,-0.16632064320484435,0.9288321341595315,-0.45153433621138017,left,0.0011172294616699219,-0.6116271949118934,-2.415525457083434,-7.656869675147533,-0.32250024820169376,0.002029858063906431,-0.0007049739360809326,5.630982856467366,-0.00054931640625
1745973318421486600,12.798486572265626,-0.30558982274839247,0.0033673483412712812,-0.07484566840599703,-0.0029888770077377558,-0.16632064320484435,0.9288321341595315,-0.45153433621138017,left,0.0021065473556518555,-0.6116271949118934,-2.415525457083434,-7.656869675147533,-0.32250024820169376,0.000312149990350008,-0.0013015121221542358,5.630982856467366,-0.0019418597221374512
1745973318461486600,12.838486572265625,-0.30558982274839247,-0.0019407004583626986,-0.07484566840599703,-0.0017796221654862165,-0.16632064320484435,0.9288321341595315,-0.45153433621138017,left,0.0015433430671691895,-0.6116271949118934,-2.415525457083434,-7.656869675147533,-0.32250024820169376,-0.00894741527736187,-0.0018186718225479126,5.630982856467366,0.000589907169342041
1745973318501486600,12.878486572265626,-0.30627910172128014,-0.0017715163994580507,-0.07510480678283799,-0.0011316012823954225,-0.1662702546988988,0.9287595774231704,-0.45171969624813285,left,0.000594794750213623,-0.6118701226396828,-2.4203901405103503,-7.653898550382256,-0.3226748369741092,-0.004535411484539509,-0.002643480896949768,5.63293340601325,0.0022739171981811523
1745973318541486600,12.918486572265625,-0.3067477980657561,-0.0022080019116401672,-0.0753278428798938,-0.003578102681785822,-0.16628968985960363,0.9287594478683391,-0.4518718553547243,left,0.0013203620910644531,-0.6116362123121619,-2.4243751184932885,-7.6540189618915315,-0.3226132985666761,0.016247667372226715,-0.0030220597982406616,5.631055337181687,-0.0008192062377929688
1745973318581486600,12.958486572265626,-0.30688162801925695,-0.00034788239281624556,-0.07552234063560462,-0.0023219967260956764,-0.16624584369537732,0.9288702069626278,-0.4516534010760252,left,0.0015839934349060059,-0.6108770980290965,-2.42668997130692,-7.657767500770092,-0.3222714526214221,0.020104071125388145,-0.0026001185178756714,5.624959358394146,-0.0002593398094177246
1745973318621486600,12.998486572265625,-0.30688162801925695,-0.004952182527631521,-0.07552234063560462,-0.005223000422120094,-0.16624584369537732,0.9288702069626278,-0.4516534010760252,left,0.0012087821960449219,-0.6108770980290965,-2.42668997130692,-7.657767500770092,-0.3222714526214221,0.00929815974086523,-0.002497538924217224,5.624959358394146,-0.0038396716117858887
1745973318661486600,13.038486572265626,-0.30761943991214247,-0.021031012758612633,-0.07585740888987748,-0.00002462649717926979,-0.1664943137648265,0.9288837384390827,-0.4522802990126737,left,0.001304030418395996,-0.6101475904796736,-2.43358119212538,-7.659883470010757,-0.32202527389719054,0.0006262613460421562,-0.0018748044967651367,5.6190971883624785,-0.0038543343544006348
1745973318701486600,13.078486572265625,-0.3084257892530931,-0.02038179151713848,-0.07609350928598184,0.005553669296205044,-0.1669928878858796,0.928811223945371,-0.4535245896747352,left,0.0007104873657226562,-0.6096647443472252,-2.4405801111020144,-7.660503063213825,-0.32192052087298034,0.00026980682741850615,-0.0017730295658111572,5.61521596301496,-0.0005745291709899902
1745973318741486600,13.118486572265626,-0.3088018838176458,-0.005027436651289463,-0.07618711787728813,0.000042926985770463943,-0.1673159715017516,0.928774142072753,-0.45427960417480295,left,0.003432035446166992,-0.6093499136539401,-2.4439982489824295,-7.661268202367425,-0.3218377392891066,-0.0022968691773712635,-0.0020886659622192383,5.612684398710727,0.0030437707901000977
