time,seconds_elapsed,roll,rotationRateZ,quaternionY,rotationRateY,quaternionZ,quaternionW,yaw,devicelocation,accelerationZ,pitch,gravityX,gravityZ,quaternionX,rotationRateX,accelerationX,gravityY,accelerationY
1746232736817171000,0.2241708984375,-0.7054962344211455,0.0009082804899662733,-0.2567844378313715,0.0002559651620686054,-5.013347550236482e-18,0.8737394892949103,-0.31157331432371005,right,0.14643573760986328,-0.8064880821042388,-4.400492967006564,-5.166549235451221,-0.41308723011175297,-0.0007841000333428383,0.8192797303199768,7.07904056109786,0.12782853841781616
1746232736857171000,0.2641708984375,0.31376153758758496,0.004121752455830574,0.022014765172900515,-0.006322636269032955,0.10961046163556436,0.8486511546255204,0.4418699095420504,right,0.08365875482559204,-1.0606730990645825,1.4778972548380493,-4.554663830281794,-0.517003032641515,-0.003488725982606411,0.21904176473617554,8.558110074585676,-0.022491812705993652
1746232736897171000,0.3041708984375,0.7186231476955639,0.003710236167535186,0.1141605115568014,-0.00914276298135519,0.14402043274342718,0.8217853808667791,0.76249125711654,right,0.01178044080734253,-1.022801279277671,3.3635300919145346,-3.8456396548748013,-0.5393462113732558,-0.002579291583970189,0.026317089796066284,8.37066968665421,-0.0036661624908447266
1746232736937171000,0.3441708984375,0.7692202415103008,0.004744182340800762,0.12664464993576288,-0.008003625087440014,0.14881617129395316,0.817361701460514,0.8018384876945256,right,0.0008211731910705566,-1.0127335351664026,3.612158815780282,-3.7309658124685283,-0.5419730831489841,-0.018822701647877693,0.0018138289451599121,8.318809735557437,0.003615438938140869
1746232736977171000,0.3841708984375,0.7715042462460415,0.005344823934137821,0.12700037531671576,0.003790617920458317,0.14903127359592874,0.8170536743224228,0.803915314810826,right,0.002019256353378296,-1.012793738183267,3.6203219562306996,-3.7223473294660447,-0.5422951396914241,-0.020013298839330673,0.0011566579341888428,8.319122454768419,0.004410088062286377
1746232737017171000,0.4241708984375,0.7728943754049667,0.007667709141969681,0.1270660214810273,0.0056374710984528065,0.14906942323906386,0.816784687263258,0.8052623727479459,right,-0.0005128085613250732,-1.0133573588268965,3.6222178529798983,-3.713952718347311,-0.542674248652025,-0.01759300008416176,-0.0008998215198516846,8.3220479868263,0.005971431732177734
1746232737057171000,0.4641708984375,0.7742268197728583,0.0023409053683280945,0.12716554073521127,0.004046809859573841,0.14909078304370535,0.8165423480525055,0.8064776541815554,right,0.0006898939609527588,-1.0138295118253884,3.6244159475460647,-3.706313601770997,-0.5430096916041878,0.0023309271782636642,0.003248661756515503,8.324496549022196,0.0027403831481933594
1746232737097171000,0.5041708984375,0.7742370824909822,0.00025316886603832245,0.12720953346896027,0.005752043332904577,0.14900597916027356,0.8165498917050367,0.8062982812166288,right,-0.0007127225399017334,-1.0138661595037124,3.6242408832401036,-3.7060587502270934,-0.5430113580337513,0.0020334976725280285,0.00207480788230896,8.324686518636346,0.005806863307952881
1746232737137171000,0.5441708984375,0.7745216422606884,-0.004727404564619064,0.1272298957858701,0.0027795906644314528,0.1488409308484428,0.8164765583056871,0.8063083470413112,right,0.00023409724235534668,-1.0142488407718386,3.6230659942418333,-3.7027486027657983,-0.5431619614721582,-0.0012369020842015743,0.001760631799697876,8.326669216886163,0.0018707513809204102
1746232737177171000,0.5841708984375,0.7748244343442381,-0.005003674887120724,0.12729674622978676,0.007963720709085464,0.14869870960108061,0.8164236812393688,0.8063025226276604,right,-0.00014033913612365723,-1.0144888575568651,3.622789223127067,-3.700224052724242,-0.5432647876675168,0.002518303692340851,0.000948101282119751,8.327912494945526,0.0003674030303955078
1746232737217171000,0.6241708984375,0.7748533522237827,0.00047410139814019203,0.12731324966391133,-0.0022910097613930702,0.14866565011558294,0.8164208547760634,0.8062584024569194,right,-0.001802295446395874,-1.0145188058217898,3.622721710848808,-3.6999408518686887,-0.5432742038992542,-0.0023506777361035347,0.0008814632892608643,8.328067393246293,0.0019488930702209473
1746232737257171000,0.6641708984375,0.775493554428467,0.006831739097833633,0.12736414409317104,0.0018381043337285519,0.14886660815615135,0.8163298234982246,0.8071197756069408,right,0.0011497735977172852,-1.01442199748501,3.6256545494303105,-3.698196930810809,-0.543344096323796,-0.005319518968462944,0.002590388059616089,8.327566457986832,0.0017077922821044922
1746232737297171000,0.7041708984375,0.7756394149979398,0.005545441061258316,0.12741159389779094,0.002492339350283146,0.14889666878997013,0.8163236471606133,0.8072404429360709,right,-0.0013968348503112793,-1.0143370074441016,3.6266897376969456,-3.6981738421961663,-0.543334058671059,-0.0047239926643669605,0.0013401806354522705,8.327126313003896,0.002551853656768799
1746232737337171000,0.7441708984375,0.7761462631997316,0.003403651062399149,0.12743494715850595,-0.005808270536363125,0.1490437609596211,0.8162421792860219,0.8079293746870624,right,-0.00011137127876281738,-1.0143219838542916,3.6286516854196784,-3.6964246604412794,-0.5434106517799902,-0.004867427051067352,0.0016126930713653564,8.327048571592568,0.0016412734985351562
1746232737377171000,0.7841708984375,0.7766880752842089,0.0017477012006565928,0.12745531785540248,0.0008160285651683807,0.14907668653964065,0.8161375230378273,0.8084887415289204,right,-0.001027435064315796,-1.0145218825180802,3.6294857981562614,-3.693269411280751,-0.5435538731291035,-0.008097421377897263,0.002601802349090576,8.328083759859204,0.002804279327392578
1746232737417171000,0.8241708984375,0.7767795021244145,-0.005447116680443287,0.1274123183262507,-0.003232361748814583,0.1489794013311728,0.8160858694690881,0.8084988774323012,right,-0.0012380778789520264,-1.0148401544689818,3.6279651644602415,-3.691047059056163,-0.5436681715972648,-0.00810942891985178,0.0005541443824768066,8.32973152706623,0.0018194913864135742
1746232737457171000,0.8641708984375,0.7768391005641162,0.000008121132850646973,0.1273707977169612,0.005748891271650791,0.14887329550889594,0.8160407388216505,0.8084620773311753,right,0.0001907050609588623,-1.015151433883628,3.626367666135728,-3.6889819432199,-0.543774728489775,-0.0012102136388421059,0.0026288628578186035,8.331341884872316,0.00238192081451416
1746232737497171000,0.9041708984375,0.7778055179362213,0.0033791321329772472,0.1275539727912931,0.00453029852360487,0.14875341717123464,0.8158998715672141,0.8089814929313651,right,-0.0023030340671539307,-1.0154379600640975,3.628255379578471,-3.683774145443737,-0.5439758947988269,-0.015427961014211178,0.002298980951309204,8.332823647862673,0.004140317440032959
1746232737537171000,0.9441708984375,0.7785395063167219,0.002257451880723238,0.1276063499860924,-0.00013594003394246101,0.1487967999703803,0.8157697850303376,0.8097013204211665,right,-0.0007520318031311035,-1.0156478948299859,3.6297295437842605,-3.6798645707845687,-0.5441468077374274,-0.011561553925275803,0.0022335052490234375,8.33390910501182,0.003386259078979492
1746232737577171000,0.9841708984375,0.7788499877981389,0.0005495429504662752,0.12754443232180748,-0.0027824898716062307,0.1488775065028008,0.8156839996713985,0.810220693195534,right,-0.00016608834266662598,-1.0158414486961325,3.6297391883954404,-3.6775896115899083,-0.5442678847143292,-0.008348130621016026,0.00254705548286438,8.334909221965074,0.004208028316497803
1746232737617171000,1.0241708984375,0.7788585159722786,-0.01298034843057394,0.12730108446793723,-0.0024901479482650757,0.14880481659196462,0.8155618131595123,0.8104769346967533,right,-0.0005607306957244873,-1.0165666623488776,3.625523616527021,-3.673255966299772,-0.5445277880456926,-0.01897188276052475,0.0023717880249023438,8.338654253712296,0.005033135414123535
1746232737657171000,1.0641708984375,0.778896717456626,-0.040170200169086456,0.12702987399797325,0.0016039405018091202,0.14851290161897768,0.8153933607201757,0.810479436752557,right,-0.00023725628852844238,-1.0177382495563803,3.6187992767080663,-3.6661630854293703,-0.544923047862426,-0.03747733309864998,-0.00021594762802124023,8.344695287442207,0.005894124507904053
1746232737697171000,1.1041708984375,0.7789073852211467,-0.05590037256479263,0.12618664555267542,-0.004004820715636015,0.14774406857504238,0.8149085938595891,0.8105844572204738,right,-0.0010851621627807617,-1.021090110346607,3.5991681090429424,-3.646196986721456,-0.5460518552088025,-0.061134397983551025,0.0006813108921051025,8.361915302312374,0.0012838244438171387
1746232737737171000,1.1441708984375,0.7785599278367509,-0.02540579065680504,0.12523875600226467,-0.01220092922449112,0.1470428862145719,0.814459459084682,0.810584696749342,right,0.0002568364143371582,-1.0243890153527724,3.578509936417639,-3.6277892233714457,-0.5471284020746758,-0.02295849844813347,0.0015094280242919922,8.378771160045266,-0.0011437535285949707
1746232737777171000,1.1841708984375,0.7777212291735285,0.003151245415210724,0.12502974658108312,-0.01320988405495882,0.14709985554117394,0.8145507405946997,0.8101368739449305,right,0.0008519589900970459,-1.0243478360589868,3.5757077384784814,-3.6310347811639305,-0.5470249679166245,0.01477610319852829,0.0015416145324707031,8.378561316686868,-0.001014113426208496
1746232737817171000,1.2241708984375,0.7769440041953894,0.02254539728164673,0.12513163384042866,-0.011817012913525105,0.1474835277835188,0.8148138376971231,0.8097796138099634,right,0.00025069713592529297,-1.0230344381743048,3.5805975563466546,-3.641657297465205,-0.546506383727813,0.02686516009271145,0.00045350193977355957,8.371860942265391,-0.000298917293548584
1746232737857171000,1.2641708984375,0.7770330350519176,0.030471939593553543,0.12547037195555072,0.004604334942996502,0.14813640478629553,0.8150332988824041,0.8103389010873212,right,0.0026418566703796387,-1.0211701265159778,3.5918586628124114,-3.6524598465085027,-0.5459245061968383,0.013204178772866726,0.0019798874855041504,8.362325052157043,0.0038347840309143066
1746232737897171000,1.3041708984375,0.7778230223329298,0.01885005459189415,0.12577712068082678,0.007271628826856613,0.14831659357770025,0.815026493745022,0.8109457797421401,right,0.00043588876724243164,-1.020554188363378,3.5983565003991127,-3.6532901598528027,-0.5458151418448786,0.008331813849508762,0.0011605620384216309,8.359168049430847,0.0038449764251708984
1746232737937171000,1.3441708984375,0.7781893643987163,0.004924604669213295,0.1259582056393381,0.002430697437375784,0.14843863304640656,0.8150459069513551,0.8112274223137124,right,-0.0013203918933868408,-1.0201097489989943,3.602303484459221,-3.6546181935861703,-0.5457113371480354,0.0036058686673641205,0.0018704533576965332,8.35688841406107,0.004744887351989746
1746232737977171000,1.3841708984375,0.7785560758131433,-0.0028161760419607162,0.12606630519328507,0.008240142837166786,0.1483685256635325,0.815007429910398,0.8113319608331072,right,0.0009641945362091064,-1.0201618875603158,3.603335457855463,-3.652984747165441,-0.5457626815700957,-0.002324096392840147,0.0012579560279846191,8.357156125086545,0.00417935848236084
1746232738017171000,1.4241708984375,0.7785223507386089,-0.0007268909830600023,0.12610267517253892,0.001876485999673605,0.14819907378603236,0.815010185799537,0.810994942704012,right,-0.0016748309135437012,-1.0203331269544744,3.602207038347423,-3.6520872138038274,-0.545796197886211,0.0011398526839911938,0.0005272924900054932,8.358034661486744,0.0014094710350036621
1746232738057171000,1.4641708984375,0.7786037365351416,0.0074064480140805244,0.12611010179095264,-0.006938249338418245,0.14829121596580497,0.8150075393146848,0.8112014120035131,right,-0.0016734302043914795,-1.020207867968637,3.6032393040046093,-3.652539049224555,-0.5457733777436403,0.0009357063681818545,0.0010170936584472656,8.35739168740809,0.0017407536506652832
1746232738097171000,1.5041708984375,0.7786123492721566,0.01164193358272314,0.12611745863800677,-0.010643095709383488,0.14858128930077963,0.8150452067431873,0.8116278393633555,right,-0.001402527093887329,-1.019716133046354,3.60615636049509,-3.6554330171003935,-0.5456364893495473,0.005200430750846863,-0.000054270029067993164,8.354867721888423,0.00016063451766967773
1746232738137171000,1.5441708984375,0.7784638805684649,0.016739170998334885,0.1260751520089295,-0.015876702964305878,0.1488798389685631,0.815095061758895,0.8119826141797901,right,-0.0017553269863128662,-1.0192460901652876,3.6083719907179472,-3.6587653763934966,-0.5454905491805375,0.004201080184429884,0.0012828707695007324,8.352453061962127,0.0031639933586120605
1746232738177171000,1.5841708984375,0.7787140454346162,0.015386784449219704,0.12609488079866135,-0.007134623825550079,0.14925416100469333,0.8150963112060666,0.812756555434759,right,0.0009874999523162842,-1.0187193156068748,3.6123771347060796,-3.660994158358872,-0.5453818253079268,0.005016990005970001,0.0013424456119537354,8.34974497204721,0.003297090530395508
1746232738217171000,1.6241708984375,0.7787712207761797,0.0016608061268925667,0.1261934462422645,-0.0020128190517425537,0.14947654907666433,0.8151563933237337,0.812998559735901,right,0.00007358193397521973,-1.0181420246287802,3.6159716520667073,-3.664218088841438,-0.5452083058496797,0.002635631011798978,-0.0004081130027770996,8.346774431803823,0.005105853080749512
1746232738257171000,1.6641708984375,0.7787507137825789,-0.004066550638526678,0.12624486344645072,0.0055905538611114025,0.14943417130560332,0.8151791288046764,0.8128404845826191,right,0.0008909106254577637,-1.0180737850504271,3.6162963539764283,-3.6646973967909813,-0.5451739919229032,0.000692236702889204,-0.0011206269264221191,8.34642313414812,0.005233407020568848
1746232738297171000,1.7041708984375,0.7787519746398534,-0.009718019515275955,0.12631711595616518,0.014449937269091606,0.14921497741357065,0.815185024833701,0.8124123842082649,right,0.0015682876110076904,-1.0182576511356136,3.6152234640479084,-3.663600833725929,-0.5452085275512865,0.0058904686011374,-0.00014954805374145508,8.347370059609412,0.001834273338317871
1746232738337171000,1.7441708984375,0.7786909460249848,-0.006790735758841038,0.12648061067488048,0.01912364363670349,0.14871551126274604,0.8152114046681639,0.8113749098921968,right,0.00023567676544189453,-1.018644039284391,3.612734277580678,-3.6615254887565967,-0.5452676615008022,0.004941700492054224,0.00033545494079589844,8.349358018556236,0.0016648173332214355
1746232738377171000,1.7841708984375,0.7793581075355267,0.0011032139882445335,0.12680437524792415,0.02405560575425625,0.14844521295417343,0.815181899966491,0.8111686777869977,right,-0.0024119317531585693,-1.018661977970617,3.6150709038347,-3.659007368455827,-0.5453101873529173,0.0007724659517407417,0.0013953745365142822,8.349450373014808,0.0033181309700012207
1746232738417171000,1.8241708984375,0.7803588654465221,0.0032453949097543955,0.1271588750481149,0.007899345830082893,0.14826324904186255,0.8151051887825315,0.8113808855300236,right,-0.0016147494316101074,-1.018643586978169,3.618838439674675,-3.6554964377254247,-0.5453917641868016,0.00035570806358009577,0.0021588504314422607,8.349355680468678,0.00413823127746582
1746232738457171000,1.8641708984375,0.7805520459709707,-0.00046624429523944855,0.12733763552994326,0.002510448917746544,0.14821959783012978,0.8151397771300795,0.8112482485899614,right,-0.0008687078952789307,-1.0183825421350086,3.6210789120778437,-3.6563466248139735,-0.545310311501829,0.004912801552563906,0.003526031970977783,8.348012449166179,0.004145562648773193
1746232738497171000,1.9041708984375,0.7805353329583831,-0.0005568616325035691,0.12738393517678862,-0.0011102091521024704,0.1482328366280716,0.815166084332038,0.8111835592970992,right,-0.0015733838081359863,-1.0182372924916754,3.6218697701945897,-3.657267539051175,-0.5452564444948026,0.005186291411519051,0.0037477612495422363,8.347264845669269,0.0033820271492004395
1746232738537171000,1.9441708984375,0.7800910659805904,-0.004815939348191023,0.12736195271700806,-0.005037067923694849,0.14820876085120305,0.8152491234652954,0.8107368791672664,right,-0.0023137927055358887,-1.0180845728975076,3.6211414559200406,-3.6597824444815514,-0.545143980472941,0.002436308190226555,0.0027310848236083984,8.346478663727641,0.0040697455406188965
1746232738577171000,1.9841708984375,0.7792951629464867,-0.006926304195076227,0.12724181857805938,-0.009731950238347054,0.14814683334560289,0.8153587308816693,0.8100267451472648,right,-0.0010084211826324463,-1.01804061455862,3.618486265236139,-3.6629254186823963,-0.5450250439458022,0.005720627028495073,0.000289231538772583,8.346252453756332,0.0013126134872436523
1746232738617171000,2.0241708984375,0.7783278529742582,-0.007500434294342995,0.12709159643820586,-0.004630574490875006,0.1481055426765346,0.8154940876231784,0.8092200183298093,right,0.00031954050064086914,-1.0179407632332582,3.6155259541258213,-3.6670167796492574,-0.5448687089500656,0.011224165558815002,0.0004893243312835693,8.345738659015298,-0.00011903047561645508
1746232738657171000,2.0641708984375,0.7777822266083604,-0.00041865603998303413,0.12705097402146073,-0.0008428655564785004,0.14800131560278906,0.8155806352865069,0.8085810218866264,right,-0.001747429370880127,-1.0179088660994287,3.613711598180234,-3.669179218380153,-0.5447770064412928,-0.0033602826297283173,-0.000721275806427002,8.345574408364296,0.0016492009162902832
1746232738697171000,2.1041708984375,0.7778140789247384,-0.0021981862373650074,0.12698848523721126,0.0037565436214208603,0.1479505345924523,0.8155386589564293,0.8086289675317081,right,-0.0006354153156280518,-1.0181647744136095,3.6123294961720704,-3.667541972567141,-0.5448681749953819,-0.0024373054038733244,0.0009130239486694336,8.34689192070365,0.001859128475189209
1746232738737171000,2.1441708984375,0.777884163293823,0.0005185513291507959,0.12705800616228957,0.003895773785188794,0.14787743584368224,0.8155462174771848,0.8084894313418205,right,-0.0005245804786682129,-1.0181527348560249,3.612656828430295,-3.6673601862594483,-0.5448604740127819,0.0011209098156541586,0.0009649097919464111,8.346829961383342,0.004570186138153076
1746232738777171000,2.1841708984375,0.7779517930036994,-0.0019376107957214117,0.12718621032275396,0.007934840396046638,0.1477583857757842,0.8155755026000795,0.8081939153177105,right,-0.00021478533744812012,-1.0180702278728546,3.6133883575752375,-3.6676065622359513,-0.544819035359175,0.005152730271220207,0.002841055393218994,8.346405013969541,0.004760265350341797
1746232738817171000,2.2241708984375,0.7776649419037205,-0.0070960065349936485,0.12731370969412126,0.005081388168036938,0.1475315374299248,0.8156676929040239,0.8073865415851273,right,-0.0027702748775482178,-1.0179694368674932,3.6129262930214403,-3.669242346744239,-0.5447127063872604,0.012574483640491962,0.0016469359397888184,8.345885958531499,0.0035919547080993652
1746232738857171000,2.2641708984375,0.7772849765523719,-0.008023436181247234,0.12732506000483435,0.000258131418377161,0.14740368063595555,0.8157391627593606,0.806802040468095,right,-0.0020430386066436768,-1.017940153976136,3.611703473228216,-3.6707892839252945,-0.5446376533304021,0.012306082993745804,0.00084647536277771,8.345735151883959,0.002404928207397461
1746232738897171000,2.3041708984375,0.776344170648911,-0.0028514075092971325,0.12727083806991385,0.0012837591348215938,0.14722102599319864,0.8158951269406169,0.8056727918933463,right,-0.0006932616233825684,-1.0178494273576384,3.6087785256922245,-3.674725454330444,-0.5444660552685862,0.010644582100212574,0.0002872943878173828,8.345268118894099,0.000816047191619873
1746232738937171000,2.3441708984375,0.7760827032871318,-0.00012221443466842175,0.12728714930652807,-0.0005609408253803849,0.14718951440901126,0.8159554119347564,0.8053415763535915,right,-0.0018394291400909424,-1.0177145213397738,3.6086063839957117,-3.6764725902587174,-0.5443804344100306,0.0060662017203867435,0.00040915608406066895,8.344573122367262,0.0019316673278808594
1746232738977171000,2.3841708984375,0.7758215940545382,0.002606978639960289,0.1273035065777327,-0.0024056406691670418,0.14715795369785706,0.8160156631760462,0.8050105766657005,right,-0.0029858052730560303,-1.0175796638867634,3.6084345345601436,-3.678218264882266,-0.5442948542402294,0.0014878218062222004,0.0005309879779815674,8.343878125840424,0.0030472278594970703
1746232739017171000,2.4241708984375,0.7755666529593912,-0.008299222216010094,0.12726809215679044,0.007034835405647755,0.14706203681578262,0.8160423288864215,0.8046662495280414,right,0.0010809898376464844,-1.0176826803545993,3.60689315033704,-3.678522508525848,-0.5442888850254621,0.004675909411162138,-0.000052601099014282227,8.34440887171626,0.0007088780403137207
1746232739057171000,2.4641708984375,0.7749516365393874,-0.028002437204122543,0.12748108598926605,0.02992255985736847,0.14634826292244688,0.8161827490957528,0.8026874701843549,right,0.00009042024612426758,-1.017989540195257,3.6028383219882842,-3.678910338799655,-0.5442208661763531,0.0020092094782739878,-0.0006818771362304688,8.345989418905972,0.004605889320373535
1746232739097171000,2.5041708984375,0.7749048590225561,-0.03799324482679367,0.1277767529129272,0.047519437968730927,0.14552221451984165,0.816222600020613,0.8009893661005258,right,0.0016938447952270508,-1.018597223099907,3.599118132421374,-3.6754555221706626,-0.5443133590122128,0.004523244686424732,-0.0005445778369903564,8.349117195537685,0.0034821629524230957
1746232739137171000,2.5441708984375,0.7746514234174147,-0.04575799033045769,0.12812126916848954,0.04851416498422623,0.14416727611527685,0.8162589245475701,0.7982335735654332,right,-0.0011644959449768066,-1.0198451906736035,3.5908962475210426,-3.6689188138782978,-0.5445384741601279,0.0030551166273653507,-0.00017064809799194336,8.355530569711327,0.004620909690856934
1746232739177171000,2.5841708984375,0.774581735003572,-0.025839325040578842,0.12851650955398966,0.03276935964822769,0.14272387818458915,0.8162639056657467,0.7954575594976242,right,-0.004779458045959473,-1.0212199545852356,3.582603050950169,-3.6609558721750974,-0.5448180505878406,-0.003050797153264284,0.000796198844909668,8.362580488222838,0.004027724266052246
1746232739217171000,2.6241708984375,0.774596263178692,-0.012080169282853603,0.12866758761324507,0.01581301912665367,0.14237386603479715,0.8162834804770015,0.794735170348757,right,-0.0020603835582733154,-1.0214338104554828,3.5814053655982017,-3.6596255003541707,-0.5448446394028278,0.005090311635285616,0.0014246702194213867,8.363675297722219,0.0019482970237731934
1746232739257171000,2.6641708984375,0.7742778273606038,0.006683754734694958,0.1288060256184417,-0.001931430771946907,0.1422825640700975,0.8164045809079862,0.7940802012069398,right,-0.002882719039916992,-1.021060712114441,3.5824206801205873,-3.6629955613091587,-0.5446542113278213,0.011240307241678238,0.0017612874507904053,8.361764495664834,0.002051234245300293
1746232739297171000,2.7041708984375,0.773529395262966,0.021306447684764862,0.1287598439110157,-0.02830200456082821,0.14267894003391582,0.8165998224660962,0.7939848786297269,right,-0.0036229491233825684,-1.0200931412870877,3.5853295533046126,-3.671463237664103,-0.5442686716752756,0.014124348759651184,0.00038495659828186035,8.356803073865175,0.00353085994720459
1746232739337171000,2.7441708984375,0.7728317462668782,0.031939808279275894,0.12865920105845588,-0.03201824426651001,0.14315447207686635,0.8167693212669425,0.794136825007423,right,-0.0010043084621429443,-1.0191577349981216,3.5882235211804505,-3.6795585735753176,-0.5439131734055365,0.03049476630985737,0.0003470182418823242,8.35199947297573,0.0010045170783996582
1746232739377171000,2.7841708984375,0.7708839081187118,0.02627898007631302,0.12855457517843885,-0.023113533854484558,0.14398172123203998,0.8172572691377639,0.7935658619093101,right,0.001973748207092285,-1.0169335355379723,3.593983984403312,-3.699856388455629,-0.5429857809976253,0.05098075419664383,0.0025977492332458496,8.340547520112992,-0.0015397071838378906
1746232739417171000,2.8241708984375,0.7685465596746072,0.012304158881306648,0.12864531184827166,-0.014112676493823528,0.14443809510313604,0.8178734689110041,0.7917738225952138,right,-0.0019534826278686523,-1.014604667395092,3.598817688170075,-3.7222003222107887,-0.5419141843451144,0.03583690896630287,-0.00028908252716064453,8.328512214404345,0.0007280111312866211
1746232739457171000,2.8641708984375,0.7677022136628083,0.004174897447228432,0.12859023027551525,-0.013970858417451382,0.1445970887268113,0.8180546614140761,0.7912464074001727,right,-0.001788407564163208,-1.0139911341920873,3.5992221773177384,-3.7289141406357285,-0.5416113430529399,0.01875784806907177,0.00005778670310974121,8.325334168890118,0.0029025673866271973
1746232739497171000,2.9041708984375,0.7665231853847776,-0.006018443964421749,0.1283597073569217,-0.011617753654718399,0.14463869211216207,0.8182114631619508,0.7904682502018406,right,-0.001014798879623413,-1.013819954061486,3.595811784352362,-3.7341818519055843,-0.5414180471521727,0.00876324437558651,0.0018611550331115723,8.324446864661574,0.0035234689712524414
1746232739537171000,2.9441708984375,0.7649205599931629,-0.0174768827855587,0.12794081234901641,-0.014640778303146362,0.14452216214269437,0.8183513890935084,0.7893092823247785,right,-0.0016067028045654297,-1.0141407985059618,3.5879727612897754,-3.73801280837059,-0.5413368168601399,0.003137254621833563,0.003471970558166504,8.326109829437732,0.008109986782073975
1746232739577171000,2.9841708984375,0.7641323448482268,-0.019000347703695297,0.1277452331948248,-0.005634709261357784,0.1443637174326368,0.8184111723064387,0.7885746403118995,right,-0.00152626633644104,-1.014440966878137,3.5832957093894477,-3.739034844894707,-0.541334872681932,-0.0007565950509160757,0.0027494430541992188,8.327664657664299,0.008411526679992676
1746232739617171000,3.0241708984375,0.7634129745694815,-0.01905110664665699,0.12753283358817302,0.0026602214202284813,0.14402426602453203,0.818422744028024,0.7876660210362298,right,0.00003737211227416992,-1.01512618138253,3.576658463332057,-3.7374873231917616,-0.541457805754039,-0.003928402438759804,0.0002511739730834961,8.331210951969027,0.0031027793884277344
1746232739657171000,3.0641708984375,0.7632618248112357,-0.00732083898037672,0.12740211664548864,0.007535393815487623,0.14369680390967565,0.8183489748658813,0.7872228168137958,right,0.0010334253311157227,-1.0159158181840136,3.571544189058244,-3.7332726281061768,-0.5416869700856883,-0.012591477483510971,0.0006211996078491211,8.335293252846599,0.0018967986106872559
1746232739697171000,3.1041708984375,0.7639542578971851,-0.005168430507183075,0.12748870781847849,0.004269937984645367,0.1434635479776125,0.81820534848823,0.7874429836559022,right,-0.0027934610843658447,-1.0164888149844973,3.5708234735682605,-3.727349083276093,-0.5419453104358862,-0.007119113113731146,-0.0009306073188781738,8.338252687174082,0.0018091201782226562
1746232739737171000,3.1441708984375,0.7638199591202193,-0.012074185535311699,0.1273943789049482,0.0006548815872520208,0.14334328523606618,0.8181735603968291,0.7872693461396149,right,-0.001788020133972168,-1.0168501348159233,3.5682387177720662,-3.7256525084912773,-0.542047290361549,-0.005356041714549065,-0.0007757842540740967,8.340117312002182,-0.00040733814239501953
1746232739777171000,3.1841708984375,0.7630932164565557,-0.019948679953813553,0.12708325321186426,-0.0037874074187129736,0.1429327048889024,0.8181286694556629,0.7863928924979956,right,-0.0014489293098449707,-1.0179015669347382,3.5594676745563745,-3.7219057231783865,-0.5422964856427118,-0.00941406562924385,-0.0003235340118408203,8.345536414441465,-0.00013649463653564453
1746232739817171000,3.2241708984375,0.7621204043328986,-0.03690418228507042,0.12641900985637125,0.006224004551768303,0.14255364241716975,0.8179733821765589,0.7858334576171211,right,0.0038968920707702637,-1.019650919300864,3.5457597594603896,-3.7147999828264116,-0.5427855435661532,-0.034068621695041656,0.0034100711345672607,8.354532790845631,0.00045359134674072266
1746232739857171000,3.2641708984375,0.7624301800753489,-0.04550029709935188,0.1260260430663046,0.0073034861125051975,0.14181322132683954,0.8176133570487631,0.7856246658730901,right,-0.0016080141067504883,-1.0220626861662834,3.53298386451751,-3.6991201831355687,-0.5436127350318123,-0.046859487891197205,-0.0006493330001831055,8.366894259768724,0.001759946346282959
1746232739897171000,3.3041708984375,0.7628701427412456,-0.03306080400943756,0.12550844847308334,0.0009272960014641285,0.1413417452401831,0.817203442909987,0.7861247237874377,right,-0.0030120015144348145,-1.024410717161235,3.5210271770030257,-3.683355335509777,-0.5444710977690782,-0.05498405173420906,0.0037605762481689453,8.378881634682417,0.007464408874511719
1746232739937171000,3.3441708984375,0.76354883412304,-0.04572909325361252,0.12501038939646317,0.010428648442029953,0.14070880851438755,0.8167272885812059,0.7865966049716451,right,-0.0003190338611602783,-1.0271132013680724,3.507855853001773,-3.6645942286774513,-0.5454632036094834,-0.04585472494363785,0.0035979747772216797,8.392621406221389,0.0050397515296936035
1746232739977171000,3.3841708984375,0.7637855128082316,-0.03522081300616264,0.1246378857539419,0.005500185769051313,0.14007976239768383,0.816406830033108,0.7864499167540385,right,-0.0006519854068756104,-1.0292396060481814,3.496371166913211,-3.6508661475762723,-0.5461895554290049,-0.025949891656637192,-0.000009328126907348633,8.403389468473195,0.0009746551513671875
1746232740017171000,3.4241708984375,0.7635867271472371,-0.024615777656435966,0.12410442741967716,-0.01823660545051098,0.13977430763099402,0.8161508280622684,0.7865802460105734,right,-0.0011019408702850342,-1.0309794310988372,3.4855291626423597,-3.640993865120411,-0.5467715020579877,-0.03021717444062233,0.0010170042514801025,8.412171909865737,0.005097150802612305
1746232740057171000,3.4641708984375,0.7629955099498452,-0.02600431814789772,0.12358723227380038,-0.0013250485062599182,0.13942191993459124,0.8159796618486045,0.7862258784230058,right,0.0002498328685760498,-1.0325363656148356,3.4743209554076193,-3.6335838811248538,-0.5472339441784415,-0.021975047886371613,0.000855863094329834,8.420009179362655,0.004019260406494141
1746232740097171000,3.5041708984375,0.7627126212760342,-0.019908344373106956,0.12325354406725124,-0.00796057190746069,0.13913436925976685,0.815838434102521,0.7860069515196885,right,-0.0012749731540679932,-1.0336981721593808,3.4665324934884905,-3.62749199399054,-0.5475928701303479,-0.017530079931020737,-0.004151046276092529,8.425844461387396,0.0009354352951049805
1746232740137171000,3.5441708984375,0.7618551606346256,-0.019718240946531296,0.12287309236740901,0.006695217452943325,0.1389468431121131,0.815813079217646,0.7854299374663031,right,0.005473583936691284,-1.0344864753567906,3.4588352169841525,-3.6256565952569244,-0.5477637922242421,-0.0032892590388655663,0.0006868839263916016,8.429796998405456,-0.00023472309112548828
1746232740177171000,3.5841708984375,0.7626314684767387,-0.013964646495878696,0.12303753794389524,0.03405984491109848,0.13844415723725848,0.8156487888868446,0.7852250465674496,right,0.0003635883331298828,-1.0353568669684372,3.4565789624899623,-3.6176641351982948,-0.5480987406823801,-0.023011673241853714,-0.0002976655960083008,8.43415519361496,0.0038268566131591797
1746232740217171000,3.6241708984375,0.7644302526500205,-0.01564565859735012,0.1233497832554593,0.024003904312849045,0.13789836412252418,0.8153288330889223,0.7857621335768394,right,0.00003579258918762207,-1.0365003958121142,3.456401267835498,-3.6044752755403517,-0.5486417318050644,-0.02288585901260376,-0.000424116849899292,8.439871233174204,0.001545727252960205
1746232740257171000,3.6641708984375,0.7658678785542052,-0.005998649634420872,0.12363170095074773,0.03575437143445015,0.1374140810878135,0.8150816557653624,0.7860737591233737,right,0.0010969042778015137,-1.0374120900834918,3.4562449082300066,-3.5939550505697726,-0.5490669279765426,-0.008469614200294018,0.000580132007598877,8.444420567041634,0.00167006254196167
1746232740297171000,3.7041708984375,0.766532923654714,-0.009252136573195457,0.12392002505789017,0.01642737351357937,0.13701487103754073,0.8150157946700698,0.7857299595955645,right,-0.0018191337585449219,-1.0377335843329096,3.45675139644742,-3.589700315734744,-0.5491994671351388,0.010312155820429325,0.002809464931488037,8.446023326063155,0.005023956298828125
1746232740337171000,3.7441708984375,0.7655825075659446,-0.007139536086469889,0.12403901695507849,-0.001843627542257309,0.13674590977993048,0.8152347496068018,0.7842117366074912,right,-0.0029126405715942383,-1.0373597950542497,3.4555247772619127,-3.595259118905663,-0.5489145026468107,0.018031513318419456,0.0007641315460205078,8.444159870278835,0.0032882094383239746
1746232740377171000,3.7841708984375,0.7648709500049511,0.0301829781383276,0.12394234304545591,-0.04399313032627106,0.13703384391259085,0.815385208112949,0.784065739288519,right,-0.003974407911300659,-1.036719347189367,3.4567093108713625,-3.6016178402826187,-0.5486409606803702,0.027347631752490997,0.0006913542747497559,8.440964873629808,-0.00337374210357666
1746232740417171000,3.8241708984375,0.7624131591913533,0.04191082343459129,0.12362800560617343,-0.04760530963540077,0.1382107208536433,0.8159425562436997,0.7838019993455119,right,0.004248678684234619,-1.0341455558958288,3.462840945494175,-3.6258024334684014,-0.5475871135033775,0.04995642602443695,0.004067182540893555,8.428088440921902,0.0068389177322387695
1746232740457171000,3.8641708984375,0.7609389534548807,0.023031944409012794,0.12367691590609005,-0.018511049449443817,0.13891515992181908,0.8163905296503089,0.783295911783161,right,-0.002583414316177368,-1.0320024870573008,3.469939087061584,-3.6439746344968675,-0.5467293852581797,0.03533121570944786,-0.001789778470993042,8.417323885801434,0.005844175815582275
1746232740497171000,3.9041708984375,0.7597908757445087,-0.0011716149747371674,0.12352475409384972,-0.029047630727291107,0.13925472040427886,0.8166171003570902,0.7828719812888628,right,-0.004198402166366577,-1.0311617068490833,3.4706261925429103,-3.6530852849304676,-0.5463388465300812,0.012246634811162949,-0.0002931654453277588,8.413090193754433,0.004501163959503174
1746232740537171000,3.9441708984375,0.7573349309309029,0.0009726218413561583,0.12302738994925276,-0.02960415929555893,0.1394671169422967,0.8169424465415313,0.781459218828892,right,-0.0019518733024597168,-1.0306589919571603,3.464548918455839,-3.6646705087840554,-0.545910314141982,0.027039339765906334,0.0006299912929534912,8.410556291362642,0.003311336040496826
1746232740577171000,3.9841708984375,0.7551440879449528,0.020212223753333092,0.122767066429757,-0.02316690795123577,0.13980962556786486,0.8173448204764092,0.7801571119460827,right,0.0035424530506134033,-1.0294841614424128,3.4632816749989983,-3.679444299545884,-0.5452786416328841,0.04823854938149452,0.0002047717571258545,8.404625732269883,-0.0008767247200012207
1746232740617171000,4.0241708984375,0.7528630642524076,0.042446769773960114,0.12290008882232922,-0.01579880900681019,0.1405054743724184,0.8180122316148877,0.7787123589023774,right,0.003618985414505005,-1.0266543893733218,3.4711277123242614,-3.704675771436095,-0.5440677090427464,0.0629013329744339,0.0018458962440490723,8.390293255534768,0.00436556339263916
1746232740657171000,4.0641708984375,0.7522439537939956,0.046891119331121445,0.12355977012146326,0.0070550162345170975,0.14116551668826005,0.8185670320232923,0.7781051919104297,right,0.001360565423965454,-1.0235002522407932,3.486899281951785,-3.726129186092317,-0.5429118410308463,0.061244700103998184,0.0004728734493255615,8.374238777312636,0.005735635757446289
1746232740697171000,4.1041708984375,0.7521965378164714,0.018857549875974655,0.12410967585005793,0.010975692421197891,0.14151181866829737,0.8188955731523818,0.7777659223218327,right,0.0000883638858795166,-1.021485867852028,3.498239883394539,-3.738603467740118,-0.5422002112742293,0.03007248044013977,0.0016730725765228271,8.363941839703918,0.009556114673614502
1746232740737171000,4.1441708984375,0.751176628988987,-0.03326566144824028,0.12408321101297454,-0.013742098584771156,0.14142616738915686,0.8190949700754113,0.7766604346774697,right,-0.000009357929229736328,-1.0210991666710485,3.496632448197901,-3.744533442310989,-0.541927390519488,0.008139781653881073,0.004544943571090698,8.361961479541659,0.012840509414672852
1746232740777171000,4.1841708984375,0.7485372355879581,-0.069426029920578,0.12343484550866488,0.008163627237081528,0.1405903693648284,0.8192361640512159,0.7737402285506529,right,0.0014364123344421387,-1.0226173517738268,3.478094336466491,-3.744444594983756,-0.5420796069016989,-0.007917029783129692,0.005772233009338379,8.369729775455594,0.005877494812011719
1746232740817171000,4.2241708984375,0.7461836450743877,-0.07849574089050293,0.12280466502885581,0.00676130224019289,0.1392387607191732,0.8192389070771304,0.7703182084787413,right,-0.0029304325580596924,-1.02513846209948,3.454936748240888,-3.737114398226142,-0.542567246172668,-0.018427586182951927,0.00011375546455383301,8.382587503463029,0.0037208199501037598
1746232740857171000,4.2641708984375,0.7439542905254648,-0.05808228626847267,0.12209410044765082,-0.0053502414375543594,0.13813262050928843,0.8192059322497599,0.7675000305745465,right,-0.0008839070796966553,-1.0275311179924234,3.433004025635123,-3.7300384684905405,-0.5430598533145419,-0.021189477294683456,-0.004536181688308716,8.394740882593393,0.00022810697555541992
1746232740897171000,4.3041708984375,0.7422579836245782,-0.02691022679209709,0.12157346415539816,0.005041488446295261,0.13747111629113412,0.8192156461998111,0.7655921463306679,right,0.00398746132850647,-1.028997963568443,3.418343632119894,-3.72677683634609,-0.5433296931196989,0.002961084246635437,-0.0017000138759613037,8.40216781772375,-0.0054242610931396484
1746232740937171000,4.3441708984375,0.7421695323034705,0.0036168210208415985,0.12172343549991968,0.01240384392440319,0.13709485843596733,0.8192487913289097,0.7647306378758911,right,-0.002896130084991455,-1.0292023183606167,3.4168539780840277,-3.7258144210547206,-0.5433412772060783,-0.002321467734873295,-0.0027031004428863525,8.403201252424717,0.002266824245452881
1746232740977171000,4.3841708984375,0.7436564492080837,0.005241294391453266,0.12208238403792651,0.024609673768281937,0.1369605551891271,0.8190777646382766,0.7654930098682056,right,0.0006656050682067871,-1.0293855002759564,3.421348074632883,-3.7195968617141246,-0.5435524268532542,-0.007163774687796831,0.00023755431175231934,8.40412713509798,0.0017606019973754883
1746232741017171000,4.4241708984375,0.7449370355191528,-0.016045458614826202,0.12247127069583348,0.03249606490135193,0.13657700287826102,0.8189266966174497,0.7656386790194535,right,-0.0019431114196777344,-1.0297946649689793,3.4237773476064204,-3.7126845981076357,-0.5437890733275438,-0.011751910671591759,-0.0003591477870941162,8.406194004499913,0.0057795047760009766
1746232741057171000,4.4641708984375,0.7457574920255551,-0.055847276002168655,0.1226089214906021,0.047159090638160706,0.13561481685132112,0.8186583046177077,0.7648402769558366,right,-0.0021052658557891846,-1.0315660569120433,3.4167125237867233,-3.698929336738586,-0.544402555394052,-0.03580480068922043,0.0014540255069732666,8.415127252539992,0.008835792541503906
1746232741097171000,4.5041708984375,0.745422182153686,-0.07881557941436768,0.12243122645758829,0.02786378003656864,0.1340644451955908,0.8183881693395234,0.7624840220588953,right,-0.003893435001373291,-1.0344778761149895,3.3988378444001075,-3.6820544820442795,-0.545232118345711,-0.02777014672756195,0.0023713409900665283,8.42975374378562,0.006341695785522461
1746232741137171000,4.5441708984375,0.7439940637198801,-0.08035389333963394,0.12202321048050364,0.04232243448495865,0.1323903226900423,0.8182151047669243,0.7591925083828662,right,-0.0016639530658721924,-1.0375635120081468,3.3759447523295876,-3.6677494778379796,-0.5459919086581978,-0.04285682365298271,0.00244748592376709,8.44517576932311,0.004725337028503418
1746232741177171000,4.5841708984375,0.7437230072360111,-0.06114325672388077,0.12181433723181524,0.0328071229159832,0.13082586244729658,0.8179002161430595,0.7569285762904161,right,-0.0014093518257141113,-1.0406332065084059,3.3573829674616453,-3.649568216720223,-0.5468867167959744,-0.027077436447143555,0.0009177923202514648,8.460438220384717,-0.0016339421272277832
1746232741217171000,4.6241708984375,0.743368439428154,-0.0202019140124321,0.12169555775737068,0.017081329599022865,0.12989579623665146,0.8177550636232989,0.7553823571313473,right,-0.004741936922073364,-1.04233512915908,3.3463398876607418,-3.640153614903986,-0.5473518215606852,-0.011750126257538795,-0.00024506449699401855,8.468865856990218,-0.004093348979949951
1746232741257171000,4.6641708984375,0.7435438024192371,0.007511241361498833,0.12176559745753654,-0.007048897445201874,0.12960596963055934,0.8177009328062191,0.7550298316988301,right,-0.013296663761138916,-1.0427564333801036,3.3445632333770394,-3.636940790337324,-0.5474858670096988,0.0032499581575393677,-0.0036045312881469727,8.470947923961281,-0.012337982654571533
1746232741297171000,4.7041708984375,0.7429806624150176,0.00933769065886736,0.12169652881430346,-0.0029643122106790543,0.12981070117373983,0.8178248167713518,0.7548686163874222,right,-0.0025518834590911865,-1.0422537975109274,3.3453938389822837,-3.6419580339774487,-0.547267555968716,0.009629830718040466,-0.00006443262100219727,8.468463705930112,-0.0035300254821777344
1746232741337171000,4.7441708984375,0.7427915742064852,0.015911594033241272,0.12176749531003189,-0.017586782574653625,0.13004853887092158,0.8179434597624738,0.7549251673046157,right,-0.003991901874542236,-1.0415506858601156,3.348731751233339,-3.6469758621394632,-0.5470179739549462,0.013182149268686771,0.00023373961448669434,8.46498404712081,-0.00044339895248413086
1746232741377171000,4.7841708984375,0.7424322837598235,0.004825242795050144,0.1217316114535664,-0.0037603043019771576,0.13040306069390262,0.8180660488852447,0.755139171523945,right,0.0014961659908294678,-1.040822497064903,3.3515880174472925,-3.6527199587494135,-0.5467582054137501,0.009851410053670406,0.004206061363220215,8.461376378017663,0.004407823085784912
1746232741417171000,4.8241708984375,0.7415002217718125,-0.0031071361154317856,0.12150114276308278,-0.02009669691324234,0.13048148172673596,0.8181673682595125,0.7546599057304003,right,-0.00548204779624939,-1.040737475586782,3.3486680383473635,-3.6563726360380646,-0.546639141789552,0.0020803380757570267,0.0012806355953216553,8.460954937735199,0.0064411163330078125
1746232741457171000,4.8641708984375,0.7411420079132666,0.0022369208745658398,0.12126956662132474,-0.01169461291283369,0.13073815863860322,0.8181742803275103,0.7550172847068595,right,-0.0015028417110443115,-1.04068307740523,3.347668213655054,-3.65791109765172,-0.5466188285456143,-0.006920022889971733,0.0022149384021759033,8.460685473144054,0.007822215557098389
1746232741497171000,4.9041708984375,0.7410303387111874,0.0029028570279479027,0.12111509098428107,-0.008864367380738258,0.13088136224119787,0.8181462587736059,0.7553416751632597,right,0.0030809640884399414,-1.0407696561675004,3.3467657118573784,-3.657745093435049,-0.5466608163981205,-0.00006907759234309196,0.0009119808673858643,8.461114512211084,0.0038685202598571777
1746232741537171000,4.9441708984375,0.7409260156652354,0.0016072997823357582,0.12106531403528682,-0.0024570967070758343,0.13094896508828593,0.8181557515643981,0.7554094554405492,right,0.000492483377456665,-1.040720364265017,3.3466642973095175,-3.6584003424733873,-0.5466412843065762,0.0005323343793861568,-0.00022208690643310547,8.460870182061194,0.0017179250717163086
1746232741577171000,4.9841708984375,0.7409027616956172,0.003320544259622693,0.12101455643150383,-0.008411547169089317,0.1310418220875846,0.8181516436401687,0.7555967429320403,right,-0.0006711483001708984,-1.0406776969183404,3.3468229950025674,-3.6587449181273577,-0.5466364554705222,-0.00196572276763618,-0.0028790831565856934,8.460658585137129,0.0005506277084350586
1746232741617171000,5.0241708984375,0.7407570006828005,0.0019356402335688472,0.12086334513068117,-0.007308082189410925,0.13120424635250133,0.8181359599040612,0.7559105417703914,right,0.002301424741744995,-1.040702690704129,3.34614728769809,-3.6590766342997547,-0.5466544331400004,0.00015271827578544617,-0.0005186796188354492,8.460782503777741,-0.0011482834815979004
1746232741657171000,5.0641708984375,0.7402345800996663,-0.004140223376452923,0.12077416948417344,-0.0026185656897723675,0.13121133128070014,0.8182062744923955,0.7555293650211988,right,0.0003796517848968506,-1.0406151875970997,3.3447342060297727,-3.66137059045583,-0.5465671625018869,0.006704417988657951,-0.00008559226989746094,8.460348788535594,-0.0001894831657409668
1746232741697171000,5.1041708984375,0.7401065275244828,-0.00000679725781083107,0.12072743083309875,-0.0007796682184562087,0.13115161579051954,0.8182002481783961,0.7553819875490685,right,-0.0017681121826171875,-1.0407640088017,3.343416401429474,-3.6608693629354234,-0.5466008654241308,-0.010815350338816643,-0.00006020069122314453,8.461086455160379,0.0017750859260559082
1746232741737171000,5.1441708984375,0.7412980927579508,0.004606718197464943,0.12078145964141145,0.004126662854105234,0.13119841435028712,0.817976037603677,0.756561973683273,right,-0.00011903047561645508,-1.0412398446795321,3.345057738895714,-3.653913552448153,-0.5469132526924836,-0.018067210912704468,0.002175837755203247,8.463445000985264,0.00163346529006958
1746232741777171000,5.1841708984375,0.7423419748351362,0.003469928167760372,0.12084517818104691,0.0009812910575419664,0.1312599661361687,0.8177916132439551,0.7576019820587379,right,-0.0021004974842071533,-1.0415773505928407,3.3469387303367255,-3.648314125005901,-0.5471601165797001,-0.013096742331981659,0.0014798641204833984,8.465116149067878,0.003670334815979004
1746232741817171000,5.2241708984375,0.7433158911172189,0.007694282568991184,0.12083669984189072,-0.0003219281788915396,0.13134466527343502,0.8175905497108481,0.7587115064021462,right,-0.003000915050506592,-1.042018703450755,3.347961643643677,-3.6423017328485843,-0.547442047865132,-0.01814882829785347,0.0010939836502075195,8.467300507369638,0.004530966281890869
1746232741857171000,5.2641708984375,0.7446125212525392,0.008770816959440708,0.12091266970092619,-0.002223135670647025,0.13150221842185295,0.8173746001287947,0.7601270740337355,right,-0.0031572282314300537,-1.0423030650869196,3.351050257308781,-3.6361876338824626,-0.5477099274508823,-0.01322968676686287,0.0013885796070098877,8.468706867036223,0.0035968422889709473
1746232741897171000,5.3041708984375,0.7452592680035254,0.012059004977345467,0.12089780511948495,-0.011599540710449219,0.1317230907988838,0.8172652146424524,0.7611191331872071,right,-0.00392189621925354,-1.0423348985704153,3.3532182489976283,-3.6338211970120664,-0.5478233365362867,-0.007108713034540415,-0.0013540089130401611,8.468864687946438,0.0037035346031188965
1746232741937171000,5.3441708984375,0.7456458686397498,0.013852451927959919,0.1208742434594655,-0.01328019518405199,0.132054024555426,0.8172266742812478,0.7620257394364451,right,-0.0023757517337799072,-1.0420497339421657,3.356260977694392,-3.6342984591349956,-0.5478063311624165,0.0010485262610018253,-0.0010377168655395508,8.467454236626624,0.0021892786026000977
1746232741977171000,5.3841708984375,0.7457820465761633,0.006248834077268839,0.12080979047055464,-0.007424377370625734,0.1323516994275954,0.8172161221252342,0.762693107091692,right,-0.0011076033115386963,-1.0417822240111023,3.358292191261053,-3.635504620054364,-0.5477644119714478,-0.007760161068290472,-0.0007767081260681152,8.466130294546485,0.0043790340423583984
1746232742017171000,5.4241708984375,0.7460840179716026,0.0024046278558671474,0.12069937817651061,-0.003843024605885148,0.13249043720566925,0.8171196577639707,0.7633596287764572,right,0.0003603696823120117,-1.0420006775057922,3.3581349548727273,-3.633132337965071,-0.5478991371306764,-0.008894434198737144,-0.000591665506362915,8.467211660042405,0.0024293065071105957
1746232742057171000,5.4641708984375,0.7460935988641595,0.0004388880915939808,0.12060653255130802,-0.0007014216389507055,0.13253583950718426,0.8170792577620476,0.7635713775477737,right,0.0019927620887756348,-1.0421658441754023,3.3572204703763124,-3.632073476561904,-0.5479688570242781,-0.0016233953647315502,-0.0015250742435455322,8.468028237122297,0.0005631446838378906
1746232742097171000,5.5041708984375,0.7467850190004809,0.0043452465906739235,0.120611260651538,0.0024094621185213327,0.1326536442821203,0.8169522123070471,0.7644280358533462,right,0.0003685951232910156,-1.0423489888075463,3.358677683447301,-3.628613399235904,-0.5481287556644049,-0.014032112434506416,-0.0006375014781951904,8.468934246051312,0.0011723637580871582
1746232742137171000,5.5441708984375,0.747730475629465,0.006367485038936138,0.12073113173735141,0.008189704269170761,0.13272073406377186,0.8168186711985935,0.7652958729568248,right,0.0007537901401519775,-1.0424698289276642,3.361410323281586,-3.6246851198762653,-0.5482850438486996,-0.004248221404850483,-0.001667112112045288,8.46953162742257,0.002663254737854004
1746232742177171000,5.5841708984375,0.7486616488041848,0.0019596959464251995,0.12086413198436696,0.0043063098564744,0.1327913664487992,0.8166954465984204,0.7661355015896969,right,-0.0006615221500396729,-1.0425424889597776,3.364365958216786,-3.621103461997211,-0.5484222595386213,-0.006674254313111305,0.00020012259483337402,8.469890523862839,0.0036286115646362305
1746232742217171000,5.6241708984375,0.749986142924578,0.005723811686038971,0.12106478666758153,0.010826822370290756,0.1327556369994271,0.8165028339036737,0.7671129668479765,right,-0.0048698484897613525,-1.042848496700785,3.3673923203006386,-3.6147476632297035,-0.5486733920713228,-0.017220180481672287,0.003038465976715088,8.471402681991458,0.007005095481872559
1746232742257171000,5.6641708984375,0.7507623326054141,0.0029479062650352716,0.12107728664766183,-0.0025357920676469803,0.13282387617553637,0.8163533049515798,0.7679701323219055,right,-0.0010039210319519043,-1.0431418950145974,3.368500866064429,-3.6103149414792655,-0.5488765480228766,-0.006500019691884518,0.0031266510486602783,8.47285171175599,0.006309926509857178
1746232742297171000,5.7041708984375,0.7509842941420704,-0.0008901807013899088,0.1210222422260509,-0.010536476969718933,0.13295192572945796,0.8162999744598477,0.7684602070112337,right,-0.0015380382537841797,-1.0431891289012447,3.369028981591761,-3.6092744925156235,-0.5489370016927012,-0.0031982536893337965,0.00014656782150268555,8.473084935989975,0.00694197416305542
1746232742337171000,5.7441708984375,0.7509972360702846,0.006161988712847233,0.12099373738846166,-0.0033402610570192337,0.1331270490971855,0.8163125412697849,0.7687719811279656,right,0.0024495720863342285,-1.042969656727827,3.3703447403654456,-3.6105905435502526,-0.5488821718696679,0.002566434210166335,-0.00042998790740966797,8.472001232406496,0.004125475883483887
1746232742377171000,5.7841708984375,0.7509909059297989,0.011417181231081486,0.12102587407122889,0.001362969633191824,0.13332162475010878,0.8163622651242253,0.7690046409356325,right,0.0029252469539642334,-1.0425519605563187,3.3727368961989876,-3.6131986802220344,-0.5487539309320153,0.006596283055841923,-0.0019204318523406982,8.469937870135903,0.0025340914726257324
1746232742417171000,5.8241708984375,0.7512645118903277,0.00881258212029934,0.12113282401072695,-0.005707697942852974,0.13352843926420674,0.8163903861845119,0.7694257099648528,right,-0.00026351213455200195,-1.0420825367237556,3.376438965587318,-3.615181378471851,-0.5486382174992874,0.004416278563439846,-0.00236549973487854,8.467616149190068,0.0010080933570861816
1746232742457171000,5.8641708984375,0.7514170090083236,0.0017677973955869675,0.12119281402622487,0.005151988938450813,0.1336152993755339,0.8164013220772642,0.7696181003943393,right,0.0004936754703521729,-1.0418683166114893,3.378227018047869,-3.615990356767177,-0.5485873829978289,-0.0012171403504908085,-0.0005634129047393799,8.466556411004065,0.0007527470588684082
1746232742497171000,5.9041708984375,0.7520161207417688,0.0012742758262902498,0.12125242126340809,0.010684628039598465,0.13356773402349592,0.8162937217517506,0.7700595223347191,right,-0.0021521151065826416,-1.0421387427222393,3.378829075594246,-3.6122941325977442,-0.5487459521798594,-0.01663653552532196,0.0024151504039764404,8.46789438160956,0.003905177116394043
1746232742537171000,5.9441708984375,0.7533093439310451,0.0031848489306867123,0.12142944657767385,0.007082177326083183,0.1335278310846901,0.816095710552609,0.7710340669819548,right,-0.002436816692352295,-1.0424911717455727,3.3814565014883873,-3.605744564823806,-0.5490110052073979,-0.009506002068519592,0.0019040107727050781,8.469636841362714,0.00300753116607666
1746232742577171000,5.9841708984375,0.7539927782841227,0.005985415540635586,0.12151964945616375,0.003891028231009841,0.1335509381369332,0.8159968192887261,0.771618917514204,right,-0.001408606767654419,-1.0426099559126027,3.3832314022064205,-3.6026994980394837,-0.5491324268646227,-0.008488344959914684,0.0016194283962249756,8.47022428586185,0.003921806812286377
1746232742617171000,6.0241708984375,0.755074534971593,0.00748917181044817,0.12176431957336986,0.007850117981433868,0.13362609616968957,0.8158963742683734,0.7724526488391833,right,-0.0010766386985778809,-1.0424736386372855,3.387917806456983,-3.5998785953998564,-0.5492091907111223,-0.0013835183344781399,0.0011822283267974854,8.46955033212304,0.0028263330459594727
1746232742657171000,6.0641708984375,0.7555750327151768,0.006952604278922081,0.12191569876217767,-0.0012112250551581383,0.13369018649948966,0.8158732975931586,0.7728257510035905,right,-0.003459423780441284,-1.0422640995025367,3.3909365697562692,-3.599474690774083,-0.549194351957301,0.0015797670930624008,-0.001290053129196167,8.468514559334515,0.0035392045974731445
1746232742697171000,6.1041708984375,0.7552264498743794,0.0014487993903458118,0.12179693124859571,-0.006466858554631472,0.13385742703367684,0.8159175470846167,0.772896636569162,right,-0.0008466243743896484,-1.0420827842235494,3.3907322793558237,-3.6017724463224408,-0.5491140338710966,0.0024037081748247147,0.00010702013969421387,8.467617902755737,0.002018570899963379
1746232742737171000,6.1441708984375,0.7550706061226252,-0.0007707895711064339,0.12174823840720864,-0.0024529951624572277,0.13393470363911442,0.8159399055240878,0.7729255911568452,right,-0.0007142722606658936,-1.0419863308672843,3.3907302335292098,-3.602895020611584,-0.5490727126997572,0.0006873394595459104,-0.0005770325660705566,8.467140348371863,0.0019496679306030273
1746232742777171000,6.1841708984375,0.7549726051122646,-0.0005982317961752415,0.1215737166392706,-0.006055688019841909,0.13403753669758792,0.8158927529706061,0.7732334464064378,right,0.0012148022651672363,-1.0421974757951773,3.389152316688001,-3.601925591057539,-0.5491563876671915,-0.009572702459990978,0.001047968864440918,8.468184888988732,0.002522587776184082
1746232742817171000,6.2241708984375,0.7550089733405241,-0.006162547040730715,0.12138868349196108,-0.007637506350874901,0.13412118148404845,0.8158084801299528,0.7736625953531657,right,-0.0009284913539886475,-1.0425435578906055,3.3872748323783277,-3.599668167519569,-0.5493021007811918,-0.010794434696435928,-0.0002512633800506592,8.469895784559846,0.0038147568702697754
1746232742857171000,6.2641708984375,0.754447022518135,-0.017467767000198364,0.12101753770849345,-0.012633468955755234,0.13406968624588195,0.8157395450727378,0.7735671260114056,right,-0.000031441450119018555,-1.0432529493823546,3.3811353067100045,-3.597191840533912,-0.5494988825847448,-0.007952384650707245,0.002007097005844116,8.473400577810406,0.0020822882652282715
1746232742897171000,6.3041708984375,0.7534592180685337,-0.009330549277365208,0.12052981996169486,-0.014117804355919361,0.1340111680718075,0.8157034620283936,0.7732060076549083,right,-0.001315474510192871,-1.04402978218962,3.3730762111559507,-3.5957284899830815,-0.5496739332489832,-0.011930744163691998,0.0013620257377624512,8.477232703319192,0.0019025206565856934
1746232742937171000,6.3441708984375,0.7528840966213639,-0.0037028538063168526,0.1201844845764382,-0.014383383095264435,0.13410594196497708,0.8156734076114237,0.7732744898884844,right,0.00036594271659851074,-1.0444178740654508,3.3687574711740016,-3.5952664254292843,-0.5497709744801275,-0.002386883832514286,-0.0005041658878326416,8.479145258942246,0.0007167458534240723
1746232742977171000,6.3841708984375,0.7524913966360484,0.005456725135445595,0.11994569845838873,-0.009918441995978355,0.13431848920052583,0.8156758173959167,0.7735428124758257,right,0.0009047985076904297,-1.0444384782942298,3.3672263160839675,-3.5964617726936936,-0.5497676918098551,-0.0037090964615345,0.0004552006721496582,8.47924696575105,0.003749251365661621
1746232743017171000,6.4241708984375,0.7530652655586347,0.0093619953840971,0.11999033113534557,-0.0022422396577894688,0.1345492112752265,0.8156128288816635,0.7743897788681613,right,-0.0006841123104095459,-1.0442553212105135,3.3703520468890664,-3.595662439009547,-0.549795024992189,-0.004291749559342861,0.0002840757369995117,8.478344463953375,0.007122159004211426
1746232743057171000,6.4641708984375,0.7533194107730146,0.009254701435565948,0.12002882530032795,-0.004742185119539499,0.13477788401739094,0.8156148193517053,0.7749234942210709,right,0.002785801887512207,-1.0439114598024077,3.373260627812147,-3.596932605075836,-0.5497277183539876,0.0032901023514568806,0.00027447938919067383,8.476649350473284,0.007310450077056885
1746232743097171000,6.5041708984375,0.7531755792789281,0.00534722488373518,0.12007512921155183,0.0010316269472241402,0.1348582622491763,0.8156813972551842,0.7748305536925515,right,0.0014502406120300293,-1.0435765557119745,3.3746845231354237,-3.5994884270384904,-0.549599072663997,0.0070558516308665276,-0.00005173683166503906,8.47499749161303,0.007247269153594971
1746232743137171000,6.5441708984375,0.7531791372613317,0.005997903645038605,0.12019183243266596,-0.0015966356731951237,0.13489638964724956,0.8157438959368194,0.7747200474094125,right,0.0004565715789794922,-1.0432185968828243,3.3767721430644393,-3.6016894442141054,-0.5494714513839891,0.006252028979361057,-0.0024072229862213135,8.473230481940508,0.00647282600402832
1746232743177171000,6.5841708984375,0.7532082871804278,0.011257033795118332,0.12024689199764318,0.0024971687234938145,0.13507641150316133,0.8157939618832762,0.774933523837662,right,0.005363255739212036,-1.0427892449137455,3.3793650821670886,-3.6042446816548703,-0.5493408398429327,0.013417178764939308,-0.00008049607276916504,8.471110421046614,0.002753138542175293
1746232743217171000,6.6241708984375,0.7530886501223907,0.010682683438062668,0.12043288230593173,-0.0002525665331631899,0.13522294779468474,0.8159343421625135,0.7747583922106451,right,0.0018804073333740234,-1.04200181579638,3.3834947293177247,-3.6095144387513396,-0.5490554758803701,0.020796865224838257,-0.000810086727142334,8.467216920739412,0.0009293556213378906
1746232743257171000,6.6641708984375,0.7528391842214439,0.005954307038336992,0.12057311729784,0.0055825477465987206,0.13539322567923637,0.8160841640711426,0.7745552584829509,right,0.0012496411800384521,-1.0412160681096576,3.3871424381703137,-3.6152126503929494,-0.5487600383189057,0.008337118662893772,0.0000349879264831543,8.463326927563548,0.004761934280395508
1746232743297171000,6.7041708984375,0.7533855473436185,0.0008367951959371567,0.12077221442391674,0.011362312361598015,0.13536119384247294,0.816058685274187,0.7747633388086266,right,0.0005776882171630859,-1.041075740556001,3.3899291462793943,-3.6142274387478825,-0.5487620242400267,-0.004704166203737259,0.0009878873825073242,8.46263193103671,0.0031119585037231445
1746232743337171000,6.7441708984375,0.7540427534494519,-0.005012103822082281,0.12096300761062691,0.007420897018164396,0.13520943174095595,0.8159858021740916,0.7749181483571859,right,-0.002184540033340454,-1.0412226751154592,3.3914515335410833,-3.611091478809714,-0.5488656800379536,-0.0035777720622718334,0.00030794739723205566,8.46335966078937,0.004101157188415527
1746232743377171000,6.7841708984375,0.754339834596493,-0.007096428424119949,0.12107674160798153,0.007895299233496189,0.13504594534122832,0.815950929769354,0.7748085640523084,right,-0.00035056471824645996,-1.0413810723861257,3.391606724102795,-3.609107319255173,-0.5489327511971248,0.0008757272735238075,0.0017468929290771484,8.464144673687219,0.0031954050064086914
1746232743417171000,6.8241708984375,0.7539988107950437,-0.005750344134867191,0.12115119644140548,0.006579479202628136,0.13478207364178119,0.8160175384180531,0.7739715967333565,right,-0.0039521753787994385,-1.0414489828645646,3.389981753249466,-3.6098441090971227,-0.5488821029704767,0.004305485635995865,0.00008550286293029785,8.464480773773788,0.004538476467132568
1746232743457171000,6.8641708984375,0.7539390077145558,-0.0013798917643725872,0.12118419539518525,-0.0004169205203652382,0.13469054888364476,0.8160316012852278,0.7737292258422935,right,-0.0031360089778900146,-1.0414875190067021,3.3895430695712565,-3.6098096223056313,-0.5488764254168159,0.0016958729829639196,-0.00026723742485046387,8.464671327909826,0.0032082796096801758
1746232743497171000,6.9041708984375,0.753560542753178,-0.003113657468929887,0.12113247069748317,-0.0008021783432923257,0.13465588470761608,0.8160820546806301,0.7733758248540723,right,-0.0023060142993927,-1.0414634067984583,3.3883164503857492,-3.6112411164134737,-0.5488213498750496,0.0049188206903636456,-0.0008003413677215576,8.46455208544433,0.0021873116493225098
1746232743537171000,6.9441708984375,0.7525707541523566,-0.005365848541259766,0.1209413808634451,-0.005429807584732771,0.13461896798088824,0.8161954671968469,0.7726119837606878,right,-0.0010734796524047852,-1.0414497483499583,3.3848192559197545,-3.6146772283419963,-0.5487038683965704,0.00531567120924592,-0.0007699728012084961,8.464484280905127,0.001993238925933838
1746232743577171000,6.9841708984375,0.7518157033422835,-0.005763780325651169,0.12071653662713551,-0.00791863352060318,0.13460136237622244,0.8162449852703281,0.7721601286953284,right,-0.0012911856174468994,-1.0416216632031876,3.381095266960561,-3.6161692204654217,-0.5486840644797489,-0.0019901986233890057,-0.0006765425205230713,8.4653359292984,0.001425325870513916
1746232743617171000,7.0241708984375,0.7516091581326161,-0.00015279464423656464,0.12057180457696898,-0.0033418438397347927,0.13466134422552356,0.8162284147389152,0.7722531346660086,right,0.000712960958480835,-1.0417693659397402,3.379494846026599,-3.615954408670962,-0.5487258664957634,-0.0013808414805680513,-0.00033786892890930176,8.466066581660508,0.0013896822929382324
1746232743657171000,7.0641708984375,0.7516679687008788,0.004856717772781849,0.12055028567538947,-0.0030692911241203547,0.1347645488320883,0.8162220872835058,0.7724949420063107,right,0.0008086264133453369,-1.0416811736554392,3.380216438299417,-3.6162998611077666,-0.548714544701659,0.0028112430591136217,-0.0011868178844451904,8.465630528330802,0.0016186833381652832
1746232743697171000,7.1041708984375,0.7516762392409604,0.008467895910143852,0.12065506809078781,0.0014809903223067522,0.1349049249462597,0.8162945962516373,0.7725567808828834,right,0.0012309849262237549,-1.0411807016639567,3.3831381709650157,-3.6193659706801173,-0.5485490477378975,0.007454724982380867,-0.0014513134956359863,8.463151570996642,0.0043912529945373535
1746232743737171000,7.1441708984375,0.7518619736882202,0.008339785039424896,0.12079095741169274,0.0015761759132146835,0.1350643277550781,0.8163472010335375,0.7727784203092893,right,0.0016101598739624023,-1.0406698185491032,3.3867627912029623,-3.6218949046358464,-0.5484015914210499,0.008777318522334099,0.0007526278495788574,8.46061942217052,0.003106057643890381
1746232743777171000,7.1841708984375,0.751913245051026,-0.0011960286647081375,0.12097342297320582,0.0016813683323562145,0.13503342793338938,0.8164204894956684,0.7725180795104459,right,-0.0032761693000793457,-1.040288848364436,3.3891508553832765,-3.624076048067212,-0.5482599565187468,0.0027790796011686325,-0.001473844051361084,8.458730247423052,0.0062250494956970215
1746232743817171000,7.2241708984375,0.7516642244257354,-0.0013197420630604029,0.120923912272492,0.0013532235752791166,0.13497990310151967,0.8164411347575182,0.7722629642727337,right,-0.00231093168258667,-1.0403639899142072,3.3878134692996738,-3.6244551105126734,-0.5482532585562089,0.00022006896324455738,0.0018769502639770508,8.459102587866782,0.003414750099182129
1746232743857171000,7.2641708984375,0.7516584179704792,0.00067681516520679,0.12091884859650265,-0.0025354563258588314,0.13495460021499323,0.8164357549413755,0.7722273491227563,right,-0.0009320676326751709,-1.0404166379791189,3.387488182868063,-3.6241491133034227,-0.5482685975560383,0.0011896246578544378,0.0015454590320587158,8.459363869151472,0.004481911659240723
1746232743897171000,7.3041708984375,0.7511106664553691,0.002978665754199028,0.12082214834670268,-0.004917158279567957,0.13499899163316859,0.8165137664703077,0.7718867717177283,right,0.0007787346839904785,-1.040274769711536,3.3863220616981384,-3.6268817531377073,-0.5481628490709857,0.003758838167414069,-0.00009930133819580078,8.458660104796289,0.003147125244140625
1746232743937171000,7.3441708984375,0.7509490643798054,0.001777681871317327,0.12081890534232284,-0.0021876804530620575,0.13507640125659592,0.816559719318001,0.7718439830461178,right,0.0007088184356689453,-1.0400590012724298,3.386981402389705,-3.6287633291006087,-0.5480760549907651,0.0014471916947513819,-0.00043469667434692383,8.457589260694384,0.0022945404052734375
1746232743977171000,7.3841708984375,0.7512900651533757,0.005881621036678553,0.1207941758785639,-0.006964418105781078,0.1352707889216682,0.816505828420015,0.772506335286172,right,-0.0005495250225067139,-1.0399847287490107,3.3886475820362567,-3.6280674557909367,-0.5481138727415267,-0.005843409337103367,0.00035569071769714355,8.457220427381992,0.003448784351348877
1746232744017171000,7.4241708984375,0.7514106523585785,0.0043220724910497665,0.12074319309956524,-0.004117120523005724,0.1354100109366492,0.8164776023972652,0.7729058048316642,right,0.0008668601512908936,-1.0399456443322344,3.3893113066419955,-3.627900867052376,-0.5481328462639189,0.0012674164026975632,-0.00007596611976623535,8.457026366114617,0.0019167065620422363
1746232744057171000,7.4641708984375,0.7506797098900417,-0.0029146214947104454,0.12060681594210382,-0.009022044949233532,0.1354329095959937,0.8165721605041324,0.7724086219057065,right,-0.0012823939323425293,-1.0398365529704159,3.3872876918599006,-3.6310517322987317,-0.5480163192035359,0.0022959867492318153,-0.0010595619678497314,8.456485098844766,0.0028455257415771484
1746232744097171000,7.5041708984375,0.7503594735292348,-0.0038640452548861504,0.12046952671469867,-0.0005017882212996483,0.13541490489408806,0.8165709994435029,0.7722626285787432,right,-0.0018431544303894043,-1.0400334758467291,3.384989351789653,-3.630918461307883,-0.5480527183351181,-0.0067030517384409904,-0.000993192195892334,8.457462419444322,0.0021207332611083984
1746232744137171000,7.5441708984375,0.7503130080351406,-0.004034565761685371,0.12039007351533448,-0.003176685655489564,0.13538898267623936,0.8165377859790582,0.7722939621290837,right,0.000016689300537109375,-1.0402529780502643,3.3835543505504724,-3.629717561085522,-0.5481260370219411,-0.001263946294784546,-0.00034567713737487793,8.458551968246699,0.0010663866996765137
1746232744177171000,7.5841708984375,0.749966011998999,0.00039185117930173874,0.12028946950457783,-0.0007264204323291779,0.1354140135477118,0.8165673497274321,0.7721310461468361,right,-0.00010475516319274902,-1.0402681215642158,3.3822073198556897,-3.630797465276718,-0.5480978910161076,-0.0031908657401800156,-0.0007042288780212402,8.458627371570467,0.0043585896492004395
1746232744217171000,7.6241708984375,0.7504068828775833,0.006111113820225,0.12035589509622818,0.003950245678424835,0.13548002607694595,0.8165155821600663,0.7725714000430636,right,0.0009738504886627197,-1.040237900761206,3.3839813437908886,-3.629491935636103,-0.5481440233304157,-0.0012109398376196623,-0.0003546178340911865,8.458477149444818,0.0021719932556152344
1746232744257171000,7.6641708984375,0.7506174554560392,0.003946245182305574,0.12048200344715465,0.0015888800844550133,0.13550518314054746,0.8165361206706023,0.7726347494875772,right,-0.0012334883213043213,-1.0399947321998768,3.3861484586969017,-3.6302833782747386,-0.5480795091548711,0.004473446868360043,-0.0011249780654907227,8.457270111742615,0.0029051899909973145
1746232744297171000,7.7041708984375,0.7506004543505268,0.0006070176605135202,0.12056627856967275,0.0013200658140704036,0.13551661391480796,0.816582953074002,0.7725117104237089,right,-0.0012831389904022217,-1.0397515085382014,3.3874893519118427,-3.6318449285030363,-0.5479883418372615,0.003877375740557909,0.0018152296543121338,8.456062489518523,0.0030857324600219727
1746232744337171000,7.7441708984375,0.750397686350243,-0.0016006024088710546,0.12061128556657326,-0.0020989738404750824,0.1354663082403345,0.8166405945352543,0.7721696737394361,right,-0.0025607049465179443,-1.0396073277141642,3.3875843367189167,-3.6334237221270795,-0.5479049898199797,0.00004675006493926048,0.0008821785449981689,8.455346450203656,0.003092467784881592
1746232744377171000,7.7841708984375,0.7503046712246505,-0.0017433330649510026,0.12055857786027552,-0.003911217674612999,0.135470825464375,0.8166355986078183,0.7721603165605547,right,-0.001686394214630127,-1.0396805668051112,3.386824750523269,-3.6332863594830034,-0.547922978950398,-0.00365100777707994,-0.0005490779876708984,8.455710022819042,0.0026990175247192383
1746232744417171000,7.8241708984375,0.7501266456950004,0.005461541470140219,0.12042863634171157,-0.0064851827919483185,0.13558440276929776,0.8166288044672478,0.7723391049627532,right,-0.00046065449714660645,-1.0397155358378056,3.385976024739444,-3.6336727284520864,-0.5479335748414826,0.0018212853465229273,-0.0001500248908996582,8.45588362582028,0.000737309455871582
1746232744457171000,7.8641708984375,0.7500370843028924,0.007428819313645363,0.12043544285352746,-0.005286261439323425,0.13574455344893765,0.8166775840573761,0.772475337583055,right,-0.00023537874221801758,-1.0393741235124607,3.3876182389885185,-3.6360879729002713,-0.547819699770721,0.0026794257573783398,-0.00032895803451538086,8.454187927818298,0.003275156021118164
1746232744497171000,7.9041708984375,0.7502600966395957,0.0056888083927333355,0.12042160111489078,-0.0016884591896086931,0.13593816756513863,0.8166541856733187,0.773002947112237,right,0.001416534185409546,-1.039206676600284,3.389394893272221,-3.636368543407321,-0.5478096842004847,-0.003095468506217003,-0.0000216066837310791,8.453355568647384,0.0014517903327941895
1746232744537171000,7.9441708984375,0.7508632439089947,0.002476996509358287,0.12045237412215469,-0.0022332186345010996,0.1360565773507624,0.8165583629253989,0.7737343541231462,right,-0.0008167028427124023,-1.0392708280370415,3.3912186015680432,-3.6339281645178794,-0.5479164702316653,-0.006145787425339222,0.0008486509323120117,8.453674133077262,0.0017414689064025879
1746232744577171000,7.9841708984375,0.7515348107288548,0.0024941805750131607,0.12050258778417802,0.0015250304713845253,0.1361382935047637,0.8164512145525958,0.7744517326320683,right,-0.0026373863220214844,-1.0393864280342497,3.392989995154738,-3.6309348279207945,-0.5480446839605023,-0.014159433543682098,0.0009968280792236328,8.454248718094826,0.00599360466003418
1746232744617171000,8.0241708984375,0.752225233456701,0.0015895399264991283,0.1204870507679389,-0.005105316638946533,0.1362439043741641,0.8163118137994674,0.7753189342767797,right,-0.0005790591239929199,-1.039638280846229,3.3940406732514496,-3.6270360669165846,-0.5482294256809799,-0.00797252170741558,0.0012284815311431885,8.455500179460644,0.005663394927978516
1746232744657171000,8.0641708984375,0.752126491811879,-0.0009816382080316544,0.12039753692265173,-0.0015486786141991615,0.13632056024386485,0.8163017093392685,0.7754636187981034,right,0.0005972683429718018,-1.03967857024935,3.3934497216209767,-3.6271222838953134,-0.5482450775091352,0.0005505513399839401,0.0008682012557983398,8.455700085946917,0.004905402660369873
1746232744697171000,8.1041708984375,0.7521133140688882,0.0050511592999100685,0.12038608731969028,-0.0076492358930408955,0.13642193208795222,0.8163153115525487,0.775616286063633,right,-0.0008057057857513428,-1.0395277278559503,3.394273897485435,-3.62809901997298,-0.5482021774805024,0.00047701806761324406,-0.0008455812931060791,8.454950728884338,0.004156947135925293
1746232744737171000,8.1441708984375,0.7521717684116289,0.007732842117547989,0.12033202380626365,-0.006506566423922777,0.13665972125953021,0.816314453557099,0.7761032759778866,right,0.0011263787746429443,-1.039293308779698,3.3958392471060157,-3.629346974207461,-0.5481560128442595,-0.0003327172016724944,0.00017026066780090332,8.453785776758194,0.002879023551940918
1746232744777171000,8.1841708984375,0.752361613947178,0.008047721348702908,0.12035103309894271,-0.005309941712766886,0.1368796578683146,0.8163181074365063,0.7765886740130624,right,0.0009215176105499268,-1.0389791259696028,3.3983439234033224,-3.6306419824540614,-0.5480916073921491,0.002052541822195053,-0.0009990036487579346,8.45222393426895,0.0020318031311035156
1746232744817171000,8.2241708984375,0.7524823065319599,0.00380709208548069,0.12041219861524012,-0.0005530486814677715,0.1370468420570753,0.8163486503073973,0.7768660042598505,right,0.00015676021575927734,-1.0386087149785088,3.4009219571977853,-3.6325174209371207,-0.5479909343491496,0.0034966955427080393,-0.0005692243576049805,8.450381521272659,0.0036042332649230957
1746232744857171000,8.2641708984375,0.7528370423220865,0.005120992660522461,0.12047132427310629,0.0006110882386565208,0.13713370084737694,0.8163147487665766,0.7772617099466292,right,-0.0015178322792053223,-1.0385126388216754,3.4027640779331323,-3.6319019193872806,-0.5480065744725424,-0.0059931306168437,-0.0008255541324615479,8.449903382366895,0.004447758197784424
1746232744897171000,8.3041708984375,0.7536002567239388,0.0033437050879001617,0.12055070344745868,0.00500832311809063,0.1371734614771197,0.8161954076127935,0.7779663045874177,right,-0.0006576776504516602,-1.0386771668248556,3.404584863619506,-3.628291327674687,-0.5481570553681643,-0.008959434926509857,0.0004401206970214844,8.450721713012456,0.003582477569580078
1746232744937171000,8.3441708984375,0.754356731444394,0.0031319097615778446,0.12064317780803423,0.0048362151719629765,0.13717923096422072,0.816078385255679,0.7785950670128011,right,-0.0008924603462219238,-1.0388616271146958,3.4062603956162927,-3.624577860109508,-0.5483093867181034,-0.004842943046241999,0.000576019287109375,8.451639412379265,0.0037735700607299805
1746232744977171000,8.3841708984375,0.7551986899085152,0.005219976417720318,0.12077415472691148,0.002594187157228589,0.13721595789484964,0.8159667225806636,0.7792985983524315,right,-0.0013338029384613037,-1.0389443293535754,3.4088322919309135,-3.621200200369954,-0.5484375788979934,-0.004029524512588978,0.0000483095645904541,8.452050915789604,0.0031245946884155273
1746232745017171000,8.4241708984375,0.7557790566046221,0.008060922846198082,0.12090250722473515,0.0043069906532764435,0.13727470068569347,0.8159134315298494,0.7797772412043358,right,-0.0008707940578460693,-1.038848323379818,3.411489528441429,-3.6198116686210033,-0.5484738513945212,0.00022180099040269852,-0.000523298978805542,8.45157336140573,0.0022807717323303223
1746232745057171000,8.4641708984375,0.7561565663931595,0.00814279168844223,0.12100216754505536,-0.0002941405400633812,0.13738892019138882,0.8158985452127682,0.7801768526902401,right,-0.0013259053230285645,-1.0386163374851882,3.414201125487685,-3.6199499080479143,-0.5484454430379991,0.001568636973388493,-0.000273287296295166,8.450419515195488,0.0026877522468566895
1746232745097171000,8.5041708984375,0.756439918067956,0.006993332877755165,0.1211005903520057,0.0033514935057610273,0.13750360919080729,0.8159032900958993,0.7804849763793654,right,0.00009033083915710449,-1.038333712246621,3.4168659607827663,-3.6207194311156865,-0.5483879456912256,0.0015657664043828845,-0.00046890974044799805,8.449012571007012,0.0022025108337402344
1746232745137171000,8.5441708984375,0.7570155327245012,0.005525744985789061,0.12120539985088054,-0.00007729348726570606,0.13762134383574817,0.8158486580694263,0.781079995228785,right,-0.0011488497257232666,-1.0381945726087458,3.419757006049156,-3.6196065014377234,-0.5484165288829103,-0.00887292716652155,0.00007852911949157715,8.448319912567735,0.0038012266159057617
1746232745177171000,8.5841708984375,0.7578384472884601,0.006136504001915455,0.12126334240967553,0.002564354334026575,0.13773992121911727,0.8157183829550092,0.7819914179999984,right,0.00040081143379211426,-1.0383110946138576,3.422058268728852,-3.616076573745906,-0.5485677807015055,-0.007132899947464466,0.0008417069911956787,8.448899758282304,0.0034479498863220215
1746232745217171000,8.6241708984375,0.7583450696902143,0.002043807413429022,0.12131479164361458,-0.0033408021554350853,0.13782460153150367,0.8156475493645954,0.7825467152403458,right,-0.0008346438407897949,-1.0383229779993899,3.423820309965312,-3.6142689398020504,-0.5486404015757318,-0.002184316050261259,-0.0005091428756713867,8.44895937951505,0.0028192996978759766
1746232745257171000,8.6641708984375,0.7583924967077609,0.0017048229929059744,0.12121261095002303,-0.001303577097132802,0.13786931254516446,0.8155951036946016,0.7828087902038986,right,0.0007073581218719482,-1.0385309366373514,3.422783660393953,-3.612831600475311,-0.5487297691663057,-0.007672314997762442,-0.0006182193756103516,8.449994567781687,0.0027274489402770996
1746232745297171000,8.7041708984375,0.7590416562570319,-0.0011714964639395475,0.121229954546271,0.002750480780377984,0.13792383179184498,0.8154725961748704,0.7835116825387278,right,0.0007988512516021729,-1.0387589031868891,3.4238013130038976,-3.609210195107758,-0.5488941619767834,-0.005101373419165611,-0.0009050369262695312,8.451128540247678,0.0010884404182434082
1746232745337171000,8.7441708984375,0.7590254935561913,0.0001622248673811555,0.12117316465044325,0.0008157881675288081,0.13794849767029943,0.8154525889751032,0.7836146182834084,right,0.0005016326904296875,-1.038850850786823,3.4232089000687003,-3.6087022455856204,-0.5489302869882204,0.001464365515857935,0.0006189048290252686,8.451586220887302,0.002150237560272217
1746232745377171000,8.7841708984375,0.7595464198096986,0.0042095971293747425,0.12125891117186062,0.004227243363857269,0.1379859879168403,0.815388022872189,0.7840647648445996,right,-0.0018085837364196777,-1.0388637797120672,3.4250130268812176,-3.606839666584134,-0.5489978569406604,-0.008897271007299423,0.0014800429344177246,8.451650518295168,0.006665587425231934
1746232745417171000,8.8241708984375,0.7603532073593398,0.0026639762800186872,0.1213119204610389,0.0013958103954792023,0.13808029778666997,0.815255176490514,0.7849315595285338,right,0.0017572343349456787,-1.0390221686165046,3.4269983554795385,-3.603103987187147,-0.5491595852425335,-0.005410945042967796,0.003155946731567383,8.452437869280576,0.005966365337371826
1746232745457171000,8.8641708984375,0.7604102966608182,-0.005301713943481445,0.12131472847797035,-0.0008283390197902918,0.13802249368429606,0.8152354214708493,0.7848993943885165,right,0.001272439956665039,-1.0391446528609734,3.4264906982183456,-3.602158523030579,-0.549202854094961,0.000621601939201355,0.0011658072471618652,8.45304694108963,0.00593334436416626
1746232745497171000,8.9041708984375,0.7599079197758177,-0.004977967124432325,0.121179158105365,-0.0031055344734340906,0.13793959669850717,0.8152650302359543,0.7844735591231409,right,0.0015940070152282715,-1.0393441519445454,3.423518696670234,-3.6026568279415367,-0.5492096517100868,-0.0023196975234895945,0.0013886988162994385,8.454038874736428,0.0036762356758117676
1746232745537171000,8.9441708984375,0.7596709426952799,-0.002773851389065385,0.12103535237894852,-0.00231801625341177,0.13790712342373224,0.8152415622899095,0.7843988152463013,right,0.0004909634590148926,-1.039627316211464,3.421015773938596,-3.601731529790163,-0.5492843000521572,-0.00480126217007637,0.00042769312858581543,8.455445818924904,0.0011321306228637695
1746232745577171000,8.9841708984375,0.7597738281895369,0.001964534865692258,0.12099112167657616,-0.0032909722067415714,0.13790617702325186,0.8151981004115312,0.7845645687371249,right,0.0005819201469421387,-1.039797184321927,3.4203964729964733,-3.6003377373442054,-0.5493587299445071,-0.00014463579282164574,-0.00239485502243042,8.45628928401172,-0.0004935264587402344
1746232745617171000,9.0241708984375,0.7598838229182351,0.005951535888016224,0.12094270609147098,-0.004760713316500187,0.13808127218329194,0.8151783944693453,0.7850025454502504,right,0.0011233687400817871,-1.0396841294515944,3.4214512427464125,-3.6006548404693604,-0.5493546784766787,-0.002202899195253849,-0.001201629638671875,8.455728142997621,0.0017008185386657715
1746232745657171000,9.0641708984375,0.7606253210449301,0.009076260961592197,0.1210426402400896,0.0038971630856394768,0.13825087426049584,0.8150939512743585,0.7858465803212155,right,0.0005034208297729492,-1.0395605950626534,3.4248405929237604,-3.598873802271485,-0.5494153211336448,-0.005561091937124729,0.00023251771926879883,8.455114395013451,0.005242526531219482
1746232745697171000,9.1041708984375,0.7615507554072836,0.002118819858878851,0.12117529701657899,0.003453588578850031,0.138342394465373,0.8149737962735053,0.7867116223797984,right,0.0000991523265838623,-1.0395890352599675,3.428003733129799,-3.595528583496809,-0.5495412744069598,-0.004041020758450031,0.001334846019744873,8.455255264788866,0.008564412593841553
1746232745737171000,9.1441708984375,0.7617247917182127,-0.004646736662834883,0.1212238967562304,0.0066018905490636826,0.13824871721756862,0.8149455211731534,0.7866766677555779,right,0.0011196136474609375,-1.0397221943141965,3.4278520496994256,-3.5941169631332155,-0.5495960381847195,0.0002787085250020027,0.0011674463748931885,8.45591694356799,0.007431507110595703
1746232745777171000,9.1841708984375,0.7615961789005339,-0.006260538939386606,0.12126004279357842,0.007574034389108419,0.13806675099362758,0.814962386568862,0.7862278837884523,right,0.0008627474308013916,-1.0398673166575456,3.4265430129274725,-3.5936698038876056,-0.5496088087548515,0.004580540116876364,0.0024179816246032715,8.456637659057975,0.005018949508666992
1746232745817171000,9.2241708984375,0.7614402782330687,-0.00304388627409935,0.12134630344777872,0.004482449032366276,0.13785526714376484,0.815004531475002,0.785635413763649,right,-0.0006559193134307861,-1.0399217546485215,3.425665645571053,-3.5938711716786025,-0.5495804224288187,0.007701444439589977,-0.00027507543563842773,8.45690770817101,0.004228055477142334
1746232745857171000,9.2641708984375,0.7610433135580116,0.0009724288247525692,0.12137355688468202,0.0005460632964968681,0.13777058803863682,0.8150894677056489,0.785074876381501,right,-0.00010094046592712402,-1.0397756860076568,3.4250916450753808,-3.5961265493899583,-0.5494697829863572,0.008761871606111526,-0.0010098814964294434,8.456182316505908,0.002027750015258789
1746232745897171000,9.3041708984375,0.7607542812414215,0.00440210709348321,0.12146265661466761,0.005149888806045055,0.13777840202242542,0.8151951399776421,0.784667995028159,right,0.0019322335720062256,-1.0393779493762152,3.4263694099262354,-3.599550678619742,-0.549291196262903,0.011775823310017586,-0.0006595253944396973,8.454206632518767,0.000530540943145752
1746232745937171000,9.3441708984375,0.7607403709558161,0.0072709303349256516,0.12169241305102327,0.007672498002648354,0.13779054729365908,0.8153102966037484,0.7843370632508897,right,0.00015807151794433594,-1.038773719678281,3.429841177690029,-3.6032980484545227,-0.54906637580455,0.007007718086242676,-0.0013227760791778564,8.451202190005779,0.0032657384872436523
1746232745977171000,9.3841708984375,0.761435426271658,0.004910278134047985,0.1219802174909574,0.01102264504879713,0.1378094394807306,0.8153023769395082,0.7846390829426797,right,-0.000052601099014282227,-1.0384084683732573,3.434474098187685,-3.6031472418069836,-0.5490095122571219,0.0012457389384508133,-0.00039702653884887695,8.449384911450743,0.0030345916748046875
1746232746017171000,9.4241708984375,0.7619522522752323,0.0028040441684424877,0.12223361557303926,0.010212767869234085,0.13771330759667666,0.8152983048513803,0.7846440891986385,right,-0.0005804300308227539,-1.038224197586227,3.4374104439005255,-3.602498130248487,-0.5489833024613182,0.002627233974635601,-0.0006158947944641113,8.448467212083935,0.004269897937774658
1746232746057171000,9.4641708984375,0.7622563632721299,0.0027541995514184237,0.12238885052584056,0.0051655895076692104,0.13764425212684034,0.8152969259705948,0.7846197111073102,right,-0.001421600580215454,-1.038121579923902,3.439104972858727,-3.602079904836416,-0.5489681287351484,0.0005406998097896576,0.00033295154571533203,8.447956339952349,0.005500614643096924
1746232746097171000,9.5041708984375,0.7626262870901653,0.003029640531167388,0.12255253496609993,0.005706341005861759,0.13761217713104582,0.8152910877388339,0.7847031034291405,right,-0.0012341737747192383,-1.0379720831825685,3.4413094971656797,-3.6017204238742586,-0.5489483068315391,0.0034213843755424023,0.00115281343460083,8.44721165906489,0.004592716693878174
1746232746137171000,9.5441708984375,0.7625564343295582,0.0016872085398063064,0.12259216957647535,-0.0038718432188034058,0.13761856675417386,0.8153259955157127,0.7845849610427162,right,-0.0016315281391143799,-1.037822983600789,3.441927921324968,-3.6028716397359966,-0.54888600200478,0.004552097991108894,0.0009053349494934082,8.446468731743098,0.0056015849113464355
1746232746177171000,9.5841708984375,0.7620171766318423,0.0024582152254879475,0.12250474298652758,-0.0074320463463664055,0.13769235362013849,0.8154111139142908,0.7842826807080276,right,0.0007475912570953369,-1.0376163564593275,3.441190254700184,-3.6059903562784195,-0.5487606480136648,0.00949786975979805,0.0006808042526245117,8.445439388695359,0.003421187400817871
1746232746217171000,9.6241708984375,0.761272075426926,0.004258070606738329,0.12240283408583078,-0.008892386220395565,0.1378328492484717,0.8155436557687358,0.7838941980122842,right,0.00014349818229675293,-1.0372177418312278,3.440824051736295,-3.6109900642618533,-0.5485510874406054,0.0072494614869356155,-0.0003402233123779297,8.443451429748535,0.004853308200836182
1746232746257171000,9.6641708984375,0.7607532882044755,0.0014633748214691877,0.12232291460359108,-0.007390195038169622,0.1379571118322225,0.8156358285958155,0.7836757194234446,right,0.001884549856185913,-1.036917813111344,3.4406969182252882,-3.6146094238027926,-0.5484006884972606,0.009494065307080746,-0.0004178285598754883,8.441955053710936,0.003441751003265381
1746232746297171000,9.7041708984375,0.7598249250762921,-0.005072183907032013,0.12226447284563044,-0.002435679081827402,0.1379237383269139,0.8158020804279293,0.7827851104070365,right,0.0022034943103790283,-1.0365994146337107,3.439190313054621,-3.6197500015616413,-0.5481747146340998,0.014787556603550911,-0.0015956461429595947,8.44036573869288,0.0021076202392578125
1746232746337171000,9.7441708984375,0.7588882680508662,-0.009200843051075935,0.12220670052206835,-0.004272685386240482,0.13775810639513442,0.8159502145368728,0.7816906174459024,right,-0.0001862049102783203,-1.036497229871345,3.4363919145077464,-3.6235955710738894,-0.5480087378257412,0.006142357364296913,-0.0015452206134796143,8.439855451083183,0.0032848119735717773
1746232746377171000,9.7841708984375,0.7579383960131122,-0.012836585752665997,0.1222028256274696,0.010154242627322674,0.13744320124468254,0.8161040484877294,0.7802846574693227,right,0.0003955662250518799,-1.0365035608338296,3.4329119634374976,-3.6268195015564557,-0.5478596067532403,0.013266008347272873,-0.0005863308906555176,8.439887015265226,0.0015457868576049805
1746232746417171000,9.8241708984375,0.7574034951106686,-0.0035436516627669334,0.12231566603983977,0.006445227190852165,0.1371038001573733,0.816220803668378,0.7790866640976467,right,-0.004880279302597046,-1.036490853246006,3.431044123739004,-3.6287320571795103,-0.5477454146589107,0.004879539832472801,-0.0019873380661010742,8.43982388690114,0.0033287405967712402
1746232746457171000,9.8641708984375,0.7576794969707826,-0.0011676927097141743,0.12241193207086702,0.00914011150598526,0.1369967350879852,0.8161910683363076,0.7790642420240278,right,-0.00006961822509765625,-1.036585418978241,3.4314968359425664,-3.627204993742704,-0.5477949819173651,-0.0007137455977499485,0.0032344162464141846,8.440296180588007,0.004833519458770752
1746232746497171000,9.9041708984375,0.7575777705323231,-0.0018418660620227456,0.12255058464262235,0.005895528942346573,0.13684080291300357,0.8162556151089683,0.778530981193137,right,-0.0016939938068389893,-1.0364420634062894,3.431959485018253,-3.6284333664938804,-0.5477068072615879,0.00829821266233921,0.0016778409481048584,8.43958014127314,0.0052106380462646484
1746232746537171000,9.9441708984375,0.7570930858579852,-0.005164623260498047,0.12253798773581315,-0.0061047496274113655,0.1367838178399012,0.8163451875400579,0.7779816295738277,right,-0.0014293193817138672,-1.036295832324672,3.4310487999141213,-3.6309941568925974,-0.5475904259579223,0.004695634823292494,0.0016170144081115723,8.438849488911032,0.0064566731452941895
1746232746577171000,9.9841708984375,0.7560978638703669,-0.004094591364264488,0.12237028593624187,-0.005347081925719976,0.13675013198009747,0.8164734753054945,0.7771831629208584,right,-0.000025659799575805664,-1.0362117669188455,3.4279198542386293,-3.634922728513181,-0.5474450156670108,0.011978361755609512,0.0004664957523345947,8.438429802194237,0.00262296199798584
1746232746617171000,10.0241708984375,0.7549318635698309,-0.004726811777800322,0.12218376535918773,-0.01202087476849556,0.13675819042300538,0.8166361566774585,0.7763030860104697,right,0.0011039376258850098,-1.036006705784065,3.424864558321237,-3.6401769957795738,-0.5472419535124894,0.011023985221982002,-0.0012079477310180664,8.437405135321617,0.0013914704322814941
1746232746657171000,10.0641708984375,0.75375788417708,-0.006045142188668251,0.12193179926308546,-0.011298554949462414,0.1368010958902151,0.8167743274411652,0.7755618185986735,right,0.0014809966087341309,-1.0359028190012574,3.4211885001569984,-3.6448341739356516,-0.5470811801956059,0.010907886549830437,-0.001191169023513794,8.436885495361686,-0.0007579922676086426
1746232746697171000,10.1041708984375,0.7528022196247995,-0.002251971047371626,0.12179571303636619,-0.0034202514216303825,0.13679151424138628,0.8169133184117737,0.7747922183571982,right,0.0003611147403717041,-1.035718092521979,3.418768287272751,-3.64923854637444,-0.5469062380847346,0.00490183662623167,-0.002720952033996582,8.435961950775981,0.0004151463508605957
1746232746737171000,10.1441708984375,0.7525615583299456,0.00025871535763144493,0.12174953841107158,-0.006638805847615004,0.13679253630528213,0.816943092049034,0.7746208368600669,right,-0.0015734434127807617,-1.035695873862941,3.4180180534273386,-3.6501980390563604,-0.5468717924847017,-0.003221397288143635,-0.002381652593612671,8.43585089161694,0.0015801787376403809
1746232746777171000,10.1841708984375,0.7525760379322569,0.003075956366956234,0.12171386223353521,0.0043105618096888065,0.1368368846167738,0.8169295929851743,0.7747525984914082,right,0.0012636780738830566,-1.035719329403244,3.4179353435799475,-3.6500036855280396,-0.5468887829579139,0.0013444889336824417,-0.0008230805397033691,8.435968380516767,0.0014917254447937012
1746232746817171000,10.2241708984375,0.7528501821761446,0.0008549671620130539,0.12184524558451958,0.008775505237281322,0.13677767912467603,0.8169249295052297,0.7747474802158443,right,-0.0025645196437835693,-1.0356434247965927,3.419374436472356,-3.6495346067115664,-0.5468813908355136,-0.0006387142930179834,-0.00003921985626220703,8.43558844128847,0.004428744316101074
1746232746857171000,10.2641708984375,0.7531741921423734,-0.0012976196594536304,0.12190922440895201,0.0007925359532237053,0.13673078004209843,0.8168784608864265,0.7749085828446074,right,-0.0020780861377716064,-1.0357459801925128,3.4199648035809393,-3.647795069567859,-0.5469482235743168,-0.0011218481231480837,0.0007906258106231689,8.436101651507615,0.004658520221710205
1746232746897171000,10.3041708984375,0.7528610152814877,-0.0035406439565122128,0.12185412770967127,0.00007998576620593667,0.13665115813521433,0.8169067762739657,0.7745591557763594,right,-0.00115966796875,-1.0358420045653773,3.418268521057069,-3.6482749620392916,-0.5469381317934814,0.0018904013559222221,-0.00022733211517333984,8.436581543979049,0.0028681159019470215
1746232746937171000,10.3441708984375,0.7525738547021946,-0.0030095879919826984,0.12179018089798906,-0.001778898760676384,0.1366068283579518,0.8169307740332907,0.7743005458759359,right,-0.00039961934089660645,-1.0359154798358854,3.416797571721673,-3.6488048311322925,-0.5469276843014897,0.0009498447179794312,-0.00007840991020202637,8.436949208247661,0.0009882450103759766
1746232746977171000,10.3841708984375,0.7523232538940908,0.0017583426088094711,0.1216837610413584,-0.005953030660748482,0.13665321592408525,0.8169405157732584,0.7742738820558586,right,-0.0010292530059814453,-1.0359634099101651,3.415606900632381,-3.649365679885447,-0.5469252291850216,-0.004238346591591835,-0.0004500448703765869,8.437188862222433,0.0011543631553649902
1746232747017171000,10.4241708984375,0.7525684684193397,0.00778290955349803,0.12156128029716769,-0.007099264767020941,0.13685399899621228,0.8168596332930523,0.7749927999026429,right,0.0004348158836364746,-1.0360732791627978,3.415867889656126,-3.647851183669269,-0.5470230479038548,-0.010832778178155422,0.000007212162017822266,8.437737728276849,0.0023559927940368652
1746232747057171000,10.4641708984375,0.753002192817123,0.008845283649861813,0.12147863538003768,-0.010632673278450966,0.13711649678268015,0.8167671313355589,0.7759326059362511,right,-0.000734865665435791,-1.0360846644727133,3.417383554916084,-3.6462986935302615,-0.5471137460357942,-0.0054376632906496525,-0.0009894371032714844,8.437794426900147,0.003338754177093506
1746232747097171000,10.5041708984375,0.7529669730053482,0.005741909146308899,0.12137240968850928,-0.007840573787689209,0.13735192345149172,0.816760238838786,0.7763988695387265,right,0.0013207197189331055,-1.0359340468188352,3.4181238518893715,-3.6473461567565795,-0.5470885223038693,-0.00006283354014158249,0.0002650618553161621,8.43704156270623,0.004210293292999268
1746232747137171000,10.5441708984375,0.7530014439894164,-0.00012294529005885124,0.12127721502946183,-0.005697454325854778,0.13745429278701202,0.8167226027919979,0.7767227731991251,right,-0.0010657906532287598,-1.0360211814454179,3.417746835270524,-3.6466917845010753,-0.5471401135746612,-0.008893982507288456,-0.00020110607147216797,8.437477616035938,0.005637168884277344
1746232747177171000,10.5841708984375,0.7532254096854801,-0.005146794021129608,0.12121796596676428,0.0024463748559355736,0.13745507367802898,0.8166454708719966,0.7770338673621595,right,0.0013995766639709473,-1.0362976411687421,3.4169679598525167,-3.644224809865653,-0.5472681797509439,-0.006824340671300888,-0.0003663003444671631,8.438858841261267,0.0037660598754882812
1746232747217171000,10.6241708984375,0.7529489533267463,-0.00406377948820591,0.12107605640891828,-0.0043117580935359,0.13738834259355964,0.8166256571646021,0.7768666210230774,right,0.00005269050598144531,-1.0366129906787582,3.414141504254937,-3.6432282000437377,-0.5473460089765142,-0.0037612956948578358,-0.0009052455425262451,8.440433543232082,0.0034257173538208008
1746232747257171000,10.6641708984375,0.7534308856397003,0.0037207314744591713,0.12103771413395517,-0.0011112485080957413,0.13746653362511177,0.8165152190404589,0.777518639591002,right,0.0007049441337585449,-1.036851601650019,3.4145185208737847,-3.640112990632653,-0.5474995577270012,-0.011394429951906204,-0.00013065338134765625,8.441624798843264,0.005041062831878662
1746232747297171000,10.7041708984375,0.7540353751405471,0.003963259980082512,0.12104893252269898,0.0022823417093604803,0.13756262174041742,0.8164053618184631,0.7782470672903599,right,0.002355039119720459,-1.0370037168741681,3.4158395403444763,-3.637112347511947,-0.5476367733144965,-0.004464633297175169,0.00045996904373168945,8.442384092777967,0.0033584237098693848
1746232747337171000,10.7441708984375,0.7543769971340537,0.002684773877263069,0.12109098870713418,-0.0007832413539290428,0.13762352857571689,0.8163616570830061,0.778616380259191,right,-0.0007827579975128174,-1.0369879614181892,3.4171725425139066,-3.636042087931931,-0.5476773027671292,-0.0035259330179542303,0.00017949938774108887,8.44230518232286,0.006369352340698242
1746232747377171000,10.7841708984375,0.7544964585119746,0.0018313080072402954,0.12104193680962537,-0.0010792301036417484,0.13767547537774122,0.8163202574122856,0.7788835845508609,right,0.0006038844585418701,-1.0370916442152056,3.417007707341015,-3.6349963782712815,-0.5477368211999692,-0.000834673410281539,-0.0003650486469268799,8.442822484195231,0.003994762897491455
1746232747417171000,10.8241708984375,0.7544897919638329,0.0004513452295213938,0.12101820227939734,0.000009099836461246014,0.13770405654492104,0.8163146555753891,0.7789535979518962,right,0.0015350878238677979,-1.0370993673380122,3.416938733758032,-3.63497153609097,-0.5477432206637185,0.0008808817947283387,-0.0006313920021057129,8.44286106263995,0.003596961498260498
1746232747457171000,10.8641708984375,0.7545337631847365,-0.001399322645738721,0.12098413509789843,-0.005532138980925083,0.13776730481009003,0.8162985936389522,0.7791402427664309,right,0.0011869370937347412,-1.0371031891628257,3.4170766809239983,-3.634797933089733,-0.5477588164028211,0.0005552612710744143,-0.0014747977256774902,8.44288035186231,0.0013342499732971191
1746232747497171000,10.9041708984375,0.7543226384904773,0.0021293398458510637,0.12095314597136975,0.0006752721965312958,0.1378160064123599,0.8163367548441233,0.7790463820813038,right,-0.000887066125869751,-1.0369792712397456,3.41702611978054,-3.636282326428592,-0.5476965814801052,-0.00023995561059564352,-0.0011503994464874268,8.442261927703022,0.001673877239227295
1746232747537171000,10.9441708984375,0.7546927223177184,0.004306445829570293,0.12094746274223361,-0.004874056670814753,0.13793996094733277,0.8162735961090075,0.7796064973367329,right,-0.0009509921073913574,-1.0369932608408747,3.418290440627932,-3.6349309118196365,-0.547760726202706,-0.009811902418732643,-0.000287860631942749,8.442331485807895,0.003910422325134277
1746232747577171000,10.9841708984375,0.7552550046058877,0.004445388447493315,0.12100162975194598,0.0012711789458990097,0.1380849899389067,0.8162013413166163,0.7803022250371078,right,0.0016425251960754395,-1.0369292180761651,3.420704516032338,-3.6334023870781063,-0.5478199091036645,-0.00003996212035417557,0.000982820987701416,8.442012336856127,0.003164529800415039
1746232747617171000,11.0241708984375,0.7556177487280014,0.0041472287848591805,0.12108413857060797,0.002334372140467167,0.13811528477773746,0.8161677731220631,0.7805885921447384,right,-0.0009088814258575439,-1.0368747927492021,3.422336208887398,-3.632494332322478,-0.5478439268850481,-0.005541582126170397,0.00006565451622009277,8.441740534177422,0.0052356719970703125
1746232747657171000,11.0641708984375,0.756292768768948,-0.00003527011722326279,0.12116361444482356,0.005385476164519787,0.1381494576122792,0.8160661433138097,0.7811967657523812,right,0.0007810294628143311,-1.0369980374668915,3.4240734079435464,-3.629426469184458,-0.5479691027181288,-0.005112776532769203,0.0006942451000213623,8.442355451205373,0.004439055919647217
1746232747697171000,11.1041708984375,0.7564767978508861,-0.0008063913555815816,0.12123684815757593,0.0035093938931822777,0.1380707093038997,0.8160497161657018,0.7811577765887464,right,-0.0010175704956054688,-1.0370507079799842,3.424436396037042,-3.628473113982379,-0.547997251166355,0.002809274010360241,-0.0006448924541473389,8.442618486055732,0.003632187843322754
1746232747737171000,11.1441708984375,0.7564463107638365,0.0013659565011039376,0.12125077846100543,-0.0010692342184484005,0.13806230784888746,0.8160617338938841,0.7810946754515649,right,-0.0012342631816864014,-1.0370126428404243,3.424546578413248,-3.628811552156508,-0.5479784237312461,-0.0032237120904028416,-0.0012021958827972412,8.442428516441582,0.0037786364555358887
1746232747777171000,11.1841708984375,0.7568636387983609,0.0052271620370447636,0.12128031173981887,-0.0001171115436591208,0.1381266615742263,0.8159961711685239,0.7815628820407461,right,-0.00001710653305053711,-1.0370648906002098,3.4257577077686783,-3.627061493618786,-0.5480533019320541,-0.003112174803391099,-0.00023278594017028809,8.442689213204384,0.0009824037551879883
1746232747817171000,11.2241708984375,0.7575189925664655,0.00981951504945755,0.12137806923738889,-0.0016349728684872389,0.13828634366935372,0.8159271137281033,0.7823095296901533,right,-0.0008693933486938477,-1.0369181946309831,3.4289854376435276,-3.625715924228728,-0.5480942511905887,-0.005877697840332985,-0.0007725656032562256,8.441957391798496,0.001978576183319092
1746232747857171000,11.2641708984375,0.7582748743867475,0.012945088557898998,0.12141907986957647,-0.007457283325493336,0.13854894591434158,0.815824776113621,0.7833907374886158,right,-0.0008451938629150391,-1.0367967243474938,3.4324300251394506,-3.623867081491649,-0.5481711512623029,-0.008846263401210308,-0.0007391571998596191,8.441350658077,0.0038022994995117188
1746232747897171000,11.3041708984375,0.7590025584296539,0.012908907607197762,0.12142083595443166,-0.005611063446849585,0.13888311370864465,0.8157204797504662,0.7846063920292771,right,0.001221299171447754,-1.0366370809853758,3.43599385510087,-3.622346740056574,-0.5482414662269867,-0.0035414337180554867,0.0003210902214050293,8.440553954741358,0.004355430603027344
1746232747937171000,11.3441708984375,0.759781816847575,0.021512527018785477,0.12152077386209008,-0.002849015174433589,0.13921184935810446,0.8156511407968334,0.7857224481982069,right,0.000022679567337036133,-1.0362688816536605,3.440956153683364,-3.6219209158599375,-0.5482391182151258,-0.0008257189765572548,-0.000914454460144043,8.438715048876404,0.004479169845581055
1746232747977171000,11.3841708984375,0.7601941302522939,0.04636629670858383,0.12165133563024172,-0.02411353960633278,0.13990963795252093,0.8157305013089919,0.7869712113611116,right,-0.001279294490814209,-1.0349962568531947,3.4498458548426627,-3.628281390802562,-0.5479143128202277,0.0270928256213665,-0.0012253522872924805,8.432350190019607,0.003654658794403076
1746232748017171000,11.4241708984375,0.760493147178547,0.04135756567120552,0.12202512078739391,-0.002909349277615547,0.14056809389117256,0.8159435265103554,0.7876947709628834,right,-0.0027148425579071045,-1.0331178151026479,3.46184316662848,-3.6387194904476403,-0.547345237757947,0.022648153826594353,-0.0011712908744812012,8.422931204289197,0.0043253302574157715
1746232748057171000,11.4641708984375,0.7615081579047009,0.045151691883802414,0.12243243816702258,-0.008264204487204552,0.14126915791402767,0.8160227509572641,0.7891469327522086,right,-0.007162332534790039,-1.0314887454571788,3.474998124016821,-3.6451308187946676,-0.5469555394838918,0.01718457043170929,0.0003736913204193115,8.41473796096146,0.007834970951080322
1746232748097171000,11.5041708984375,0.7616856354162118,0.03851398825645447,0.12257501515970778,-0.021455520763993263,0.14210940398358005,0.8161747487379236,0.7903547730203307,right,0.001933753490447998,-1.0298198790776185,3.4853304251998662,-3.6546699237734077,-0.5464787851569926,0.025395069271326065,0.004953116178512573,8.406321430271863,0.010457038879394531
1746232748137171000,11.5441708984375,0.7611419550268352,0.03874897211790085,0.12291006543791178,-0.011150358244776726,0.14297533413880056,0.8165768196228776,0.7906009339586785,right,0.00618627667427063,-1.0272188172298011,3.498414070917666,-3.672384736423194,-0.5455764014354701,0.06307746469974518,0.0023126304149627686,8.393157412794231,0.007240712642669678
1746232748177171000,11.5841708984375,0.7581952668062458,0.024441279470920563,0.12285709717092366,-0.04634416103363037,0.14372480446052358,0.8172994401191684,0.788844452550964,right,0.005443572998046875,-1.0244140351112185,3.503750755770504,-3.699755850690603,-0.5443079059494469,0.0693913996219635,0.0011890232563018799,8.378898585817216,0.00919109582901001
1746232748217171000,11.6241708984375,0.7540289624444949,0.015464065596461296,0.12248981221460002,-0.04590826854109764,0.1443827503662612,0.8181283278629834,0.7861957198874039,right,0.005880177021026611,-1.0218347882005059,3.503089076991379,-3.730061849366128,-0.5429696384391047,0.07964453846216202,0.0003490746021270752,8.365728138598799,0.0056795477867126465
1746232748257171000,11.6641708984375,0.7489676038683578,-0.01119040697813034,0.12195457985963733,-0.022643832489848137,0.14490562834647466,0.8190584431783744,0.7827009416467319,right,0.016066670417785645,-1.0193602700985918,3.498249528005719,-3.7628944439098237,-0.541546731003383,0.06268379092216492,0.003019005060195923,8.353039921939372,0.004438519477844238
1746232748297171000,11.7041708984375,0.7461935132207436,-0.013596802949905396,0.12164379377948328,0.00514552928507328,0.14490130792648262,0.8195199667639577,0.7803813764381726,right,0.010412991046905518,-1.018525701112533,3.4925288122713565,-3.777702136941254,-0.5409192112042502,0.029137607663869858,-0.0026824474334716797,8.348748946747182,-0.004150032997131348
1746232748337171000,11.7441708984375,0.7453309293021138,-0.014151393435895443,0.12163725237855359,0.0007957709021866322,0.1444893709249517,0.8196477767922655,0.7789218531182204,right,0.0017160475254058838,-1.0187274866508833,3.4881256088763473,-3.7794744073107838,-0.5408371420763297,0.0021251533180475235,-0.007537215948104858,8.349787057623267,-0.0064574480056762695
1746232748377171000,11.7841708984375,0.7458018292726261,0.0036171739920973778,0.12170945278332537,0.023214006796479225,0.14431013042287624,0.8195524710312229,0.7790212500489013,right,0.0033779144287109375,-1.0191243706643287,3.4876556532770393,-3.775396490347385,-0.541013093191364,-0.014363246038556099,-0.002795398235321045,8.351827623540162,-0.005142569541931152
1746232748417171000,11.8241708984375,0.7481980967617452,0.012046045623719692,0.12219370773067309,0.03180275112390518,0.1441746818206662,0.8192386991939992,0.780504716693583,right,0.0017095208168029785,-1.01953004046485,3.494387299619615,-3.7645448414653537,-0.5414151246626934,-0.020359069108963013,-0.0011355578899383545,8.353912028598785,-0.0015326142311096191
1746232748457171000,11.8641708984375,0.750840875888912,0.018869660794734955,0.12277163710239564,0.02264416217803955,0.14416445606998707,0.8189342338307405,0.7822825488332755,right,-0.00384405255317688,-1.0196268764826693,3.503771798558533,-3.75470499997437,-0.5417475899806801,-0.01400795578956604,-0.0007358789443969727,8.354409456726907,0.0038196444511413574
1746232748497171000,11.9041708984375,0.7524656621405666,0.014795579016208649,0.1231269610462185,0.008236737921833992,0.14429592142296765,0.8187666752089533,0.783579060456682,right,-0.0032678544521331787,-1.0194529223908941,3.510860295514762,-3.7500676955625414,-0.5418851524586475,-0.003929332830011845,0.003884613513946533,8.353515722757578,0.007347226142883301
1746232748537171000,11.9441708984375,0.7530242462389611,0.009561317041516304,0.12338785420261032,0.0008252868428826332,0.1443770297746794,0.8187810356679113,0.7838754466700195,right,-0.00486108660697937,-1.018979933147388,3.5156560053586956,-3.7509883175387975,-0.5417824886081978,0.007645118050277233,0.003772050142288208,8.35108528074026,0.007622659206390381
1746232748577171000,11.9841708984375,0.752738738023375,0.0019889939576387405,0.12347273215239488,-0.007827668450772762,0.14441793434313113,0.8188908574756542,0.7835272719146773,right,-0.004668563604354858,-1.0185282691413071,3.5171640718340873,-3.754745331984758,-0.5415863367689128,0.005372398532927036,0.0014079809188842773,8.348762390750647,0.007400870323181152
1746232748617171000,12.0241708984375,0.7523877087623886,-0.0019340240396559238,0.12343171651910469,-0.00035378802567720413,0.14438180342037485,0.8189433404508006,0.7831835998439279,right,-0.00160902738571167,-1.0184876167422707,3.5160777379021044,-3.7562270949751135,-0.5415259284034523,0.002003912813961506,-0.0005807876586914062,8.348553131914139,0.002478659152984619
1746232748657171000,12.0641708984375,0.752278277233971,0.0014219230506569147,0.12337837893326843,-0.005127584096044302,0.1443498818163678,0.8189371737049569,0.7831051044165425,right,-0.0007532835006713867,-1.0186129006724034,3.5149519487425684,-3.755848324790597,-0.5415559210109302,-0.006145992316305637,-0.0021056532859802246,8.349197859558462,0.0007773637771606445
1746232748697171000,12.1041708984375,0.7522977251232059,0.0016905009979382157,0.12323488785553534,-0.007440354209393263,0.14439897223427786,0.8188706701127898,0.7834063655662842,right,-0.0000059604644775390625,-1.0189068749250467,3.5133483129382133,-3.753988376137614,-0.5416761298181965,-0.008032173849642277,-0.002496272325515747,8.350709433165193,-0.00025975704193115234
1746232748737171000,12.1441708984375,0.7521813005477818,0.004818040877580643,0.12308328272313303,-0.008290676400065422,0.14451290743965273,0.8188394617796138,0.7836797256817287,right,0.0011158883571624756,-1.019032646222733,3.5121938822060823,-3.753630648741126,-0.54172742692901,-0.0006090374663472176,-0.0022521913051605225,8.351356498897076,-0.0014206767082214355
1746232748777171000,12.1841708984375,0.7520964678177009,0.008529792539775372,0.12305165233961213,-0.007695972919464111,0.1446900863339843,0.8188681935095241,0.7839030414062778,right,0.000020831823348999023,-1.0187652728064414,3.51340062764734,-3.7555589864552017,-0.5416438651741801,0.0023867012932896614,-0.0016081035137176514,8.349981703412531,0.0014259815216064453
1746232748817171000,12.2241708984375,0.7523632657952413,0.008099221624433994,0.12296055653591047,-0.008145153522491455,0.14493171373944166,0.8187997528006489,0.7846590378083319,right,-0.0002733170986175537,-1.0187465862386622,3.514508588889241,-3.754734810590744,-0.5417033432247607,-0.011800765991210938,0.00024572014808654785,8.349885257300734,0.0035112500190734863
1746232748857171000,12.2641708984375,0.7529876589475801,0.004305429290980101,0.12287493308744724,-0.005416599102318287,0.14514998352402284,0.818651842169646,0.785729169097305,right,0.0013668239116668701,-1.0189621683368502,3.5156212263062594,-3.7512262179479,-0.541887858009173,-0.01129724457859993,0.0006663203239440918,8.35099409532547,0.004220724105834961
1746232748897171000,12.3041708984375,0.753463057069535,0.0026343041099607944,0.12282254947277473,-0.003979647532105446,0.14528361795163197,0.8185408070366872,0.7864771454944038,right,0.0010864436626434326,-1.0191479122562381,3.5163425263181325,-3.748422850964963,-0.5420316006431499,-0.009988786652684212,0.0007280111312866211,8.351948619571328,0.006234943866729736
1746232748937171000,12.3441708984375,0.7536908835036309,-0.0022726906463503838,0.12277666443706943,-0.0001387756783515215,0.14529498853291972,0.818470155312728,0.7867880566238465,right,0.0016743838787078857,-1.0193778892760859,3.51588133854717,-3.746220372484624,-0.5421455674650072,-0.0049646771512925625,-0.0009821951389312744,8.353130522832274,0.006885945796966553
1746232748977171000,12.3841708984375,0.7535450420159318,-0.002479437505826354,0.1227171209992037,-0.0009977498557418585,0.14527966142561718,0.8184714124386017,0.7867067784164702,right,-0.00012478232383728027,-1.0194696700239898,3.5148102021843193,-3.746173902994394,-0.5421612383613463,0.0031457380391657352,0.0003097951412200928,8.35360223199725,0.0077991485595703125
1746232749017171000,12.4241708984375,0.7531711737165244,-0.002935319673269987,0.12273059752269319,0.000988916028290987,0.14518498110070346,0.8185468015689382,0.7861743650877906,right,0.0004055798053741455,-1.019376712858718,3.5139407258734106,-3.748054309913516,-0.5420697548687362,0.00802060216665268,0.0008757412433624268,8.353124677613376,0.008616328239440918
1746232749057171000,12.4641708984375,0.75233874073805,-0.007239618804305792,0.12265431297521431,-0.0023912626784294844,0.14509668840683737,0.8186808893927152,0.7853249557486887,right,0.003271937370300293,-1.0192330798391462,3.511640339976549,-3.7518551635012027,-0.5419082528112484,0.010630462318658829,0.0009013116359710693,8.352386426466703,0.007109522819519043
1746232749097171000,12.5041708984375,0.7512093397401809,-0.007032881025224924,0.12253598721986163,-0.00012754136696457863,0.14492592654817152,0.8188482788156359,0.7841188113341362,right,0.002121537923812866,-1.0191603716119484,3.5078143519476055,-3.75626187402755,-0.541727689153291,0.014560148119926453,0.00022011995315551758,8.352012916979193,0.0036513209342956543
1746232749137171000,12.5441708984375,0.7502757100575878,-0.0016519608907401562,0.12250374855479997,-0.002877942519262433,0.14480843057681178,0.8190218193006282,0.7830610968046343,right,-0.0001983940601348877,-1.0188926830135607,3.5058299001321194,-3.7611698120743036,-0.5415039611196257,0.015722721815109253,-0.0018617212772369385,8.350636952450872,0.0029953718185424805
1746232749177171000,12.5841708984375,0.749435993375756,0.010587627068161964,0.12248965160782008,0.000027894973754882812,0.14483887093590192,0.8192048681162645,0.7822892206989532,right,0.002382516860961914,-1.0183836642605293,3.5055656962379813,-3.7672239975467323,-0.5412220644280985,0.02033321000635624,-0.000626981258392334,8.348018294385074,0.00210416316986084
1746232749217171000,12.6241708984375,0.7490621425962651,0.009836272336542606,0.12261942093431169,-0.004123880993574858,0.14494854229169685,0.8193662753982627,0.7818892517894562,right,0.0016418993473052979,-1.0176474660738868,3.5083412984311577,-3.7730341451302167,-0.5409189200405383,0.016718819737434387,-0.0019666552543640137,8.344227669930458,0.0007039308547973633
1746232749257171000,12.6641708984375,0.7487739088425507,0.003754406701773405,0.12267380784223568,0.0018586697988212109,0.14507489415385172,0.8194745640179878,0.7817092657478939,right,0.001886516809463501,-1.017125449737061,3.5102179059579965,-3.7772348116904495,-0.540708571124577,0.0067399004474282265,-0.0012541413307189941,8.34153711567223,0.0023071765899658203
1746232749297171000,12.7041708984375,0.749122694070914,0.006790737621486187,0.12280646139113112,0.00967353954911232,0.1451052856042078,0.8194660115580377,0.7819085417506295,right,0.0013002455234527588,-1.0169415343678718,3.5125793743923306,-3.7771333971425887,-0.5406832395019806,-0.0018756156787276268,-0.0003050565719604492,8.34058843664527,0.006222188472747803
1746232749337171000,12.7441708984375,0.7499435664401833,0.0013616010546684265,0.12302881201051023,0.008860624395310879,0.14508070987448052,0.8193885250927558,0.7823665200546472,right,0.00006389617919921875,-1.0169000862393038,3.515914656294882,-3.774502171856165,-0.5407567525724712,0.0010951557196676731,0.0010435879230499268,8.340374501633644,0.00811457633972168
1746232749377171000,12.7841708984375,0.7500532842423787,-0.00503222132101655,0.12319565785998554,0.007058779709041119,0.1449048876797097,0.8194200254096975,0.7819726667451763,right,-0.0012517273426055908,-1.016835281549836,3.516698207888007,-3.774512693250179,-0.5407182703416191,0.008319560438394547,0.0014615356922149658,8.340040739634633,0.008836448192596436
1746232749417171000,12.8241708984375,0.7493943041770433,-0.011905087158083916,0.12332391366494629,0.007517908699810505,0.14458853326196022,0.8195829156967116,0.780660734250466,right,-0.003412306308746338,-1.016651261305655,3.5152553156033157,-3.7779528968319296,-0.5405268107977675,0.022566936910152435,0.0019013583660125732,8.339090891563892,0.007475316524505615
1746232749457171000,12.8641708984375,0.7476253817318504,-0.015751225873827934,0.12328054705830094,-0.007571615278720856,0.1442225506741236,0.8199016131625507,0.7784188219958849,right,-0.005221426486968994,-1.0163304439669,3.5103859560012816,-3.7861271431982515,-0.540151052371676,0.029450416564941406,0.00011929869651794434,8.33743494105041,0.006712555885314941
1746232749497171000,12.9041708984375,0.7448406875167635,-0.017600232735276222,0.12299565162171423,-0.013751227408647537,0.14398041743845855,0.8203467670581169,0.7756993000972183,right,-0.0010695457458496094,-1.0158101641447856,3.5027699280396103,-3.799077225664258,-0.5396045293074098,0.039674319326877594,0.0014577507972717285,8.33474789392352,0.0027385950088500977
1746232749537171000,12.9441708984375,0.7416564362293954,-0.019698049873113632,0.12272149480434551,-0.003470120020210743,0.14366566613986206,0.8208762487762313,0.7724583006613782,right,0.0017287731170654297,-1.015136876427965,3.4944439982429145,-3.814347567771375,-0.538945117770673,0.043027035892009735,0.0025985538959503174,8.331266481548548,0.0017722845077514648
1746232749577171000,12.9841708984375,0.7386294105888299,-0.026096943765878677,0.12260914982962398,0.009455104358494282,0.14311028882905621,0.8214155592926248,0.7687822483005691,right,-0.00023436546325683594,-1.0145379513646577,3.486240525782108,-3.82859616561532,-0.5382963146463874,0.03429364040493965,-0.0022002458572387695,8.32816676196754,0.004400193691253662
1746232749617171000,13.0241708984375,0.7365093699427526,-0.027605285868048668,0.12244048243568452,0.0022048824466764927,0.14254889800103343,0.82172279508869,0.7660841245188865,right,-0.003240227699279785,-1.0146397979431523,3.4775466394558547,-3.8353509005725384,-0.5380147440526211,0.011547110974788666,-0.003233015537261963,8.328694000712037,0.005335032939910889
1746232749657171000,13.0641708984375,0.7351699906158449,-0.03724561631679535,0.12217803857596685,0.012187719345092773,0.14195869870208278,0.8218023989334371,0.7642590447888973,right,0.0016154348850250244,-1.015510339687751,3.4675416705310345,-3.8346252166464923,-0.5381087828448935,-0.0134297925978899,-0.002069413661956787,8.333197741872072,0.004070699214935303
1746232749697171000,13.1041708984375,0.7353913941739285,-0.047288667410612106,0.12188691832200418,0.019518081098794937,0.14111173513763162,0.821475768660735,0.7636535810228242,right,0.0005670785903930664,-1.0178488389339644,3.455307627379894,-3.819395791071653,-0.5388957225798027,-0.06034757196903229,-0.0008185803890228271,8.345265196284652,0.003389596939086914
1746232749737171000,13.1441708984375,0.7369933406562936,-0.0387478806078434,0.12145180177836132,0.01836317591369152,0.14028124882385878,0.8207700197780339,0.7646604868372447,right,-0.002286672592163086,-1.0213687124178632,3.4416587489947674,-3.7920804986447094,-0.5402843430700732,-0.0684569776058197,0.0006112754344940186,8.363342120245099,-0.0008919239044189453
1746232749777171000,13.1841708984375,0.7379198033872992,-0.02580900862812996,0.12116392479425692,0.0006923936307430267,0.1397250502148469,0.820332269872753,0.765184023158994,right,-0.002729862928390503,-1.0236222156209516,3.432482339848578,-3.774936179359257,-0.5411572088986332,-0.01996656134724617,0.0008245706558227539,8.374861293125152,0.0006905198097229004
1746232749817171000,13.2241708984375,0.7360630819504363,-0.010842408984899521,0.12078996881251979,-0.01808636076748371,0.13947239178358176,0.8205180230965169,0.7635043873047387,right,-0.0013557970523834229,-1.0239080386763588,3.4238606419757005,-3.779529352368414,-0.5410244204412973,0.03736500069499016,0.0037948787212371826,8.376319090718031,0.002726614475250244
1746232749857171000,13.2641708984375,0.7323823145773792,-0.008004763163626194,0.12045445422071652,-0.017345549538731575,0.13935452252404354,0.821151026137012,0.7601478057004558,right,0.0017687678337097168,-1.0227575776793825,3.416366486828029,-3.7992683643221854,-0.5401684466339484,0.052491649985313416,0.0022069215774536133,8.37044639929235,0.00218963623046875
