time,seconds_elapsed,roll,rotationRateZ,quaternionY,rotationRateY,quaternionZ,quaternionW,yaw,devicelocation,accelerationZ,pitch,gravityX,gravityZ,quaternionX,rotationRateX,accelerationX,gravityY,accelerationY
1746232602220246500,0.21024658203125,-0.9836109125620935,-0.22397613525390625,-0.47079515397019944,0.05233252793550491,2.1781291734505446e-17,0.88090568787229,-0.04589852144971855,right,-0.40729421377182007,-0.08564066996322184,-8.134147580167651,-5.413169542104005,-0.048550045395891944,-0.12549054622650146,0.7144759893417358,0.8388217910565435,0.19983622431755066
1746232602260246500,0.25024658203125,-0.1433414200071965,-0.1868395358324051,-0.09325640687288624,-0.0017216578125953674,0.1725202033001776,0.9721603656864554,0.3306375492736257,right,-0.008587181568145752,-0.2853650382638764,-1.3442360956281423,-9.313551425513625,-0.12823528197275197,-0.1284467577934265,0.01879725605249405,2.76064749289006,0.0037439465522766113
1746232602300246500,0.29024658203125,-0.120958380457585,-0.13371466100215912,-0.08298540244659042,-0.01410017628222704,0.17294290017177527,0.972463116475007,0.3343040191204529,right,0.003191232681274414,-0.2901924909848152,-1.1338299887813628,-9.327965735313295,-0.13236142143076865,-0.14319346845149994,-0.004662416875362396,2.8060417551040646,0.005200624465942383
1746232602340246500,0.33024658203125,-0.12276543273682361,-0.11136270314455032,-0.0836936891930708,-0.007188650779426098,0.17087477289585384,0.9726491159992693,0.3297417331971599,right,0.00743412971496582,-0.29190779883205614,-1.1500931413181126,-9.321111047112941,-0.13323281521685734,-0.13118313252925873,-0.003290921449661255,2.8221558545589445,0.008479446172714233
1746232602380246500,0.37024658203125,-0.12504631096717878,-0.0843948945403099,-0.0847524383782084,0.007028110325336456,0.1686880422772333,0.9726877411377568,0.32479122498650814,right,0.009054124355316162,-0.29561446470047464,-1.1700376857813446,-9.308020094871521,-0.13505581463264374,-0.11100002378225327,-0.002636954188346863,2.8569486432597038,0.010294675827026367
1746232602420246500,0.41024658203125,-0.12657186556068933,-0.06202787905931473,-0.08554833192080163,0.02362828515470028,0.16678432822150702,0.9726207120478887,0.3204833902176879,right,0.009455502033233643,-0.300267317790482,-1.1825454313073307,-9.292937092030048,-0.13738106185119847,-0.09927432984113693,0.0022232308983802795,2.900567127972841,0.013124853372573853
1746232602460246500,0.45024658203125,-0.12661779417952654,-0.05611386522650719,-0.08566291109685335,0.046740368008613586,0.16558944648157417,0.9725427835802904,0.3178756639939694,right,0.007248103618621826,-0.30396653024664655,-1.1816091733705252,-9.282175459519028,-0.13929335529175596,-0.09788568317890167,0.006054483354091644,2.9352009267196055,0.018039286136627197
1746232602500246500,0.49024658203125,-0.1254205091879012,-0.05638986825942993,-0.08523873256729221,0.06381206214427948,0.16409118277836157,0.9724362863354922,0.3147687119507914,right,0.003917872905731201,-0.3091295408615458,-1.168583614515513,-9.268424582064151,-0.14204308729988263,-0.09543424099683762,0.006810463964939117,2.983472497935593,0.018703967332839966
1746232602540246500,0.53024658203125,-0.12316393461815851,-0.06426472216844559,-0.08434939344731678,0.05568936467170715,0.1623398922860132,0.9722984520868672,0.31126131188476996,right,0.0013983845710754395,-0.3155109970734783,-1.1453034228235484,-9.251954508778452,-0.14548811706104417,-0.0941459983587265,0.006432235240936279,3.043025633883476,0.01878926157951355
1746232602580246500,0.57024658203125,-0.12202899585271032,-0.07299496978521347,-0.08388754461559175,0.03858311474323273,0.16113673647477578,0.9722323035435001,0.3088201076600033,right,-0.0013800859451293945,-0.3192793041351609,-1.1333983924310653,-9.241800779032706,-0.1475201130200498,-0.09705445170402527,0.003263145685195923,3.0781340644046664,0.017783761024475098
1746232602620246500,0.61024658203125,-0.1209023144031871,-0.08172520995140076,-0.08342520304539887,0.021476861089468002,0.15993269166199878,0.9721605742278191,0.3063804676077148,right,-0.004175245761871338,-0.32305028673608194,-1.1215771678645163,-9.23148338315785,-0.14955127068879517,-0.09996289759874344,0.00010258704423904419,3.1132240824863313,0.01678013801574707
1746232602660246500,0.65024658203125,-0.11998913015376361,-0.1346937119960785,-0.0830108115055001,0.08729018270969391,0.1564820296641813,0.9720635507861829,0.29913005529880854,right,0.007820844650268555,-0.33140147398413056,-1.1099957434032113,-9.206369984689355,-0.1539967025216545,-0.1779373735189438,0.010188981890678406,3.190775231939554,0.016710937023162842
1746232602700246500,0.69024658203125,-0.11731249382165744,-0.16800932586193085,-0.08168705128496873,0.13760925829410553,0.15316251567782235,0.9720533051194216,0.2924786299364907,right,0.005739927291870117,-0.3387361577932848,-1.0825813014507293,-9.185818195047974,-0.15805334070553753,-0.23099005222320557,0.0072688087821006775,3.2587036897838115,0.015277981758117676
1746232602740246500,0.73024658203125,-0.11468073064524947,-0.2013249397277832,-0.08036089554349339,0.18792833387851715,0.1498385239189955,0.9720145942373771,0.2858306491188918,right,0.0035899877548217773,-0.34608751679089456,-1.0556328695748,-9.164588360014557,-0.16210538316045606,-0.28404274582862854,0.004396155476570129,3.3266105203181504,0.0138472318649292
1746232602780246500,0.77024658203125,-0.10852195375065687,-0.22790013253688812,-0.07704993414928696,0.21340209245681763,0.14262848140195636,0.9720662843004233,0.27162794306938315,right,0.013760387897491455,-0.3596563385491261,-0.9941898282270878,-9.125200936999917,-0.16972790639301935,-0.2643865644931793,0.010888390243053436,3.451475501871109,0.003852158784866333
1746232602820246500,0.81024658203125,-0.10530439472716804,-0.22416552901268005,-0.0751866800362663,0.19592410326004028,0.13838004582727492,0.9721353955649235,0.2632561630143726,right,0.008286714553833008,-0.36656498058628273,-0.9622945145335048,-9.104421768343448,-0.17363942893146514,-0.2607802748680115,0.013443589210510254,3.51480844861865,0.0012760758399963379
1746232602860246500,0.85024658203125,-0.10214043468092807,-0.22043092548847198,-0.07332067296329763,0.17844611406326294,0.1341265733474448,0.9721687391322298,0.25488592589522546,right,0.002743244171142578,-0.37349858054302454,-0.9309764162059873,-9.082958709076046,-0.1775445554820749,-0.25717398524284363,0.016057662665843964,3.5782016011208295,-0.0013061463832855225
1746232602900246500,0.89024658203125,-0.09621336915397635,-0.21602848172187805,-0.06993351957835958,0.19450871646404266,0.12658840505298202,0.9718947925838346,0.2400990605776043,right,-0.01937335729598999,-0.38847237644918975,-0.8718798649191856,-9.033968760457634,-0.18575545241583324,-0.37349891662597656,0.022182248532772064,3.714514151622355,0.024991244077682495
1746232602940246500,0.93024658203125,-0.09368113257508597,-0.2265453338623047,-0.06847392056267788,0.18889763951301575,0.12174467108883598,0.9712703467838985,0.23030628543837908,right,0.0015711784362792969,-0.4016649704167061,-0.8443431117612868,-8.986573972076178,-0.19267481629290162,-0.4212284982204437,0.017193973064422607,3.833922621335089,0.018795043230056763
1746232602980246500,0.97024658203125,-0.09127570034529181,-0.23706218600273132,-0.06700928792093523,0.18328656256198883,0.11689194348974168,0.9705740050873467,0.2204938951925627,right,0.02232825756072998,-0.4148798147143615,-0.8180343660283833,-8.937341446873544,-0.19957996512014162,-0.4689580500125885,0.01233091950416565,3.952863765797019,0.01264655590057373
1746232603020246500,1.01024658203125,-0.086546173181167,-0.21987013518810272,-0.06415871739467227,0.18085843324661255,0.1093779582910778,0.9693662643776428,0.20555846596338015,right,0.04339879751205444,-0.43549212226414097,-0.7685488889779896,-8.858044038274883,-0.21035472205599248,-0.37036508321762085,-0.01720450073480606,4.137000143747032,-0.02043899893760681
1746232603060246500,1.05024658203125,-0.08254514540689645,-0.17543812096118927,-0.061908284591982686,0.2072446197271347,0.10532983306170958,0.9686361810585665,0.19785946573479768,right,0.02360820770263672,-0.446945459390959,-0.7291468529161066,-8.813246865171193,-0.21637199116763353,-0.3925117254257202,-0.026717238128185272,4.238561991123855,-0.0066699981689453125
1746232603100246500,1.09024658203125,-0.07862017085602577,-0.13100609183311462,-0.059654237730487364,0.23363080620765686,0.10127555834563863,0.9678497503286893,0.1901685347573105,right,0.0036644935607910156,-0.45842637593613306,-0.6906818785086274,-8.766948639854789,-0.22237670438433155,-0.4146583676338196,-0.036134444177150726,4.339810242506862,0.007131010293960571
1746232603140246500,1.13024658203125,-0.07230897431486066,-0.06006014347076416,-0.05655045021363212,0.22452761232852936,0.09645333157500756,0.9657039459020444,0.18131981840052286,right,-0.021043598651885986,-0.48195568792398835,-0.6277861541345715,-8.666868555468321,-0.23433890887494696,-0.5250998139381409,-0.033029839396476746,4.5455093407064675,0.026151269674301147
1746232603180246500,1.17024658203125,-0.0681201690665778,-0.01913769170641899,-0.054708157135636884,0.20373962819576263,0.0943898592153641,0.9641567381339639,0.1778872377627769,right,-0.011211693286895752,-0.49692182578207295,-0.586780336137861,-8.600583188655971,-0.24186634319569333,-0.4541673958301544,-0.03493611887097359,4.675044652158022,0.028951138257980347
1746232603220246500,1.21024658203125,-0.06395568759372336,0.02178475260734558,-0.0528622474462551,0.1829516589641571,0.09231996903584158,0.9625452242878417,0.17449781439263864,right,-0.0016030669212341309,-0.5119005074452222,-0.5464212185468524,-8.532106449279189,-0.24937765389099364,-0.38323497772216797,-0.036776430904865265,4.803640344671905,0.031846851110458374
1746232603260246500,1.25024658203125,-0.05997935395697469,0.04238349199295044,-0.051618489319761464,0.04830387979745865,0.09194923512746234,0.9604390082632819,0.17464417665016543,right,0.016389310359954834,-0.5289291795583885,-0.5075131034817546,-8.451326108646393,-0.2577553465727959,-0.2504153847694397,-0.0013048984110355377,4.948524908685684,0.03498399257659912
1746232603300246500,1.29024658203125,-0.057923035295824585,0.0774977058172226,-0.05118376872027764,0.030073368921875954,0.09289480571710136,0.9595898656544397,0.17713671632655606,right,0.003959536552429199,-0.5348855398228043,-0.48841838078089056,-8.42277630598843,-0.26064945816512114,-0.1790357232093811,0.004397060722112656,4.998866856434941,0.03773343563079834
1746232603340246500,1.33024658203125,-0.05430872381849059,0.09777136147022247,-0.050229582562927075,0.0754343718290329,0.09438480238886032,0.9586603914970447,0.18121110799978352,right,-0.006276309490203857,-0.5411044481714634,-0.4562763988498598,-8.393282500478625,-0.26370191086867373,-0.14595189690589905,0.02668817900121212,5.05123826418519,0.034513652324676514
1746232603380246500,1.37024658203125,-0.04741759996783218,0.09569618105888367,-0.04778498627892016,0.14576837420463562,0.09571859682352336,0.9578283913572597,0.18590337081182545,right,-0.0046607255935668945,-0.5468730448495684,-0.397039087385498,-8.366981938052177,-0.26668193013053176,-0.08689713478088379,0.040163010358810425,5.099643106392025,0.025744080543518066
1746232603420246500,1.41024658203125,-0.04071409975302328,0.08536228537559509,-0.045133480055006274,0.13288083672523499,0.0964631701687545,0.9575003692973921,0.18934023201176298,right,-0.004676640033721924,-0.5492216696417704,-0.3404540805282071,-8.35746533716619,-0.2680500730263381,-0.03317319229245186,0.03256531432271004,5.119301746585965,0.01623004674911499
1746232603460246500,1.45024658203125,-0.03399152756843905,0.07502838224172592,-0.0424815481541847,0.11999329179525375,0.09720685318115858,0.9571631654371233,0.19280049970827404,right,-0.004725217819213867,-0.5515505102244839,-0.283857200570032,-8.347627249240874,-0.2694156396174915,0.020550742745399475,0.024966418743133545,5.138766910034418,0.006735622882843018
1746232603500246500,1.49024658203125,-0.027250118267481947,0.014886528253555298,-0.039663053709726434,0.024454714730381966,0.09828874495880542,0.9575386063932722,0.19691367674556234,right,0.006029605865478516,-0.5483252898687452,-0.22802679320601746,-8.36587485359311,-0.2681155089708969,0.10248564183712006,0.029744667932391167,5.111801746219396,-0.00436323881149292
1746232603540246500,1.53024658203125,-0.02606556060284257,-0.022962268441915512,-0.038915143825535965,0.02876874804496765,0.0979505527736592,0.9579538156145782,0.1964987864125068,right,0.008851587772369385,-0.5455730141978795,-0.21848262845966965,-8.380172259014845,-0.26686280560419307,0.0613679513335228,0.042257264256477356,5.088748787412047,0.000028252601623535156
1746232603580246500,1.57024658203125,-0.024342485741525643,-0.06227830424904823,-0.037699240972404006,0.07510760426521301,0.09666853550325157,0.9583732550171258,0.19427137582466988,right,0.01828742027282715,-0.5435041272795571,-0.20429847415406255,-8.391043197119236,-0.26599745239224315,0.06850666552782059,0.03265451639890671,5.071394332507253,-0.011809945106506348
1746232603620246500,1.61024658203125,-0.022616192122453544,-0.10159433633089066,-0.03648319047757823,0.12144646048545837,0.09538612709727413,0.9587888123595035,0.192042580532945,right,0.02771550416946411,-0.5414385521428727,-0.19004925525560973,-8.401838147377967,-0.2651310334783733,0.07564537972211838,0.023045172914862633,5.054046307343245,-0.023648738861083984
1746232603947667500,1.93766748046875,-0.020960358801753384,0.012419979088008404,-0.03542266829652991,0.0012193374568596482,0.09387172023102268,0.9586802828340918,0.18937329564826316,right,0.001211195020005107,-0.5434157198501176,-0.17592716986816376,-8.39213449948728,-0.2662056969366545,-0.1359516978263855,0.01717674545943737,5.07065257422924,0.021015143021941185
1746232603987667200,1.977667236328125,-0.021181245330220325,0.1748639941215515,-0.03832125549798467,-0.11927074939012527,0.09887773389103337,0.9541929137057522,0.2002807139060453,right,0.006578683853149414,-0.5722021335752177,-0.1746161420685239,-8.242704985520243,-0.27976862525430735,-0.15979138016700745,-0.06592373549938202,5.310151066178083,-0.04192247986793518
1746232604027667200,2.017667236328125,-0.022614670118993856,0.17107418179512024,-0.040417610188034005,-0.0812920480966568,0.10281862526146406,0.9528847518559377,0.2082440804763247,right,0.001764535903930664,-0.5784037666866448,-0.18568300460381432,-8.2093650259763,-0.2824983201587215,-0.1939738541841507,-0.048209547996520996,5.361178073582053,0.0008711814880371094
1746232604067667500,2.05766748046875,-0.021507350124790398,0.14308810234069824,-0.041490885794378686,0.023897193372249603,0.10625174174641819,0.951053087581802,0.21599950127393047,right,0.0008611679077148438,-0.5884979344483039,-0.17541971353637054,-8.155044237723946,-0.2872054766185894,-0.311294287443161,-0.014026908203959465,5.443791474860906,0.053089439868927
1746232604107667500,2.09766748046875,-0.01429874766484375,0.03827926516532898,-0.03949275082828417,0.2705526649951935,0.1072170766955111,0.948774494118644,0.2206072174996569,right,0.02262979745864868,-0.6033815865857545,-0.11545782325766049,-8.074180894982815,-0.29457030749649826,-0.32822340726852417,0.024002552032470703,5.564588768583536,0.06953173875808716
1746232604147667500,2.13766748046875,-0.0009270992876527383,-0.07823926210403442,-0.033688540386494666,0.3326947093009949,0.10442890196339925,0.9470090085071337,0.21936160898756457,right,-0.004703521728515625,-0.6172668721782313,-0.007413255377343739,-7.996961461701988,-0.30188331873980795,-0.2084342986345291,0.007264185696840286,5.676172828280926,0.046777307987213135
1746232604187667500,2.17766748046875,0.007203398567113629,-0.10852129012346268,-0.02954895141183899,0.18986333906650543,0.10090768167417799,0.9461999517981144,0.21481451316638345,right,-0.005651712417602539,-0.6249804787416102,0.057288451552065085,-7.952737120050191,-0.30602306010590374,-0.11052152514457703,0.0012399381957948208,5.737688496473432,0.015212416648864746
1746232604227667500,2.21766748046875,0.010048595956156965,-0.08658630400896072,-0.027734511461607776,0.09525769203901291,0.09817304377114999,0.9457278469341286,0.2101462443747462,right,-0.013431429862976074,-0.6298443330483118,0.07963392881033941,-7.924542122179269,-0.30853136380724794,-0.10715124756097794,0.023142196238040924,5.776302597028017,0.000340878963470459
1746232604267667200,2.257667236328125,0.010831871345079019,-0.09257395565509796,-0.026942776799211046,0.05975617095828056,0.09593031893201759,0.9451962911790376,0.2058500667718021,right,-0.010346949100494385,-0.6347080758213531,0.08553567280056885,-7.896291010206937,-0.3109265325800637,-0.134285569190979,0.03175634145736694,5.814778750416636,0.002147972583770752
1746232604307667200,2.297667236328125,0.011163303989823816,-0.09828454256057739,-0.02632132159733885,0.07805003225803375,0.09370099910045047,0.9446948883363928,0.2014214685429694,right,0.006564021110534668,-0.6393112856397863,0.08785302809854037,-7.869413524675369,-0.31317530344935884,-0.10459903627634048,0.04404984042048454,5.851067622894048,-0.0009084343910217285
1746232604347667500,2.33766748046875,0.012506148828154397,-0.11258897930383682,-0.02511054859176903,0.09950152039527893,0.09117860786859926,0.9443776725332431,0.1966653328258605,right,0.021500349044799805,-0.6428535942888135,0.09816053276704624,-7.848514529031514,-0.314970795173234,-0.08349129557609558,0.03556523472070694,5.87890840049982,0.0028082728385925293
1746232604387667500,2.37766748046875,0.014988529488617487,-0.0998019278049469,-0.02338497048469178,0.11156444251537323,0.08862747935365159,0.9441109103863534,0.1922165964276587,right,0.017106235027313232,-0.6460130714792106,0.11736424140087329,-7.829635056516528,-0.3166272979660289,-0.08383379876613617,0.020434578880667686,5.903678100097179,0.007747769355773926
1746232604427667500,2.41766748046875,0.01755486684137284,-0.09290692210197449,-0.02169635990034919,0.10926797240972519,0.086221263479934,0.9437330300597577,0.1881304007582143,right,0.01857215166091919,-0.6497168453209038,0.13707253855597226,-7.807392245048284,-0.3185326635545106,-0.08813253790140152,0.01440679095685482,5.93263999068737,0.013568520545959473
1746232604467667500,2.45766748046875,0.019939396978326616,-0.08222473412752151,-0.020092992431836213,0.09985519200563431,0.08389279083466095,0.9433750983102118,0.18414425905697462,right,0.01546788215637207,-0.6531933983516207,0.15527692482098937,-7.786375175982713,-0.32031490707402394,-0.07469043880701065,0.00607297383248806,5.959751284974813,0.017031490802764893
1746232604507667200,2.497667236328125,0.022458354211915717,-0.05068424716591835,-0.018540694867755066,0.11193868517875671,0.08196547938266394,0.943051027739456,0.18103963549328853,right,0.018869221210479736,-0.6561825374143448,0.17448913642168043,-7.7681141276270145,-0.32185810432973316,-0.060108114033937454,0.009137965738773346,5.983003565746546,0.019961774349212646
1746232604547667200,2.537667236328125,0.02634632839410207,-0.023126762360334396,-0.016578731732464252,0.11768517643213272,0.0805518349019682,0.9427122092531303,0.17948828414684403,right,0.01703476905822754,-0.6589030666787332,0.20426042543230577,-7.751077068108319,-0.3233113000810764,-0.05771532282233238,0.0030163172632455826,6.004120588055253,0.027427613735198975
1746232604587667500,2.57766748046875,0.030758695986963566,-0.0034516379237174988,-0.014528730509119328,0.11390083283185959,0.0795436981548151,0.9423636394207597,0.1789787961074318,right,0.013611972332000732,-0.6614112635870224,0.23799502858333288,-7.735023758929968,-0.32467285706178356,-0.0450662225484848,0.004255412146449089,6.023549511146545,0.02709299325942993
1746232604627667500,2.61766748046875,0.035207272825347045,0.0025055818259716034,-0.012556464802852847,0.09783598780632019,0.07887308931165046,0.9420631887144044,0.17918552899476545,right,0.005421280860900879,-0.6634108004797569,0.2719779074070044,-7.721836360576749,-0.3257886834357798,-0.03367425501346588,0.007910247892141342,6.039011284172535,0.03494274616241455
1746232604667667500,2.65766748046875,0.0384990731059375,-0.012751351110637188,-0.01106659729219245,0.08778093010187149,0.078218649890906,0.9417822426805096,0.17902991978169305,right,0.008025944232940674,-0.6653072210724157,0.29695377883464097,-7.7094409893840545,-0.3268110209172196,-0.02694806642830372,0.016867399215698242,6.053652972987294,0.03150296211242676
1746232604707667500,2.69766748046875,0.04172051532858054,-0.04394568130373955,-0.009395892276965299,0.1083146184682846,0.07701739414461227,0.9416089880441394,0.17767440641496945,right,-0.0007554292678833008,-0.6668047799940311,0.32140926138367504,-7.6993784450531,-0.3276471721452621,-0.02809625305235386,0.01637602224946022,6.065200202918052,0.031035184860229492
1746232604747667200,2.737667236328125,0.04437395056762677,-0.06569281220436096,-0.00778865870512955,0.09171363711357117,0.07527553941335309,0.9414284214281758,0.1749935797332518,right,-0.005706667900085449,-0.6686170096090543,0.34134978725891557,-7.687505636429786,-0.3286116982598127,-0.03824333846569061,0.012309476733207703,6.079155663034319,0.026806414127349854
1746232604787667200,2.777667236328125,0.04567206863316351,-0.0734051764011383,-0.006690773127376166,0.07200721651315689,0.07336784923824789,0.9412406805032476,0.1714986325830384,right,0.002664029598236084,-0.6705977772423015,0.35077834453526885,-7.675012065559625,-0.32960360957400164,-0.02447526901960373,0.013436742126941681,6.094385965391993,0.012508392333984375
1746232604827667500,2.81766748046875,0.04597228088733593,-0.06102253124117851,-0.006007894264503738,0.03415422514081001,0.07170776736540113,0.9412946151606005,0.16809906460348023,right,-0.0003847479820251465,-0.6710282652851964,0.3529618260541931,-7.672284101900458,-0.32982766492055027,0.016244422644376755,0.006351083517074585,6.09769260572195,0.0023069381713867188
1746232604867667500,2.85766748046875,0.045194085450380964,-0.027203265577554703,-0.005974466971880467,-0.013647668063640594,0.07084722339139175,0.941538043199681,0.16594459266392303,right,-0.003513157367706299,-0.6699912890890244,0.34727665655724704,-7.678868740987777,-0.32931893453418704,0.039181359112262726,0.00103030726313591,6.089724987843632,-0.0046266913414001465
1746232604907667500,2.89766748046875,0.04409174568890876,0.013186689466238022,-0.006396449553756497,-0.03789328783750534,0.07095811338417606,0.9417728385814691,0.16572257143848376,right,-0.006681323051452637,-0.6685760949434232,0.3391912575181573,-7.687849335300922,-0.32861507834571935,0.0321175679564476,0.0008967220783233643,6.0788406057357784,-0.003646373748779297
1746232604947667500,2.93766748046875,0.0425843640891701,0.021084025502204895,-0.00722342918148058,-0.07011567056179047,0.07165242135266156,0.9418583396107133,0.16663307223779375,right,-0.008738100528717041,-0.6678187149334025,0.3277982683010399,-7.692949288788437,-0.32820202050985636,0.0008673816919326782,-0.003268107771873474,6.073010584408045,0.003533303737640381
1746232604987667200,2.977667236328125,0.03990054236352564,0.023167617619037628,-0.008688749564379197,-0.09615534543991089,0.07266846527710505,0.9418006621700269,0.16785641654604266,right,-0.0008555054664611816,-0.6678360466078795,0.30714637928605076,-7.693696307763457,-0.3281084891405643,-0.0019440094474703074,-0.006040126085281372,6.073144439920783,0.002966463565826416
1746232605027667200,3.017667236328125,0.03634293545985523,0.022585958242416382,-0.010567691350063526,-0.11655636876821518,0.07377527180898963,0.9416733861901418,0.16898785813654857,right,0.00046694278717041016,-0.668259748541827,0.2796798600864597,-7.692168367543816,-0.32817202921337446,-0.018643531948328018,-0.010300347581505775,6.076406072065234,0.003841400146484375
1746232605067667500,3.05766748046875,0.03251227333241753,0.03042975813150406,-0.012633214300247771,-0.10441835224628448,0.07506113002280644,0.9414918322456669,0.17041422953125746,right,0.0075397491455078125,-0.6689129178722518,0.2500827220663428,-7.689215362957119,-0.3283284006823178,-0.011194843798875809,-0.007113834843039513,6.081432375794649,0.0043448805809021
1746232605107667500,3.09766748046875,0.030231567943239,0.05608462914824486,-0.01405905846556231,-0.07237064838409424,0.07643413337749176,0.9413829858988629,0.17253933589298687,right,0.008297622203826904,-0.6689926520541036,0.23253057089867069,-7.6892802448868744,-0.32826539055321474,0.005420990288257599,-0.010859651491045952,6.08204553925693,0.005711197853088379
1746232605147667500,3.13766748046875,0.029926306805051563,0.07987204194068909,-0.01481593725305794,-0.0483875572681427,0.0781702721166898,0.9411614736702307,0.17614404935931124,right,0.00780719518661499,-0.6694834769614703,0.2300939731352031,-7.686365818744897,-0.32845836122213296,-0.027528584003448486,-0.0143283074721694,6.085820966142416,0.0062898993492126465
1746232605187667500,3.17766748046875,0.03121356611400032,0.0803399458527565,-0.014928568820406678,-0.00747932493686676,0.07981498674350669,0.9407948106722405,0.18015154793608135,right,0.011273741722106934,-0.6708199736482561,0.23973407253669574,-7.677927076223492,-0.3291075998952172,-0.03253275156021118,-0.013477672822773457,6.096092769309878,0.0031591057777404785
1746232605227667500,3.21766748046875,0.0334512584819336,0.07033222913742065,-0.014536947297257272,0.006166985258460045,0.08121032357285471,0.9405264463557508,0.18394056491078864,right,0.004107356071472168,-0.6716302743739586,0.2567490115551278,-7.672431985938549,-0.32955049144771204,-0.01004684530198574,-0.014520496129989624,6.102315004825591,0.0090867280960083
1746232605267667200,3.257667236328125,0.035295435106126004,0.05988730862736702,-0.014201688498632459,-0.005052034743130207,0.08237471724351467,0.9403599374220365,0.18707886970304788,right,0.0002161860466003418,-0.6719448136101189,0.27083012561136854,-7.670026678362488,-0.32975111652103795,-0.0025016237050294876,-0.012734985910356045,6.104729664751887,0.015062987804412842
1746232605307667200,3.297667236328125,0.036129065112884474,0.03639807552099228,-0.014270178936053028,-0.007191537879407406,0.08344007789479156,0.9401459453209463,0.18967247644360521,right,0.009888947010040283,-0.6726329534565731,0.2770721800724044,-7.6655983405262225,-0.3300903394561229,-0.02154415287077427,0.002465631812810898,6.110009650981426,0.01983243227005005
1746232605347667500,3.33766748046875,0.03670290859350866,-0.006501846015453339,-0.014132885621286504,0.025003556162118912,0.08363897940632307,0.9400377136614525,0.1903240233604165,right,0.016735732555389404,-0.6731536328071207,0.2813542230394669,-7.662257797926664,-0.3303541184572612,0.000007782131433486938,0.006174486130475998,6.114002520009875,0.01664358377456665
1746232605387667500,3.37766748046875,0.0370385458403103,-0.028596477583050728,-0.013767462345381695,0.0338716134428978,0.08300374756211466,0.9401029791604798,0.18908691367595615,right,0.012729108333587646,-0.6730839986385253,0.28394171878201885,-7.662588637316227,-0.3303440404264649,0.017295440658926964,0.004137318581342697,6.113468851524591,0.014850258827209473
1746232605427667500,3.41766748046875,0.036886296337592564,-0.02682724967598915,-0.013582380966758689,0.009181782603263855,0.08231104204882712,0.9401781938879846,0.18755573025166936,right,0.007655143737792969,-0.673004882527702,0.28279293233938513,-7.663114707016945,-0.3303110602641883,0.002529418095946312,0.003320295363664627,6.112862117803097,0.013217687606811523
1746232605467667500,3.45766748046875,0.03651994667404826,-0.013189366087317467,-0.013630510552323706,-0.0055287545546889305,0.08193881694626158,0.9401299228258606,0.18666092467941958,right,0.0033856630325317383,-0.673509102750686,0.2798729532394558,-7.6601365679889915,-0.3305388531427372,-0.010133758187294006,0.0009603425860404968,6.1167275610595935,0.006151318550109863
1746232605507667200,3.497667236328125,0.03616298831442372,0.007019398733973503,-0.013795370557056954,-0.0027281816583126783,0.08189872464622122,0.9400404821715678,0.18647945087121195,right,0.0023258328437805176,-0.6740860425054654,0.27701095140445975,-7.65670834710598,-0.33079632640818146,-0.009684818796813488,0.003294488415122032,6.121148884633183,0.004769444465637207
1746232605547667200,3.537667236328125,0.036899745807143745,0.020117517560720444,-0.013617755927496158,0.018183831125497818,0.08215321385047548,0.9399046273376979,0.1873136007230065,right,0.003990292549133301,-0.674736996103772,0.28250494571086016,-7.652518494200706,-0.3311264053891681,-0.013432049192488194,0.00782233476638794,6.1261354408741,0.005178272724151611
1746232605587667500,3.57766748046875,0.0385795331339652,0.022445276379585266,-0.01305837477848518,0.015969600528478622,0.0824293748399958,0.9397647925222931,0.18852547100302203,right,0.0023352503776550293,-0.6753542210910606,0.29521325531024484,-7.648253822493553,-0.331477108955746,-0.018175974488258362,0.002193305641412735,6.130860715830326,0.006230473518371582
1746232605627667500,3.61766748046875,0.04020050822648345,0.03838905692100525,-0.012618360967970864,0.011756891384720802,0.08298695384798425,0.9396145507698375,0.19031231678181387,right,0.004284501075744629,-0.6758831380156058,0.3074801412850618,-7.644523988315463,-0.33178084872532837,-0.011007368564605713,0.0028916150331497192,6.134907945394516,0.0034881234169006348
1746232605667667500,3.65766748046875,0.04209856298278843,0.04543464630842209,-0.012150299729316347,0.0061506652273237705,0.08377067724632524,0.9394264017835067,0.1926846623646432,right,0.001354217529296875,-0.6764978366139748,0.3218304824704304,-7.640157025277614,-0.3321336870588278,-0.01935984566807747,0.003375433385372162,6.139609839475154,0.00926893949508667
1746232605707667500,3.69766748046875,0.04350081698678033,0.028284136205911636,-0.011881658224853252,0.005709208548069,0.08444971555166039,0.9391615945161921,0.19469068982922794,right,0.005334377288818359,-0.6776478189897033,0.33223636034633963,-7.632639489254355,-0.33271989228372917,-0.03127659857273102,0.0049683041870594025,6.148399295130372,0.013420701026916504
1746232605747667200,3.737667236328125,0.0446295536758955,0.013824648223817348,-0.011627830602338298,0.0078827990218997,0.08481302524768099,0.9388906786377621,0.19594206524470656,right,0.00877457857131958,-0.6790132365548469,0.34047654808834193,-7.623865815690159,-0.33340039950502726,-0.030825642868876457,0.006603948771953583,6.158825412076712,0.014402329921722412
1746232605787667200,3.777667236328125,0.0454967458432266,-0.0021815085783600807,-0.011333950324516352,0.015201792120933533,0.08480360202393096,0.9387002814440076,0.19629294293888444,right,0.009924829006195068,-0.6801086792845024,0.34678068973384796,-7.6168234959632155,-0.3339485558488496,-0.013748310506343842,0.006667640060186386,6.167181737011671,0.011360526084899902
1746232605827667500,3.81766748046875,0.04621107001635709,-0.006293676793575287,-0.01099483564434158,0.018647026270627975,0.08455657842285196,0.9385990654908173,0.19606117865737793,right,0.003909468650817871,-0.680806589938932,0.35202260897532106,-7.612272993052005,-0.3343070824638191,-0.011080984026193619,0.005190469324588776,6.172501470729708,0.009516716003417969
1746232605867667500,3.85766748046875,0.047017792515158745,-0.005650937091559172,-0.010604966928408614,0.029627084732055664,0.08425957365263356,0.9384875079083084,0.19576104069921188,right,0.0016570091247558594,-0.681585394619735,0.3579374225096777,-7.607182391914725,-0.33470762668705695,-0.011892530135810375,0.00648372620344162,6.178434367910027,0.0058858394622802734
1746232605907667500,3.89766748046875,0.04820116321281315,-0.0021660691127181053,-0.01007104004380363,0.018713120371103287,0.08400374979692726,0.9383811413056741,0.19567917672157087,right,-0.0037073493003845215,-0.6822861596033448,0.3667305679593235,-7.6024261372983455,-0.3350861375349076,-0.01595737785100937,0.001245196908712387,6.183769299197197,0.005663812160491943
1746232605947667500,3.93766748046875,0.049017911793215505,0.009836056269705296,-0.009792156719174883,0.007288494147360325,0.08404342957037336,0.9382541346452055,0.1960961897126781,right,0.0004463791847229004,-0.6829726084510882,0.37273163500502704,-7.597882648649811,-0.3354398907545108,-0.013897174969315529,0.0004151575267314911,6.188992586803436,0.002121269702911377
1746232605987667200,3.977667236328125,0.04982316905132481,0.02101593092083931,-0.009598107905102713,-0.0011522425338625908,0.08435359747879788,0.9381500094468805,0.19706957298149103,right,0.0011096596717834473,-0.6833776356288748,0.378724884070456,-7.595075774535537,-0.3356587503999149,-0.01023006346076727,-0.0003627203404903412,6.1920736016839735,0.0025295615196228027
1746232606027667200,4.017667236328125,0.050556686384253036,0.02347674034535885,-0.009471743854953162,0.007227014750242233,0.08476585726597492,0.9380332231692649,0.19823691718184253,right,0.0036298036575317383,-0.683806302401951,0.38416174136213954,-7.592144397258758,-0.33588489313999137,-0.008404331281781197,0.0012392252683639526,6.195332895740866,0.0006306171417236328
1746232606067667500,4.05766748046875,0.051796401878440736,0.03608793765306473,-0.009208953593198383,-0.0008130166679620743,0.08535587003588488,0.9378772087595731,0.19997162885177783,right,-0.00321274995803833,-0.684337967983522,0.39340295937284825,-7.588371892982721,-0.33617839324957366,-0.023339521139860153,-0.00016322359442710876,6.19937311104238,0.006278097629547119
1746232606107667500,4.09766748046875,0.05311588722343506,0.04600236937403679,-0.009052797670804096,-0.0058181509375572205,0.0861862375672932,0.9375568936448813,0.20230108172777791,right,0.0021728873252868652,-0.6857037152529168,0.402965481759794,-7.5793842844069,-0.33686348874002986,-0.04197891429066658,0.0013472400605678558,6.209745451974868,0.005891680717468262
1746232606147667500,4.13766748046875,0.05441629164141745,0.0512874461710453,-0.008969945826640019,-0.00902714766561985,0.08715162434376221,0.9371843136937489,0.20492964806341085,right,0.0016001462936401367,-0.6872969014917202,0.4122827972140163,-7.568965766245126,-0.33765322645587,-0.04326840117573738,-0.0007134526968002319,6.221829857522249,0.005474269390106201
1746232606187667500,4.17766748046875,0.0553002507390606,0.046059124171733856,-0.009068928566419996,-0.02156444638967514,0.08814150494978157,0.9368115382156708,0.2074643788644016,right,0.0033789873123168945,-0.6888942909165727,0.4184234188608825,-7.558665321505069,-0.33842736541337654,-0.03495660424232483,-0.0006911680102348328,6.233930629682541,0.004518568515777588
1746232606227667500,4.21766748046875,0.055907269201910366,0.059105779975652695,-0.009309019388986017,-0.0410052128136158,0.08933708785720945,0.9365473459934077,0.21029211228407862,right,0.0021719932556152344,-0.6897431114888183,0.4227157457599416,-7.553123469468951,-0.3388380514501735,-0.005524687469005585,-0.0025942809879779816,6.240353940728307,0.004645824432373047
1746232606267667200,4.257667236328125,0.05573048162692534,0.09096328914165497,-0.009972907352810414,-0.0848519429564476,0.09117687617327447,0.9365609505099403,0.21408348568585756,right,0.0017107129096984863,-0.6886293973913304,0.42176732246130705,-7.560133055970073,-0.3382913388853081,0.059054017066955566,-0.001873791217803955,6.231925135079026,0.0030374526977539062
1746232606307667200,4.297667236328125,0.05500298751794366,0.14599156379699707,-0.01102390862685727,-0.12981478869915009,0.094050407458565,0.9369937094292142,0.21967739715345277,right,-0.0011048316955566406,-0.6844344641699913,0.4177008036747575,-7.586474534928798,-0.3362676483893381,0.14509695768356323,-0.00217297300696373,6.200106686013936,-0.0017227530479431152
1746232606347667500,4.33766748046875,0.0546665515708658,0.21464045345783234,-0.01223578994096456,-0.16353768110275269,0.09847900208465447,0.9377814619401754,0.2285094014120391,right,-0.0011868476867675781,-0.6770429052164931,0.417641036311537,-7.632166611045599,-0.33274329387569007,0.1947898417711258,0.0023631900548934937,6.14377689602673,0.007708847522735596
1746232606387667500,4.37766748046875,0.05536508676069855,0.26820823550224304,-0.013374635207471732,-0.1687612533569336,0.10423707774454571,0.9385612268676942,0.24044719399123748,right,0.003497004508972168,-0.6685396738357708,0.42584783324059095,-7.683758266595006,-0.32872252047614914,0.20166721940040588,0.004756096750497818,6.078560619750618,0.011836886405944824
1746232606427667500,4.41766748046875,0.05737770632440552,0.2742566168308258,-0.014116190188373894,-0.14206773042678833,0.1105159414655776,0.9391713161163117,0.2539378050486542,right,0.01115882396697998,-0.660292138420116,0.4441713523732498,-7.732673980933427,-0.3248754909358069,0.1867378205060959,0.008451718837022781,6.014885143175721,0.016087830066680908
1746232606467667500,4.45766748046875,0.06037679029046796,0.2337539792060852,-0.014243896216060226,-0.09817454218864441,0.11621094893760474,0.9396713064500539,0.2665357093087619,right,0.014115333557128906,-0.6527407067928163,0.47008759165722874,-7.776424275332689,-0.321418438991079,0.17045198380947113,0.007562857121229172,5.956224864414334,0.01923811435699463
1746232606507667200,4.497667236328125,0.06298623591875027,0.17370769381523132,-0.014123756272943452,-0.07610388100147247,0.12066048406851404,0.940163666293369,0.27637219912688615,right,0.008141279220581055,-0.6459687195610238,0.49290579186063255,-7.815248219245672,-0.31832962855456154,0.1558862030506134,0.0038169212639331818,5.903330894094705,0.02055215835571289
1746232606547667200,4.537667236328125,0.06401860636183106,0.11784441024065018,-0.014282810888847959,-0.084721140563488,0.12389251003339499,0.9406816163687541,0.28312361826783744,right,0.0012848973274230957,-0.6399833369216015,0.5032252335621044,-7.849856591290235,-0.3155387534859468,0.1486929953098297,-0.0014045275747776031,5.856355207908154,0.01754242181777954
1746232606587667500,4.57766748046875,0.06289183513813432,0.07724442332983017,-0.015056412321146686,-0.10195005685091019,0.12632651424303437,0.9413215466303677,0.28744583940451973,right,0.0019150972366333008,-0.6339697563899065,0.49658440730813885,-7.885424163755774,-0.3126156697822674,0.16049012541770935,0.0027594417333602905,5.8089469755232335,0.013969838619232178
1746232606627667500,4.61766748046875,0.060238960322052684,0.06294780224561691,-0.01624120579878062,-0.11299515515565872,0.128367999721596,0.9421836821394711,0.29035399113679133,right,0.004120469093322754,-0.6269071579694142,0.47812166236788034,-7.92746882328093,-0.30910806010826153,0.18600745499134064,0.0033583231270313263,5.753000631895661,0.013691604137420654
1746232606667667500,4.65766748046875,0.05709925574955968,0.05714773014187813,-0.017576699119516682,-0.11655521392822266,0.13028227731833883,0.9430676405375951,0.2928437704437134,right,0.002373337745666504,-0.6197450438232133,0.45556920042857524,-7.969864195939898,-0.30551773211564703,0.17174462974071503,0.0002505593001842499,5.695972922772169,0.013527452945709229
1746232606707667500,4.69766748046875,0.05394439029386305,0.04754035174846649,-0.018921062123147217,-0.09839373081922531,0.13202761027197532,0.9438524456585486,0.2950435324419698,right,0.007887959480285645,-0.6132760050417642,0.43240087161324914,-8.00788851390779,-0.3022471095270564,0.15531469881534576,0.0019536763429641724,5.644212924918532,0.01081162691116333
1746232606747667200,4.737667236328125,0.05189615335104776,0.0436294786632061,-0.01975030340714706,-0.06376166641712189,0.1334312579102583,0.9445439269791174,0.29694539733238395,right,0.0034180283546447754,-0.607566637516747,0.4176627366866916,-8.040808202213048,-0.2994041004744199,0.13464361429214478,0.0016821213066577911,5.598334386318922,0.00922483205795288
1746232606787667200,4.777667236328125,0.05083449095556716,0.0265826303511858,-0.020178842757897334,-0.03936440125107765,0.1345168726554962,0.9450462587910438,0.29859779075389553,right,0.001837015151977539,-0.6032815483850639,0.41034105202909554,-8.065131327086686,-0.2972970964266011,0.08204053342342377,0.0016569197177886963,5.563780959331989,0.012790322303771973
1746232606827667500,4.81766748046875,0.04993183628796862,0.012662336230278015,-0.02051356612253205,-0.025533726438879967,0.1350796831146986,0.9453724183374781,0.29931489326455657,right,0.005752146244049072,-0.6006307634054926,0.4037955759083852,-8.080200301402806,-0.29597913460390723,0.06372430920600891,0.000552300363779068,5.542354724943637,0.0064757466316223145
1746232606867667500,4.85766748046875,0.048951102456974316,0.010305710136890411,-0.020826700618030106,-0.034792520105838776,0.1354046318791558,0.9456974049720974,0.2995232295065819,right,0.002110302448272705,-0.5982082207302313,0.39652664435133333,-8.093978651386498,-0.2947680104462365,0.06866748631000519,-0.0017199404537677765,5.522739923891425,0.0013799071311950684
1746232606907667500,4.89766748046875,0.0477490891870777,0.026963718235492706,-0.021250982970166248,-0.038638606667518616,0.13593543940461006,0.946076512454564,0.30006147540113,right,0.0010230541229248047,-0.595224941055485,0.3875819981344044,-8.110870749476552,-0.29327305677359106,0.0763547495007515,0.000013146549463272095,5.4985395486146205,0.0011136531829833984
1746232606947667500,4.93766748046875,0.04712690993847438,0.0442444384098053,-0.021546747954902634,-0.03735531494021416,0.13688422094630207,0.9464026871572739,0.301658027835689,right,0.0029207468032836914,-0.5921327897642408,0.38333464288823305,-8.128055108511447,-0.29175379879927904,0.07425076514482498,0.000789351761341095,5.473404522836208,0.0036056041717529297
1746232606987667200,4.977667236328125,0.04717503841393221,0.06071045994758606,-0.021651734894996767,-0.03085820935666561,0.13807981805143457,0.9466436995212865,0.3040016591933706,right,0.0014976859092712402,-0.5893084552347498,0.38445330818723883,-8.143446154388785,-0.29039802530494757,0.0620071217417717,-0.001056581735610962,5.450401248389483,0.0031922459602355957
1746232607027667200,5.017667236328125,0.047545468784842594,0.057900767773389816,-0.021734175205237925,-0.026678550988435745,0.13942810585823615,0.9467331478274894,0.30682397413974366,right,0.0014150142669677734,-0.5873212636131792,0.3879838569335639,-8.154105495569109,-0.28945455745302373,0.034693896770477295,-0.0022841282188892365,5.4341895337790245,0.0073261260986328125
1746232607067667500,5.05766748046875,0.047755341143513624,0.04003148898482323,-0.021929572208470756,-0.025075284764170647,0.14058559476241392,0.9466742016858525,0.3092780111250559,right,0.0015331506729125977,-0.5865375886822723,0.389898348785378,-8.158275474730134,-0.2890723495292298,0.006008505821228027,-0.00027952343225479126,5.427790772652625,0.007938206195831299
1746232607107667500,5.09766748046875,0.04784981103647287,0.02816573902964592,-0.022133463142291972,-0.020028160884976387,0.1414080153455824,0.9465618918155673,0.3110390419998698,right,0.00038892030715942383,-0.5864612513605677,0.390688878108561,-8.158652491348981,-0.28902355028912896,-0.001390871126204729,-0.0009546801447868347,5.42716708779633,0.007200837135314941
1746232607147667500,5.13766748046875,0.04769874744183019,0.014991510659456253,-0.022351838895421212,-0.015872087329626083,0.1418907630310223,0.9464810591668181,0.3120179371097791,right,0.0005921721458435059,-0.5865310660964883,0.38943833005819467,-8.158332757875323,-0.2890349250345237,0.00089271180331707,-0.0012743361294269562,5.4277369966387745,0.005446016788482666
1746232607187667500,5.17766748046875,0.04729654370601291,0.01626330055296421,-0.022603461773721505,-0.022890256717801094,0.14225507768880344,0.9464839078927779,0.3126389643569824,right,-0.0011952519416809082,-0.5861656514447042,0.3862507495306432,-8.160469185382127,-0.2888268388286205,0.018077054992318153,-0.0010676495730876923,5.424752427870035,0.0030152201652526855
1746232607227667500,5.21766748046875,0.04661312850582962,0.028156328946352005,-0.022997576342532435,-0.03606173023581505,0.14282987326397067,0.9465275766151612,0.31358517282681647,right,-0.0008442401885986328,-0.5853210106260074,0.3808870305404067,-8.165305519497394,-0.28836851454246964,0.02636723592877388,-0.0011556893587112427,5.417849808874726,0.0031682848930358887
1746232607267667200,5.257667236328125,0.045942506479657266,0.03568184748291969,-0.023444111878141317,-0.034810956567525864,0.14365367689604971,0.9465615972292332,0.315047915684372,right,-0.0008337497711181641,-0.5842782189365477,0.37567035533804444,-8.171198084667324,-0.2878110715650421,0.02783285267651081,-0.0011569522321224213,5.4093233880698675,0.005194485187530518
1746232607307667200,5.297667236328125,0.04518255597729517,0.0507366880774498,-0.023957669975166605,-0.049024589359760284,0.14473070939217797,0.9466345376642892,0.3169814389570474,right,0.0007584691047668457,-0.5827003068902955,0.36984563123993575,-8.179998061716557,-0.2869881665751766,0.04943282902240753,-0.001147884875535965,5.396409545961022,0.0024085044860839844
1746232607347667500,5.33766748046875,0.04426871869152408,0.07943517714738846,-0.024582251855774718,-0.07514635473489761,0.1462808955887724,0.9467908184174257,0.3197928048543781,right,0.00012695789337158203,-0.5800390763575487,0.3630045331735164,-8.19465027192533,-0.28563056597707814,0.08032440394163132,-0.007548479363322258,5.374599280691147,-0.003082752227783203
1746232607387667500,5.37766748046875,0.04349085481576194,0.13213765621185303,-0.0253639205323464,-0.1059713363647461,0.1489072405524854,0.9469383853849798,0.32483875614641067,right,-0.003453671932220459,-0.5762274446600241,0.3575181741843,-8.215337670645118,-0.28370943047604674,0.09115314483642578,-0.007829779759049416,5.343294626367092,0.0006400346755981445
1746232607427667500,5.41766748046875,0.043049447344903825,0.16973355412483215,-0.026231226603446477,-0.0985073372721672,0.1525062608326207,0.9469925421587811,0.3320017408464045,right,0.007616758346557617,-0.5718795422782126,0.35488830060474574,-8.23862736081779,-0.2815294771581814,0.10913347452878952,0.0012902133166790009,5.30749090705812,0.0014855265617370605
1746232607467667500,5.45766748046875,0.04424562736229589,0.1852622628211975,-0.026406523558297264,-0.0666770190000534,0.15638674849977816,0.9470444027094471,0.3402013887080557,right,0.005194306373596191,-0.5669826698505764,0.3658881257858127,-8.264062830847502,-0.279200236379827,0.12114788591861725,0.002948172390460968,5.267046668466925,0.004743695259094238
1746232607507667200,5.497667236328125,0.04643340866279927,0.1735074818134308,-0.02612440879480845,-0.04500473290681839,0.16023226823421016,0.947065666476072,0.34860957911262297,right,0.0031157732009887695,-0.5621191317355402,0.3851516657149419,-8.288733161723613,-0.2769652206189582,0.10311981290578842,0.006419714540243149,5.22675265200138,0.01312720775604248
1746232607547667200,5.537667236328125,0.04883090535911836,0.12452545762062073,-0.02560439709221158,-0.011174790561199188,0.16326322900402712,0.9470459399387721,0.3554296148500572,right,0.006878674030303955,-0.5583831876147366,0.40597306607794015,-8.307231525966525,-0.2753061475668401,0.07780285179615021,0.009463082998991013,5.195716293224692,0.01457357406616211
1746232607587667500,5.57766748046875,0.05123027909581914,0.06243521347641945,-0.024810511890121126,0.010806715115904808,0.1650846851655018,0.9470982963866841,0.3597550297049954,right,0.002735137939453125,-0.5555492783998746,0.4266563000792637,-8.320905246531963,-0.2741100810417865,0.060798048973083496,0.005495090037584305,5.172125574278831,0.016800105571746826
1746232607627667500,5.61766748046875,0.052390952950765374,0.0035064145922660828,-0.02426664809649556,0.005887849722057581,0.16561877184534884,0.9472606651669745,0.3610676043526312,right,-0.000811457633972168,-0.5536106676124753,0.43683812340833245,-8.3304019736737,-0.2732742907731561,0.04159952327609062,0.003948532044887543,5.155963544028997,0.015044689178466797
1746232607667667500,5.65766748046875,0.05208430697224586,-0.04146049544215202,-0.024162638846806635,0.006205815356224775,0.16513364865889454,0.9474833959896481,0.35987964051000093,right,-0.0008855462074279785,-0.5526399733153953,0.43454398458916693,-8.335529984211922,-0.2728047370765725,0.017758561298251152,0.003228355199098587,5.14786382420361,0.01148688793182373
1746232607707667500,5.69766748046875,0.05098134670580855,-0.05777242034673691,-0.024333800961562888,0.00942557118833065,0.16407560184781056,0.9476848794479724,0.35732626618968577,right,-0.000504612922668457,-0.5526044122487794,0.4253592825386673,-8.336186986815928,-0.2727281104612566,-0.0011614412069320679,0.0022999830543994904,5.1475668870836495,0.0042708516120910645
1746232607747667200,5.737667236328125,0.0498853668055778,-0.047706734389066696,-0.024520428000427627,0.004795546643435955,0.1629531856491167,0.9478443118906643,0.3546679299987101,right,-0.00006753206253051758,-0.552941358670151,0.416136221239157,-8.334915651705861,-0.2728302393507167,-0.004346804227679968,0.00017120316624641418,5.150379021894931,0.0012399554252624512
1746232607787667200,5.777667236328125,0.04906589534546659,-0.024285951629281044,-0.024697200018852495,0.0003555626608431339,0.1622043990115809,0.9479307805735093,0.3528797989679349,right,-0.00002282857894897461,-0.5533093249554678,0.40921288824938234,-8.333359654435515,-0.2729596210785156,-0.002430170541629195,0.000057931989431381226,5.153449515381455,0.0004200935363769531
1746232607827667500,5.81766748046875,0.048684898574403265,-0.0028663352131843567,-0.02480256535734018,0.0003900625160895288,0.16193818327008944,0.9479572424687776,0.35222099433629767,right,0.00033992528915405273,-0.5534772099140551,0.4059957528337836,-8.332650629383325,-0.2730162721688815,0.0000018058344721794128,0.0005478858947753906,5.154850029829144,0.0007989406585693359
1746232607867667500,5.85766748046875,0.04884524067640484,0.010769137181341648,-0.024737269222369167,0.0006426676409319043,0.16202671715089245,0.9479702513823483,0.3524378149037455,right,0.000015914440155029297,-0.5532614825250328,0.4073861112136394,-8.333696339043975,-0.272924567016245,0.007324044592678547,0.00021370872855186462,5.1530502869307995,0.0021993517875671387
1746232607907667500,5.89766748046875,0.04908923688798988,0.01382398884743452,-0.024665325846863276,-0.003206599038094282,0.16227400598384098,0.9479776648975933,0.3530013959710249,right,-0.0009894967079162598,-0.5528830326636193,0.40951515913158654,-8.335544012737273,-0.27275844463200655,0.009491348639130592,-0.00032517313957214355,5.149892115160823,0.003493010997772217
1746232607947667500,5.93766748046875,0.04925410524374483,0.012258125469088554,-0.02461872460744625,-0.006448376923799515,0.1625640757949212,0.948008466321592,0.35361611197234827,right,-0.001191854476928711,-0.5522881487803842,0.41104021327439694,-8.3385350112468,-0.27248296814048084,0.015905020758509636,0.0012158006429672241,5.144926601707935,0.004988431930541992
1746232607987667200,5.977667236328125,0.049139172937120314,0.008352700620889664,-0.024675778442433637,-0.008139061741530895,0.16280573715039834,0.9480558710888212,0.3540451464479061,right,0.0000787973403930664,-0.5516529519073482,0.41024223129712045,-8.341843989664316,-0.27216802058141204,0.016360243782401085,0.001807328313589096,5.139622650080919,0.005997657775878906
1746232608027667200,6.017667236328125,0.04879480129774278,0.0020085396245121956,-0.02477925117396844,-0.01295686885714531,0.16293175120357556,0.9481539036903729,0.3541491878090916,right,-0.001165628433227539,-0.5508128435941233,0.40757998981792476,-8.346294539332389,-0.2717414175573968,0.026624836027622223,0.0014252401888370514,5.132604295751452,0.005200326442718506
1746232608067667500,6.05766748046875,0.04804404980294176,0.0032382505014538765,-0.025016963018971602,-0.020102526992559433,0.16304612360462684,0.9483133662467471,0.3540828570797147,right,0.0008314251899719238,-0.5495711066333974,0.40161965664140875,-8.352958088874816,-0.27109377520493033,0.03939005732536316,0.0005837529897689819,5.122224356034398,0.004209578037261963
1746232608107667500,6.09766748046875,0.046978228495878606,0.012656237930059433,-0.02540825113292664,-0.03526438772678375,0.1633600834482634,0.948498658735426,0.3543178920648929,right,-0.0007942914962768555,-0.5479115842983912,0.39311533807050436,-8.361860941776634,-0.2702187673175797,0.042788371443748474,-0.00016525015234947205,5.108339038544893,0.00608748197555542
1746232608147667500,6.13766748046875,0.04599751205251723,0.01820569671690464,-0.025805608280684192,-0.02683674916625023,0.16386810235011118,0.9486655931583934,0.35497910255970877,right,0.002829909324645996,-0.5461275738902894,0.38533294056598094,-8.371332534477114,-0.26928590617636095,0.04249527305364609,-0.0005765669047832489,5.093396905478834,0.005265235900878906
1746232608187667500,6.17766748046875,0.04574481940758742,0.029157590121030807,-0.025881108573163066,-0.01169169694185257,0.16441828120475277,0.9488386613796729,0.35592514780551854,right,0.0007956027984619141,-0.5441817932297052,0.38367004885505884,-8.381314414787292,-0.2683320210614932,0.050683166831731796,0.00013314560055732727,5.077081145972013,0.0047945380210876465
1746232608227667500,6.21766748046875,0.04617367766675979,0.027282705530524254,-0.025687296629023068,0.0032955631613731384,0.16501831585137433,0.9489738401967016,0.3571799771482436,right,0.0012477636337280273,-0.5423901157823185,0.38768366841059176,-8.390222528386115,-0.267503051114309,0.0344841405749321,0.003358360379934311,5.062040813228488,0.008450448513031006
1746232608267667200,6.257667236328125,0.04697578533269551,0.014886151067912579,-0.02533310138189046,0.008458320051431656,0.16539378166099974,0.9490508512146172,0.35811555803002665,right,0.00048464536666870117,-0.5412787459051003,0.3946773266902193,-8.395522972881793,-0.26703125914530307,0.022781208157539368,0.0023477859795093536,5.0527030760407445,0.007609426975250244
1746232608307667200,6.297667236328125,0.04743756848054661,0.0039386749267578125,-0.02509508760275152,0.0014576194807887077,0.16556679625552734,0.9491321221627388,0.3585466586881301,right,-0.0016453266143798828,-0.5404198388689432,0.39875984676349907,-8.399671909254788,-0.26665740598237003,0.02317226491868496,0.00231151282787323,5.045482477137446,0.007422208786010742
1746232608347667500,6.33766748046875,0.04720704473915901,0.00295672076754272,-0.025122640619683514,-0.01485914271324873,0.16571013076074528,0.9492648257761646,0.3586993624901034,right,-0.002938985824584961,-0.5392720139670507,0.3970965531937778,-8.4055428471148,-0.2660929224854886,0.03245461732149124,0.002961229532957077,5.035826760041713,0.007108807563781738
1746232608387667500,6.37766748046875,0.046096312301053495,0.0011034851195290685,-0.02551862926428444,-0.03724861145019531,0.1659339024971368,0.949445851092311,0.35874669641345625,right,-0.0006027817726135254,-0.5377268372494917,0.3881180777724832,-8.413741351139546,-0.2652684939895019,0.04506755247712135,0.0004168190062046051,5.022818225386739,0.0046607255935668945
1746232608427667500,6.41766748046875,0.044050483534085125,0.00966369267553091,-0.02632215071637994,-0.06331277638673782,0.16632742033821282,0.949673618128641,0.3588569351427512,right,0.00028502941131591797,-0.5356762664756113,0.3713569856509566,-8.424789983898402,-0.26412574446875003,0.05984503775835037,-0.0022304467856884003,5.005536251196265,-0.0010039210319519043
1746232608467667500,6.45766748046875,0.04134569998543915,0.02979474887251854,-0.027440897518972888,-0.08944551646709442,0.16711039788133789,0.9499495679557153,0.3595505682000979,right,-0.003332853317260742,-0.5327844521186427,0.3491652833154425,-8.440190966647863,-0.26252051769515655,0.07631872594356537,-0.004480898380279541,4.981128955170512,-0.0011159777641296387
1746232608507667200,6.497667236328125,0.03824410914429223,0.05450599268078804,-0.028873495010198487,-0.10655999928712845,0.16850408911934464,0.9501560190437173,0.36140914978396416,right,-0.0020641088485717773,-0.5295964872651955,0.3235911354674026,-8.457058514818549,-0.26072273002250385,0.07575226575136185,-0.002026667818427086,4.954173728227615,0.00039499998092651367
1746232608547667200,6.537667236328125,0.03549652769064778,0.07419450581073761,-0.03025788276377108,-0.10097048431634903,0.1703133894460363,0.9502852840624029,0.3642460307035229,right,0.0003331303596496582,-0.5263589069209709,0.3009211298293434,-8.473900928547978,-0.25891266514335254,0.08281917124986649,-0.0017702654004096985,4.9267473766416305,-0.0002047419548034668
1746232608587667500,6.57766748046875,0.03335141811678869,0.07351101189851761,-0.031433252489292164,-0.0837026983499527,0.17232040420074848,0.9503590615871628,0.36767486668751115,right,0.004423320293426514,-0.5231795696061833,0.28326389258569107,-8.490138946643471,-0.25716792276052713,0.06695663928985596,0.0014766678214073181,4.899764092648029,0.00574183464050293
1746232608627667500,6.61766748046875,0.03219550675525737,0.048895593732595444,-0.032136473767036544,-0.04604125767946243,0.17388302614679366,0.9503842425400704,0.370499247009856,right,0.003861069679260254,-0.5208826909289015,0.27381140644447877,-8.501686761096119,-0.2559333182834132,0.041275523602962494,0.0038532577455043793,4.8802393079668285,0.009219050407409668
1746232608667667500,6.65766748046875,0.0317024111542427,0.016504064202308655,-0.03245501060906544,-0.020171618089079857,0.1746855776365187,0.9503911567512203,0.37197961586669437,right,0.0029865503311157227,-0.5197312187576608,0.269797165834438,-8.50743144222796,-0.2553201481215541,0.018589694052934647,0.0034175030887126923,4.8704415520519015,0.01004520058631897
1746232608707667500,6.69766748046875,0.031144220613392865,-0.018160883337259293,-0.032667567778500925,-0.004471663385629654,0.1747071870925413,0.9504427095644647,0.3718492549321473,right,0.0037329792976379395,-0.5193362013531986,0.2651082408332266,-8.509502987805009,-0.25508610281719174,0.007001706399023533,0.002230767160654068,4.8670790898814795,0.010000258684158325
1746232608747667200,6.737667236328125,0.030112284509631618,-0.028528226539492607,-0.032965264547201924,-0.014543350785970688,0.17429116262956595,0.9505865118480328,0.37066706673294014,right,0.0013686418533325195,-0.5188747929537287,0.25639442596379663,-8.51201584740877,-0.2547965033376385,0.016374623402953148,-0.000015787780284881592,4.863150225999951,0.006149649620056152
1746232608787667200,6.777667236328125,0.0287675548114225,-0.015052536502480507,-0.03340915073514895,-0.022336896508932114,0.1739883486159959,0.9507410536518154,0.3696254642798397,right,0.0020924806594848633,-0.518183930678979,0.24504441737188024,-8.515709441229701,-0.25436878514490724,0.024108119308948517,-0.0014057308435440063,4.857265844136476,0.0013248920440673828
1746232608827667500,6.81766748046875,0.02759466040899968,0.013538004830479622,-0.033875026631138686,-0.030599355697631836,0.17415608958267131,0.9508453908646528,0.36960255889722915,right,0.0013962984085083008,-0.5172035121112951,0.235187496881932,-8.52074743539691,-0.253801655131109,0.030134297907352448,-0.0011928770691156387,4.848910980506241,-0.0011195540428161621
1746232608867667500,6.85766748046875,0.02685544906801654,0.03642866387963295,-0.0342529297161948,-0.03025004267692566,0.17487682558817916,0.9509026796753499,0.37083159021318246,right,0.0030580759048461914,-0.5157776798003019,0.2290742198997177,-8.527821319305897,-0.2530392605644404,0.04254041612148285,-0.002005157992243767,4.836752340678871,-0.0023165643215179443
1746232608907667500,6.89766748046875,0.026580212328217372,0.06811246275901794,-0.03448387363982491,-0.03728814050555229,0.17602292244764856,0.9509478242447865,0.37304514993527377,right,-0.0003313422203063965,-0.513807359071839,0.22697987796897068,-8.537394034293293,-0.2520415082831199,0.05871552973985672,-0.004417557269334793,4.819934184607863,-0.004374295473098755
1746232608947667500,6.93766748046875,0.026846600915573747,0.11311184614896774,-0.03461235108415299,-0.054384954273700714,0.1780641225021755,0.9509447807101892,0.3772233476135512,right,-0.0049111247062683105,-0.510868902921655,0.22963333335351196,-8.551454708349704,-0.2505975986071469,0.08175509423017502,-0.0072371866554021835,4.794817863529921,-0.003026604652404785
1746232608987667200,6.977667236328125,0.027512449487105357,0.23230305314064026,-0.03471180627754649,-0.1065068244934082,0.18149035391925025,0.9509304249876834,0.38428690559103396,right,-0.017136216163635254,-0.5058849698729166,0.2359816977332346,-8.575081083130836,-0.24816854388021345,0.17540553212165833,-0.026076074689626694,4.752123215663433,-0.027189135551452637
1746232609027667200,7.017667236328125,0.029622546846815458,0.4485401511192322,-0.034413422756682105,-0.14324387907981873,0.18846882086695868,0.9509701910994206,0.39878179955372833,right,-0.011430501937866211,-0.4946903952051409,0.2556350954964757,-8.62720056194663,-0.24279807920400304,0.36946162581443787,-0.024328263476490974,4.655796638591587,-0.03965786099433899
1746232609067667500,7.05766748046875,0.0353931229558304,0.7242546081542969,-0.032775755481855726,-0.17654789984226227,0.2005877486119879,0.950807828730114,0.42441004350011313,right,-0.0010500550270080566,-0.4754241570511621,0.30853169616460796,-8.713619200727344,-0.23378371652545382,0.5285144448280334,-0.021863725036382675,4.488656403627991,-0.0478399395942688
1746232609107667500,7.09766748046875,0.045050656746546826,0.9264854788780212,-0.02977330199109016,-0.14162059128284454,0.2176335674084362,0.9497440122354257,0.4608763772365811,right,0.02049267292022705,-0.451786161305057,0.3973362802337855,-8.813785209831595,-0.22301474811509714,0.5694594383239746,-0.0020697154104709625,4.281320059615373,-0.02465185523033142
1746232609147667500,7.13766748046875,0.05712791416066154,0.9941215515136719,-0.025833195742389077,-0.15051940083503723,0.23723699598382603,0.9475393194317114,0.5030820021193144,right,0.008038938045501709,-0.4282151085520571,0.5093725406780839,-8.906638265573978,-0.21265109863144263,0.4970896244049072,0.016112498939037323,4.072188648879528,0.003521263599395752
1746232609187667500,7.17766748046875,0.06795909623695848,0.859113335609436,-0.022171672632056327,-0.12124920636415482,0.2558415037524595,0.9447492634702228,0.5429665254519144,right,0.004313170909881592,-0.40745710885319314,0.6114194316254928,-8.983010726636648,-0.20372126767639714,0.4148327708244324,0.024563662707805634,3.886138546262681,0.03324773907661438
1746232609227667500,7.21766748046875,0.0753315676392762,0.6068633794784546,-0.019607274069443577,-0.11196345090866089,0.27061398281279786,0.9421527099878929,0.5743387312606929,right,-0.008959949016571045,-0.391365659727289,0.6822475199013948,-9.039449822217225,-0.196804171057901,0.28014087677001953,0.028842583298683167,3.7407577231645583,0.060705751180648804
1746232609267667200,7.257667236328125,0.07823284304348746,0.3465980291366577,-0.018704468635902867,-0.11320695281028748,0.28022248643296815,0.940309386208801,0.5943601280067531,right,-0.01902395486831665,-0.381110822387574,0.711431309613958,-9.075200350034237,-0.1922074807019642,0.15746667981147766,0.027266889810562134,3.647600716039538,0.06869879364967346
1746232609307667200,7.297667236328125,0.07763934873944982,0.10543639957904816,-0.019216241805687286,-0.08922833949327469,0.28481703552151305,0.939368965472623,0.6035880123883034,right,-0.012948215007781982,-0.37673477738850764,0.7072763818915933,-9.091447720479964,-0.1899892309564676,0.026885241270065308,0.017266467213630676,3.6077307702049612,0.05866420269012451
1746232609347667500,7.33766748046875,0.07456947347654919,-0.04259677231311798,-0.02093395281088906,-0.09493830800056458,0.28556812611852816,0.9390858076823002,0.6046786032516541,right,-0.004853010177612305,-0.37788886658895304,0.6790528155133128,-9.089418260478974,-0.1900800582234082,-0.06736161559820175,0.008809171617031097,3.6182524564802643,0.03122606873512268
1746232609387667500,7.37766748046875,0.06998683599944178,-0.0920155793428421,-0.023269816765200353,-0.10166168212890625,0.2844383573451406,0.939198424452248,0.6016466463211431,right,0.001345992088317871,-0.38106184960043127,0.6365862773142754,-9.080936263337732,-0.19094405188407904,-0.0683559775352478,0.000612504780292511,3.647155018098652,0.008319169282913208
1746232609427667500,7.41766748046875,0.0638955612722456,-0.07559401541948318,-0.026076040034648744,-0.14240716397762299,0.2831506033791719,0.9394826032891435,0.5978593106368146,right,0.0009973645210266113,-0.38313698508859545,0.5807758350260556,-9.077072573646902,-0.19109718077824595,-0.0048167407512664795,-0.0009744167327880859,3.6660377054840323,-0.0026410818099975586
1746232609467667500,7.45766748046875,0.05716540546114073,-0.06962095946073532,-0.028889450213457676,-0.1473519504070282,0.28237965331903564,0.9398548971609566,0.5948177514381078,right,-0.010646581649780273,-0.38273625998755995,0.5197569008419289,-9.08224208523929,-0.1899998397473343,0.04027961567044258,-0.00283900648355484,3.662392334719002,0.002673596143722534
1746232609507667200,7.497667236328125,0.04939012356835618,-0.129827082157135,-0.0317241477504435,-0.135372132062912,0.28113657920874363,0.9406017196410289,0.5903766569085289,right,0.0029483437538146973,-0.37998247418564124,0.44962114221174265,-9.096047323229909,-0.18768122023687844,0.12841767072677612,0.009232107549905777,3.6373271593064067,0.010283976793289185
1746232609547667200,7.537667236328125,0.04222327570290752,-0.24738457798957825,-0.03339943268936805,-0.05250068008899689,0.27806201778174006,0.9422150279228204,0.5819210517439349,right,0.01943516731262207,-0.37363926860188784,0.38538631472103296,-9.121904818063975,-0.1838390292485813,0.2136864811182022,0.006527204066514969,3.5794857957124706,0.02551630139350891
1746232609587667500,7.57766748046875,0.03756543796991859,-0.3765828013420105,-0.033140638357832625,0.08018611371517181,0.2723335089142009,0.9447536492358438,0.5682353541361238,right,0.027866721153259277,-0.36504061905124174,0.3440371997119859,-9.154020204249024,-0.17937830936890853,0.22918038070201874,0.0035482384264469147,3.5008483123272653,0.03830641508102417
1746232609627667500,7.61766748046875,0.03770310893277363,-0.4734152555465698,-0.030404421390784916,0.26079410314559937,0.26387641501053694,0.9478532285317709,0.5498498683812986,right,0.03192293643951416,-0.3574877607992376,0.34628428451903165,-9.180133719670772,-0.17612215579058976,0.181296244263649,-0.0034728646278381348,3.4315614256113767,0.036364078521728516
1746232609667667500,7.65766748046875,0.04384235761724384,-0.5313034653663635,-0.02508973607953745,0.4034941792488098,0.2530352703379165,0.9510674473090475,0.5279025949751177,right,0.01799631118774414,-0.3539417895982041,0.40316732447482645,-9.189933813673257,-0.17554000411716902,0.0607876181602478,-0.009621363133192062,3.3989643933892246,0.013116836547851562
1746232609707667500,7.69766748046875,0.0530138913961831,-0.4824225604534149,-0.018904620421685638,0.4221816956996918,0.2417946270275637,0.9538001708113266,0.5060592099122313,right,0.006476938724517822,-0.35479930081312594,0.48728035319428886,-9.18293591760993,-0.17732231153461475,-0.025313839316368103,-0.004830237478017807,3.406851054985821,-0.014822036027908325
1746232609747667200,7.737667236328125,0.06180316104983399,-0.3705653250217438,-0.013549349796433964,0.31725624203681946,0.232275490466467,0.9557058010308235,0.48803685857866574,right,-0.0124703049659729,-0.35845824042846264,0.5671980856483801,-9.16579539771676,-0.1802523973216888,-0.09845991432666779,-0.006991885602474213,3.440475384429097,-0.02296796441078186
1746232609787667200,7.777667236328125,0.06690597830133725,-0.23724722862243652,-0.01063670382011415,0.17354749143123627,0.22556161867435298,0.9567131390311121,0.47539866857094937,right,-0.018620729446411133,-0.36409370605505964,0.6126558780852704,-9.143290720441938,-0.18359949220749736,-0.1395535171031952,-0.002623084932565689,3.492172838440537,-0.0239790678024292
1746232609827667500,7.81766748046875,0.06869906544661908,-0.13621827960014343,-0.009833180769616664,0.053825005888938904,0.22157279604078253,0.9570209784364567,0.4679066667188014,right,-0.022638380527496338,-0.3704453630975396,0.627514278390631,-9.119864252147078,-0.18686794627691988,-0.15511733293533325,-0.001404985785484314,3.550307047501206,-0.016122788190841675
1746232609867667500,7.85766748046875,0.06758594374532124,-0.06127883493900299,-0.010657870563069176,-0.021712645888328552,0.21958802461177188,0.9569574589912776,0.46398691830079747,right,-0.00739365816116333,-0.3761208528006472,0.6159916714444756,-9.100306734240055,-0.18947267507630755,-0.12267851829528809,0.0024054497480392456,3.602131635023653,-0.010647118091583252
1746232609907667500,7.89766748046875,0.06571171364093133,-0.00014661625027656555,-0.011912324367485448,-0.04444466158747673,0.2191642121314861,0.9567120432345738,0.46303197379161365,right,0.0008251070976257324,-0.37999582997272463,0.5980134586181491,-9.08744900623262,-0.19112077090991764,-0.08150914311408997,0.002710483968257904,3.6374487398594617,-0.00757715106010437
1746232609947667500,7.93766748046875,0.06446850190876972,0.04140240326523781,-0.012896853563160076,-0.04315341264009476,0.21979162907454153,0.9563608668197845,0.4642771778783153,right,-0.0004430413246154785,-0.3823343066146388,0.5861657844360918,-9.07967194249034,-0.19209171805015665,-0.05060386657714844,-0.0014985762536525726,3.6587355657771226,-0.005161195993423462
1746232609987667200,7.977667236328125,0.06355071333382191,0.06306834518909454,-0.013800535689473536,-0.05703341215848923,0.22109118568366926,0.9559010193777963,0.46695010831868133,right,-0.0056629180908203125,-0.3841225574896653,0.5774158936062828,-9.073662472942472,-0.1928251036800164,-0.06306666135787964,-0.004991117864847183,3.6750001796185967,0.002676069736480713
1746232610027667200,8.017667236328125,0.06233548225181582,0.05961642041802406,-0.014961061460669063,-0.05830825865268707,0.22254449558686254,0.9553377399081034,0.4699399281675649,right,-0.006352603435516357,-0.38661333928377173,0.565816896955669,-9.065193335282801,-0.19385546515577112,-0.07393509149551392,-0.003924623131752014,3.6976352052748203,0.00481376051902771
1746232610067667500,8.05766748046875,0.060888345134155336,0.03490673378109932,-0.016204981968857866,-0.0505877248942852,0.22365539951760455,0.9548186409257319,0.4721931524826858,right,-0.00018709897994995117,-0.389458436893393,0.5520553519763052,-9.055465721994638,-0.1950311731330906,-0.07738669961690903,0.0002240799367427826,3.723461720448732,0.009089797735214233
1746232610107667500,8.09766748046875,0.05982904686138391,-0.0006003603339195251,-0.017139776664980247,-0.020317871123552322,0.22407507153923653,0.9544458700321126,0.47308150831712475,right,0.0006069540977478027,-0.3923681099941973,0.5418124826423824,-9.045192165261506,-0.1962900421213323,-0.06832219660282135,0.0016113296151161194,3.7498432391569017,0.010698556900024414
1746232610147667500,8.13766748046875,0.058960184796746064,-0.016568295657634735,-0.017798808184489118,-0.017261551693081856,0.22391360659879475,0.9542598472860565,0.4727469883213802,right,-0.002271294593811035,-0.39472570796600104,0.5334308406030759,-9.036808952319621,-0.19731743619632927,-0.04950746148824692,0.0016316883265972137,3.7711958237871523,0.009411394596099854
1746232610187667500,8.17766748046875,0.05808729599859857,-0.016590282320976257,-0.018349023899800147,-0.013543316163122654,0.2236253439112099,0.9541695759119918,0.47209271272020964,right,-0.001240849494934082,-0.3964147793904119,0.5251719481606036,-9.03089943601489,-0.19802927894233668,-0.029252685606479645,0.004454564303159714,3.786480778941512,0.007210582494735718
1746232610227667500,8.21766748046875,0.05742625295603721,-0.016202261671423912,-0.018700791246262095,-0.010267941281199455,0.22331891989554067,0.9541585003466524,0.47138323500528995,right,-0.001686692237854004,-0.3973246557931776,0.5190040731806308,-9.027800885477662,-0.1983948763690762,-0.007945703342556953,0.0035882219672203064,3.7947102626264093,0.004360705614089966
1746232610267667200,8.257667236328125,0.05658254752786125,-0.013215692713856697,-0.019028085542793175,-0.018824955448508263,0.2230895497180778,0.9542320056693747,0.4707208420063821,right,0.0010510087013244629,-0.39724307366614514,0.5114045944949611,-9.028544981843233,-0.19826815280895868,0.018084978684782982,0.0014023259282112122,3.7939725960016246,0.0008601844310760498
1746232610307667200,8.297667236328126,0.05530412750289374,-0.006912023760378361,-0.0194320903846444,-0.031442441046237946,0.2230138443125987,0.9544001829362426,0.47019679628162137,right,-0.002104341983795166,-0.39592417865775537,0.5001380446691066,-9.034179772859812,-0.19750299426809345,0.06364349275827408,-0.002224009484052658,3.7820425042331216,-0.007551848888397217
1746232610347667500,8.33766748046875,0.05205837630757841,0.029624298214912415,-0.020256028254419564,-0.14621028304100037,0.22361048370792835,0.9549342257315484,0.4703114989289791,right,-0.03459608554840088,-0.38961495335142254,0.4720450458679348,-9.059404815009236,-0.19413553482110193,0.2826167047023773,-0.026765869930386543,3.7248815241187807,-0.03424769639968872
1746232610387667500,8.37766748046875,0.04467098139543857,0.3121320605278015,-0.022356935692055182,-0.30225634574890137,0.2275284313618375,0.9557176583397009,0.47586907429676417,right,-0.05454683303833008,-0.3729404715830859,0.4078245391635224,-9.123430420196057,-0.18529618378586185,0.5213314294815063,-0.01135474257171154,3.5731048625037074,-0.03306049108505249
1746232610427667500,8.41766748046875,0.03710687866339536,0.6691398620605469,-0.025177473538324214,-0.3989120125770569,0.23842139581726524,0.9551320007395198,0.4958329885800715,right,-0.05180966854095459,-0.35140410593280075,0.34157895637229085,-9.201030377227067,-0.17390829266633837,0.49367785453796387,0.005319848656654358,3.3756098212867975,-0.02905067801475525
1746232610467667500,8.45766748046875,0.03188130009753745,0.9908426403999329,-0.02872755402814696,-0.469992995262146,0.25627849006240405,0.9519101092356276,0.5313860268049205,right,-0.039039790630340576,-0.33593380913137294,0.295123202406615,-9.253781724205613,-0.16541814924479056,0.18716543912887573,0.018019987270236015,3.2327707916259762,-0.005918383598327637
1746232610507667200,8.497667236328125,0.02836889237318156,1.12481689453125,-0.03424038778900821,-0.3791689872741699,0.2784163292525927,0.9456682883244903,0.5774607970891183,right,0.01879221200942993,-0.3362808424175453,0.2625865403358824,-9.253639100864529,-0.16438764962451619,-0.2614506483078003,0.014856338500976562,3.2359836161926387,0.01132240891456604
1746232610547667200,8.537667236328126,0.02766770865986618,0.8747419118881226,-0.04047388758461831,-0.28066760301589966,0.29817622155776685,0.9382150498843603,0.620355525085208,right,0.10001319646835327,-0.3520367776743563,0.2546557290703058,-9.201708422619104,-0.1708956206515891,-0.31982919573783875,-0.001951826736330986,3.381434289656579,-0.05128955841064453
1746232610587667500,8.57766748046875,0.022649101328410103,0.6713838577270508,-0.04636974716564148,-0.5358661413192749,0.31368367689085064,0.9327223570346979,0.6529396308086692,right,0.024519741535186768,-0.35692105041834354,0.2080964233986102,-9.186248987680672,-0.1717017507607318,0.06319794058799744,-0.009113635867834091,3.4263545046180486,-0.0060530900955200195
1746232610627667500,8.61766748046875,0.006542112602546934,0.39423373341560364,-0.0551347387522525,-0.5297067165374756,0.3263558799173761,0.9288628701562471,0.6769179710721607,right,0.03980755805969238,-0.3522206204411529,0.06021770080383867,-9.204412420880795,-0.16633018076031303,0.10906879603862762,0.043309520930051804,3.383126480527222,0.07818087935447693
1746232610667667500,8.65766748046875,-0.00577013145388051,0.14311274886131287,-0.06141529798484178,-0.18665271997451782,0.333009914457227,0.9267347137772025,0.6889174311871513,right,0.043371498584747314,-0.3496827590616711,-0.05316034790454432,-9.213012491443752,-0.16277364599757185,-0.00927945226430893,0.04243112727999687,3.359755541811883,0.09353587031364441
1746232610707667500,8.69766748046875,-0.006270506280011775,-0.08957508206367493,-0.06256976378571034,0.14030808210372925,0.333720790021687,0.9260410102002035,0.6906498414917717,right,0.05878931283950806,-0.3543812474517646,-0.05767068320214748,-9.197097713953257,-0.1648136865505193,-0.20098096132278442,0.019457701593637466,3.4030063622564075,0.06994366645812988
1746232610747667200,8.737667236328125,-0.0005150837057213291,-0.2797948122024536,-0.060399661306073195,0.2300281971693039,0.32917891582635905,0.926990324308387,0.6823367712654038,right,0.058046042919158936,-0.36157801002403367,-0.004724093354359501,-9.172548963630199,-0.16935778634686935,-0.09347058087587357,-0.013326779939234257,3.4691081891953943,-0.005672812461853027
1746232610787667200,8.777667236328124,0.0020778805995436012,-0.21672888100147247,-0.05775201686405951,0.03266516327857971,0.32355363065969817,0.9292264339581339,0.6705118123413235,right,-0.006157517433166504,-0.35885531739893,0.019079549106262857,-9.181941645875572,-0.1688667783056302,0.19624564051628113,-0.021986855193972588,3.444121339716017,-0.02146098017692566
1746232610827667500,8.81766748046875,-0.0007431890305607896,-0.056895285844802856,-0.057030554642745326,-0.07436306029558182,0.32142542441014,0.9308661732551942,0.6648270338730438,right,-0.02755206823348999,-0.34918310401586133,-0.0068478229222615475,-9.214840875914692,-0.16407738923628673,0.23718327283859253,-0.0006040340522304177,3.355151847408712,-0.0013510584831237793
1746232610867667500,8.85766748046875,0.0000662634605785261,0.07485152781009674,-0.055485598063247196,0.10194174200296402,0.3219559604518483,0.931380721034096,0.6656464665856903,right,-0.020172417163848877,-0.3415059576554651,0.0006128425888757192,-9.240329537436365,-0.1606102731476731,0.10138747096061707,0.014286619611084461,3.2843098402053115,0.015362709760665894
1746232610907667500,8.89766748046875,0.009284732824759575,0.0010075420141220093,-0.05132275434019301,0.3113792836666107,0.32215249572305266,0.9313195622572885,0.6676526235191983,right,0.005134284496307373,-0.3413089265800875,0.08579931043912656,-9.240578543761371,-0.16194940393046775,-0.056386470794677734,0.015581711195409298,3.2824893467798826,0.017233997583389282
1746232610947667500,8.93766748046875,0.02124122089120246,-0.2195502072572708,-0.04597945500986123,0.3470984101295471,0.31902863319221536,0.9320222826026512,0.6632926406750161,right,0.01477724313735962,-0.34492169671541834,0.19602224698429926,-9.226975550344585,-0.16565347594285174,-0.09577640891075134,-0.00000377558171749115,3.3158532717213034,0.020298540592193604
1746232610987667200,8.977667236328125,0.027663232764333016,-0.335353821516037,-0.04262390752565694,0.17787474393844604,0.3127133429381228,0.9337500006021263,0.6511977147341973,right,-0.003568887710571289,-0.3489945018119156,0.2548979037957266,-9.211950415170191,-0.168832646473003,-0.09244456142187119,-0.006249530240893364,3.3534137715697288,0.02762967348098755
1746232611027667200,9.017667236328125,0.02755797281336536,-0.3696017563343048,-0.042269053347074426,0.13450881838798523,0.3056458556853788,0.9355888155270675,0.6364517511878468,right,0.010690510272979736,-0.3544201007454553,0.25342319160066545,-9.193654295501112,-0.17166079747461976,-0.1438242346048355,0.02346821129322052,3.403363797391951,0.03760823607444763
1746232611067667500,9.05766748046875,0.030894474342988733,-0.36944642663002014,-0.040305382871989266,0.29918181896209717,0.297792377023583,0.9375095874988154,0.6207581332494978,right,-0.00036448240280151367,-0.3606841596939571,0.2834322714225389,-9.171268276169895,-0.17541643653864983,-0.13911832869052887,0.007043974474072456,3.4609079316049813,0.016142070293426514
1746232611107667500,9.09766748046875,0.03959604908398824,-0.3171280026435852,-0.03578588412071814,0.359085351228714,0.28985803747833955,0.9393623102908923,0.6059392682150495,right,-0.01863163709640503,-0.3665472736848189,0.3624155177718028,-9.14802184061706,-0.17972221993351717,-0.13126757740974426,-0.009080298244953156,3.5146459515333173,0.0007345378398895264
1746232611147667500,9.13766748046875,0.04770566364328454,-0.24077335000038147,-0.03156471843509397,0.23837780952453613,0.2831756306172682,0.9408522396524909,0.5936694704712352,right,-0.017146527767181396,-0.371337016626917,0.43578192888628686,-9.12786168064177,-0.1833364012468705,-0.04467795789241791,-0.02421541139483452,3.5584567439481614,-0.033824771642684937
1746232611187667500,9.17766748046875,0.05028334403159473,-0.13887222111225128,-0.029674106609482966,0.05631144344806671,0.279006391688466,0.9420088697739419,0.5853634986585714,right,-0.014775753021240234,-0.3719288166654617,0.459203246081993,-9.124603555628656,-0.1841036358642849,0.022139638662338257,-0.017947610467672348,3.563864155949652,-0.025671839714050293
1746232611227667500,9.21766748046875,0.049080933998313654,-0.06547126173973083,-0.029659324178291747,0.004782967269420624,0.27712088220148245,0.9427024215507166,0.581024067353456,right,0.0016515851020812988,-0.37065538910771423,0.44845370586756617,-9.129674283021687,-0.18340249657614535,0.027813581749796867,-0.004337523132562637,3.5522269096478816,-0.00936707854270935
1746232611267667200,9.257667236328125,0.048485587838363486,-0.045107197016477585,-0.029739034447029324,0.022794511169195175,0.2760822410550781,0.9430068310200066,0.5787113456120829,right,0.003542482852935791,-0.37073338361048036,0.443004865877144,-9.129663177105783,-0.1833911687165713,-0.034145548939704895,-0.0028246119618415833,3.5529397340923548,-0.001368016004562378
1746232611307667200,9.297667236328126,0.04901465101546555,-0.039869558066129684,-0.02961845671311844,0.03142952919006348,0.2751377118007891,0.9430811877772579,0.5769741904967377,right,0.0030046701431274414,-0.37276428050963645,0.4474805134538561,-9.122201755183935,-0.18444485856146453,-0.0648820549249649,-0.004786506295204163,3.5714956737414,-0.0034543871879577637
1746232611347667500,9.33766748046875,0.0492388843278949,-0.023580683395266533,-0.029731247473785975,0.0005870889872312546,0.2743969135514557,0.9430610936426149,0.5756413668511314,right,0.0016525983810424805,-0.37517565371196243,0.4491008081320673,-9.113473089805245,-0.18562935520669305,-0.048430636525154114,-0.007230088114738464,3.5935087681069966,-0.00905713438987732
1746232611387667500,9.37766748046875,0.04842063812373305,0.007979055866599083,-0.03029410875464898,-0.03161090612411499,0.2743105520060982,0.9429597403143437,0.5754099727715358,right,-0.003363490104675293,-0.37657844825004444,0.44139918424617497,-9.108793407556414,-0.186180187720853,-0.02848087251186371,-0.006973862648010254,3.6063051213160153,-0.006825178861618042
1746232611427667500,9.41766748046875,0.04739645413622778,0.034468069672584534,-0.031009836860732477,-0.029241440817713737,0.2748555304093679,0.9427188519674007,0.5764412438652835,right,-0.0009199380874633789,-0.37754475727214415,0.4319045759962871,-9.105755647295712,-0.18647808175600375,-0.02671617642045021,-0.0020393691956996918,3.6151156197592615,-0.00010207295417785645
1746232611467667500,9.45766748046875,0.047422043729646486,0.04024743661284447,-0.03131607661682794,0.006245391443371773,0.2756435666268524,0.9423825274156815,0.5782054724448809,right,0.0035806894302368164,-0.37862714834422184,0.43195184920411556,-9.101830582806468,-0.18696285273533092,-0.03244837746024132,0.0020299553871154785,3.6249805956915018,0.007579207420349121
1746232611507667200,9.497667236328125,0.048792253915927876,0.018864275887608528,-0.03096188211252097,0.03267907351255417,0.27616424076252505,0.9421075655919408,0.5796708415054845,right,0.0026608705520629883,-0.37971015592647084,0.4442311197364703,-9.097303460770846,-0.18763789267570977,-0.023663263767957687,0.0009761042892932892,3.634847032928467,0.012428492307662964
1746232611547667200,9.537667236328126,0.0502564078661236,-0.00928519107401371,-0.03040418877375519,0.031006217002868652,0.27614799434836224,0.9420239606670089,0.5799872371068611,right,-0.0005439519882202148,-0.3804273821205194,0.4574193948725238,-9.094037152451277,-0.18817208133242666,-0.01164298690855503,0.0002534128725528717,3.6413784805238243,0.015668213367462158
1746232611587667500,9.57766748046875,0.05090946140442339,-0.0393046997487545,-0.03007711044426155,0.017515651881694794,0.2756013650020181,0.9421250971401817,0.5789999291133184,right,-0.0033847689628601074,-0.3809431639539415,0.46326256794277576,-9.091859808412194,-0.18851933941988397,-0.010035292245447636,-0.0005672387778759003,3.6460745293855665,0.01605948805809021
1746232611627667500,9.61766748046875,0.050735492294752244,-0.06424951553344727,-0.03004529519728931,0.01637144945561886,0.2745539727008308,0.9423677290228852,0.5767965892656016,right,0.0007309913635253906,-0.38160496759118895,0.4615583578407764,-9.089528150594234,-0.18883942351237737,-0.015321736223995686,0.001926381140947342,3.6520986119806764,0.01219874620437622
1746232611667667500,9.65766748046875,0.050544220049502396,-0.0828920230269432,-0.02997016148566762,0.02775036171078682,0.27301265952724324,0.9427202051961616,0.5735691383538951,right,0.0014473199844360352,-0.38259331942154723,0.45963721705246713,-9.086006990730763,-0.18932609830475225,-0.02172025293111801,-0.001873902976512909,3.661092065775394,0.006844967603683472
1746232611707667500,9.69766748046875,0.04989059491225663,-0.08287322521209717,-0.030074041009964893,0.008562207221984863,0.2712870800843927,0.9431229537466402,0.5698633569537916,right,0.002756476402282715,-0.3836380423202823,0.4535072629300877,-9.082480570170283,-0.18978391396963526,-0.01743159629404545,-0.005969539284706116,3.670594638136029,-0.0000023543834686279297
1746232611747667200,9.737667236328125,0.04871485114524352,-0.07677368819713593,-0.03035664504695141,0.003993114456534386,0.2696995910894399,0.943545356263228,0.566299615151928,right,0.005073189735412598,-0.38411257164221296,0.44274343846198166,-9.081266518205403,-0.1899019320436829,0.005487363785505295,-0.005538478493690491,3.6749092864647506,-0.0051164329051971436
1746232611787667200,9.777667236328124,0.04766222946641087,-0.06732657551765442,-0.03047023838944254,0.019172504544258118,0.2683782854351801,0.9440003784343675,0.5632345499703558,right,0.001555800437927246,-0.38344746714709443,0.4333004142688587,-9.084166915822028,-0.18949393834814252,0.0273582860827446,-0.0015295632183551788,3.6688615307331083,0.0001291036605834961
1746232611827667500,9.81766748046875,0.04746616104594829,-0.07028733938932419,-0.03014583709215904,0.029233822599053383,0.2669936341786589,0.9444872739069694,0.5601883293581429,right,-0.00893479585647583,-0.38251643611660696,0.43168117903657255,-9.087660018634796,-0.18907545629490788,0.02505233697593212,0.0037632957100868225,3.660392685334384,0.004835993051528931
1746232611867667500,9.85766748046875,0.047480492187704386,-0.09617916494607925,-0.029700352164600055,0.03829031437635422,0.26534163425457835,0.9450264367716998,0.5566347050713705,right,-0.00658261775970459,-0.3817666932896146,0.43194154700580983,-9.09039265846908,-0.18877729840895485,0.018298879265785217,0.009914375841617584,3.653570438098907,0.014727294445037842
1746232611907667500,9.89766748046875,0.04699593693999838,-0.13214394450187683,-0.029379580430109613,0.036122191697359085,0.2630385900907484,0.9457311127456876,0.5516215435969538,right,-0.0019639134407043457,-0.38120252759381373,0.42763347454834727,-9.092658265313506,-0.1885213535704405,0.019071178510785103,0.010710831731557846,3.6484357055589554,0.015938639640808105
1746232611947667500,9.93766748046875,0.04628134595062116,-0.17441558837890625,-0.029079213357596688,0.05759568512439728,0.2600348992200621,0.9465879065863914,0.5451154291759182,right,-0.001254439353942871,-0.38101512591886105,0.4211674568720162,-9.093644353741407,-0.18843456934507866,-0.00433429516851902,0.007039211690425873,3.646729778423905,0.01553693413734436
1746232611987667200,9.977667236328125,0.04669071381103305,-0.2437601387500763,-0.028344018112956598,0.13368989527225494,0.25574282383046165,0.9475365639732045,0.5363012859831976,right,0.004420042037963867,-0.38320561265958913,0.4245162193106487,-9.08546981511414,-0.18964858605510834,-0.10407044738531113,0.006004747003316879,3.666661682601273,0.01636675000190735
1746232612027667200,10.017667236328125,0.051377991746250476,-0.37211158871650696,-0.026136809581956,0.36481982469558716,0.24892209110011537,0.948354173159286,0.5235962665511161,right,0.029213309288024902,-0.3926590387539874,0.46529655798841263,-9.04835793581605,-0.19488203303740584,-0.3556239604949951,0.027386292815208435,3.7524791406184432,0.03788846731185913
1746232612067667500,10.05766748046875,0.06706884418111804,-0.5925719738006592,-0.01941253429230973,0.7644155025482178,0.23700829466174553,0.9489651373078141,0.5035891211854032,right,0.029395580291748047,-0.41411242480688076,0.6016753786591813,-8.957547199556231,-0.20716023085579957,-0.6775481700897217,0.010897275060415268,3.9459751753270624,0.0469515323638916
1746232612107667500,10.09766748046875,0.09151150123200683,-0.8565686941146851,-0.009170547990312325,1.007767677307129,0.21902539115595376,0.9487828781855063,0.4747471218779216,right,0.01868671178817749,-0.45082431868109796,0.8066320244610309,-8.789916842988132,-0.22749697840214295,-1.0263797044754028,-0.012321308255195618,4.272831924994289,0.018426746129989624
1746232612147667500,10.13766748046875,0.1163024293339976,-0.9805130958557129,0.0014672173364110733,1.0146214962005615,0.19622922793568623,0.9474600566282048,0.43808151432240305,right,-0.01525425910949707,-0.49848903336856093,0.9994845736343413,-8.555052440580726,-0.2526094965027813,-1.1780239343643188,-0.0193822979927063,4.688549153636395,-0.0007741451263427734
1746232612187667500,10.17766748046875,0.13498368152105905,-1.0211941003799438,0.009729802259352114,0.894970178604126,0.1721672102488648,0.9445678192740538,0.3988726113606013,right,-0.012071430683135986,-0.5520620736278024,1.1236707791429013,-8.273868185546993,-0.27938406316643416,-1.1840898990631104,-0.017488792538642883,5.143039180526137,-0.03660398721694946
1746232612227667500,10.21766748046875,0.14603600048383358,-0.9431102871894836,0.015821225967626494,0.7208117842674255,0.14912387607393476,0.9412185592862631,0.35955036335946133,right,-0.029556334018707275,-0.6005185025531251,1.1773688323870302,-8.004782949107884,-0.302686860324928,-0.9812139868736267,-0.006987385451793671,5.541446377927064,-0.02939450740814209
1746232612267667200,10.257667236328125,0.15002884861999874,-0.8066521883010864,0.019796549467302433,0.5510919690132141,0.12890060400102024,0.9380580318107615,0.3229078360811253,right,-0.029561519622802734,-0.6399133630747138,1.1757621278427541,-7.778014759394526,-0.3209980096942458,-0.7294930815696716,-0.001440189778804779,5.855804588288068,-0.025534093379974365
1746232612307667200,10.297667236328126,0.14991613275773213,-0.6349753141403198,0.02244575846669524,0.40264269709587097,0.11244564957427228,0.9355002295222686,0.29144468685490105,right,-0.03490293025970459,-0.6690561040737514,1.14890210490264,-7.60612849894762,-0.33420286841613017,-0.5340218544006348,-0.0031997933983802795,6.082533615034818,-0.016299843788146973
1746232612347667500,10.33766748046875,0.14800251018777796,-0.4458402693271637,0.02405383855888138,0.26097989082336426,0.10028751466063376,0.9335375635779326,0.2672688211654002,right,-0.02838057279586792,-0.6895468824031713,1.1157288071624933,-7.4834513828277585,-0.34332429466737774,-0.3495214283466339,-0.006080605089664459,6.2388692551285025,-0.014498651027679443
1746232612387667500,10.37766748046875,0.14555650275018442,-0.2833787798881531,0.0247759847974507,0.14339548349380493,0.09229714621346166,0.9321512448603971,0.25084723288816185,right,-0.019876301288604736,-0.7029835774931957,1.0851632807679474,-7.402541862857341,-0.34922996210930773,-0.2301386296749115,-0.005043022334575653,6.339967576646805,-0.017343461513519287
1746232612427667500,10.41766748046875,0.14350767552987564,-0.1513175219297409,0.02495096063192727,0.069379523396492,0.08768275986924418,0.9312371274054904,0.24113829015487026,right,-0.015614807605743408,-0.7112157495350441,1.0624941336464135,-7.352844058230519,-0.3528267860100092,-0.13534921407699585,-0.00289124995470047,6.401342375063896,-0.018032431602478027
1746232612467667500,10.45766748046875,0.14217644150980605,-0.05688922852277756,0.0248278530480186,0.0184544175863266,0.08555192185079731,0.930682573446532,0.236581780555747,right,-0.012765109539031982,-0.7157643477634547,1.0485681188203393,-7.32535282471478,-0.3548162063450976,-0.07181768864393234,-0.0006041377782821655,6.435068119055033,-0.018292605876922607
1746232612507667200,10.497667236328125,0.14175913404962723,0.010446585714817047,0.024598053335812883,-0.01835450902581215,0.08516995645268205,0.9303121510516232,0.23587655071629443,right,-0.013898253440856934,-0.7181526551968866,1.0433367209728805,-7.310553899511694,-0.3558938431224516,-0.05170881748199463,-0.004290521144866943,6.452723602733015,-0.01756441593170166
1746232612547667200,10.537667236328126,0.1415918548503346,0.061208296567201614,0.023973806613250926,-0.06228931248188019,0.08620010668878236,0.9298974002954763,0.23824123273290987,right,-0.006891489028930664,-0.7200047311806387,1.0404255097012967,-7.298884504505992,-0.3567712513539478,-0.0576038621366024,-0.0059895142912864685,6.466389139991998,-0.01325523853302002
1746232612587667500,10.57766748046875,0.1419929253936491,0.08765798062086105,0.02323299830379337,-0.054153766483068466,0.08809392128368744,0.9293694512973006,0.24269378188058896,right,0.005435049533843994,-0.7219335643843828,1.0415857856523245,-7.286105686953664,-0.3577320484098102,-0.06318120658397675,-0.000023633241653442383,6.4805976980865,-0.00789022445678711
1746232612627667500,10.61766748046875,0.14380069183489305,0.08720733970403671,0.023042242653902006,-0.025690903887152672,0.08998374380519822,0.9287925159951353,0.24768884719699003,right,-0.001063227653503418,-0.7238853185529985,1.052941073207557,-7.271679102194309,-0.3587709501755181,-0.06344885379076004,0.0008674263954162598,6.494950633087754,0.002353370189666748
1746232612667667500,10.65766748046875,0.14657339364855587,0.07274625450372696,0.023320114574915164,0.0031563714146614075,0.0916334160650898,0.9282098960134898,0.2525464359301159,right,-0.0026653409004211426,-0.7258125505088769,1.0712690493196249,-7.256335402590036,-0.3598416821782514,-0.06104213744401932,0.00497860461473465,6.509098985427618,0.015390276908874512
1746232612707667500,10.69766748046875,0.14941084241874442,0.04170361906290054,0.023835390813134134,0.0037813999224454165,0.092689968312456,0.9276592494924241,0.2561753679336389,right,-0.005814552307128906,-0.7278538332142409,1.0898740888074039,-7.2401125820636745,-0.3609555100504237,-0.06115692853927612,0.0011488646268844604,6.5240580696284765,0.018166005611419678
1746232612747667200,10.737667236328125,0.15082474548186814,0.0158854927867651,0.023968734513083675,0.003346251556649804,0.0932154475360478,0.9271586691085167,0.2581429733853584,right,0.006660878658294678,-0.7301365728970372,1.0978691061493009,-7.22382137247622,-0.36209547211894866,-0.05383708328008652,0.004996798932552338,6.540754937407374,0.008091628551483154
1746232612787667200,10.777667236328124,0.1518217941747196,-0.005695603787899017,0.024175170769300595,0.027093276381492615,0.09320289452569445,0.9267779187494243,0.25875308621620086,right,0.009181201457977295,-0.7321130504511236,1.10311380186975,-7.209929625245929,-0.36305846002987363,-0.03852391988039017,0.006269976496696472,6.555183860254287,-0.0017839670181274414
1746232612827667500,10.81766748046875,0.15294635520584837,-0.01152950618416071,0.02458424028357613,0.022425813600420952,0.09286711232049388,0.9264748609633124,0.25868274690969273,right,-0.0015131831169128418,-0.7338086432212285,1.109526080064848,-7.197689152354002,-0.3638895441610124,-0.037195656448602676,0.002841576933860779,6.567541822046041,-0.001995563507080078
1746232612867667500,10.85766748046875,0.1532613267614027,-0.0033852215856313705,0.0246418531077088,-0.007789004594087601,0.0927069229208812,0.9262431392425632,0.2586289137556589,right,-0.00829702615737915,-0.7351408104127621,1.1104564927827567,-7.188686346209049,-0.36451581589562465,-0.023100394755601883,0.00042979419231414795,6.577237286630273,0.0012013912200927734
1746232612907667500,10.89766748046875,0.1524442973830706,0.007444452494382858,0.024160078477058068,-0.03551435098052025,0.09297654860986018,0.9261375007897221,0.25896249637131663,right,-0.0043985843658447266,-0.735719261061329,1.1040048324253409,-7.185829787734151,-0.3647477793271022,-0.00398932583630085,0.0015152394771575928,6.581444090670347,0.0013842582702636719
1746232612947667500,10.93766748046875,0.1512894640507979,0.014670146629214287,0.023510330945141985,-0.0352143719792366,0.09352159651620033,0.9261486035225354,0.2596630037309242,right,-0.0012258291244506836,-0.7355461468491006,1.0958773478101937,-7.188226327481866,-0.3646227230363367,0.0053222207352519035,0.0022577419877052307,6.580185615041851,0.003134489059448242
1746232612987667200,10.977667236328125,0.15039074961216573,0.007296389434486628,0.02298513031253652,-0.025169620290398598,0.09398194314495796,0.9261432902472135,0.2602933311032366,right,0.003355085849761963,-0.7354664686402705,1.089495318622887,-7.189726210650801,-0.36455130916666995,-0.0035036616027355194,0.0013434812426567078,6.579605769327283,0.00588381290435791
1746232613027667200,11.017667236328125,0.15007386378922646,0.004628598690032959,0.022717972279508995,-0.01053536031395197,0.09426571792916662,0.9260656980913283,0.26082215836671074,right,-0.00010919570922851562,-0.735791785857828,1.0868968996275217,-7.187954524803161,-0.36469192725630234,-0.015295608900487423,-0.0005190297961235046,6.581971329414844,0.008638083934783936
1746232613067667500,11.05766748046875,0.1499628566201283,-0.009341031312942505,0.022562194297065997,-0.0000421060249209404,0.09425890515612868,0.9258564847873348,0.26091269568331343,right,-0.0015236735343933105,-0.7369811467752387,1.0849285952292382,-7.18033002127409,-0.36523419171916843,-0.03769541531801224,-0.0016497895121574402,6.590612901031971,0.007431685924530029
1746232613107667500,11.09766748046875,0.14983262831602137,-0.008621985092759132,0.022410703310738828,0.0007560589001514018,0.09409946908548635,0.9255729365786504,0.26072864547134744,right,0.00029969215393066406,-0.7386716001510779,1.0823289341248572,-7.169444470122456,-0.36600249383171296,-0.03861052542924881,-0.00354931503534317,6.6028790928870436,0.007203936576843262
1746232613147667500,11.13766748046875,0.14960834272874068,-0.005335284397006035,0.02224100397767494,-0.006375770550221205,0.09396839957717376,0.9253436162788915,0.2605302265360596,right,0.002572774887084961,-0.7400570474410237,1.0793564211200921,-7.1606345562011,-0.3666259373455898,-0.02135513909161091,-0.005163788795471191,6.612918256342411,0.0033051371574401855
1746232613187667500,11.17766748046875,0.14936912904802915,0.015557806938886642,0.02209310050543943,-0.01883736252784729,0.09410660065309823,0.925336973815966,0.26073395282733935,right,-0.0022479891777038574,-0.7400554449234311,1.0776450140923262,-7.160903436270356,-0.36661620971401904,0.010952694341540337,-0.004421703517436981,6.612906565904617,0.0008410215377807617
1746232613227667500,11.21766748046875,0.14917861522761836,0.025030523538589478,0.021897593562356574,-0.02161264978349209,0.09463058802161876,0.9254495988296711,0.26167939782178595,right,-0.0017341971397399902,-0.7391643378093748,1.0771561345968395,-7.166932779562472,-0.36620845218130127,0.015779320150613785,-0.0011802688241004944,6.6064511061549185,0.004208564758300781
1746232613267667200,11.257667236328125,0.1492166011153437,0.030610395595431328,0.021697787559965792,-0.021166464313864708,0.09526751528804824,0.9254523073050617,0.263022675984806,right,-0.003001868724822998,-0.7387796895229132,1.0778060498729347,-7.169404138112068,-0.3660482729041297,-0.0003508124500513077,-0.001353919506072998,6.603662936741113,0.003242671489715576
1746232613307667200,11.297667236328126,0.14935210372399174,0.024472234770655632,0.02145915713060453,-0.0280147735029459,0.0959880920767755,0.9253618967827419,0.264641935921085,right,-0.00701749324798584,-0.7388460364389285,1.0787122779976577,-7.1688248769193885,-0.3661026818343637,-0.01251889206469059,-0.00034264475107192993,6.604143998256325,0.00786745548248291
1746232613347667500,11.33766748046875,0.14880717083593642,0.006762949749827385,0.020996152227205075,-0.026587899774312973,0.09647213508539249,0.925219548210493,0.2655481535328379,right,-0.004754781723022461,-0.7394471902567594,1.0742168662745506,-7.16548433431983,-0.3663620513547084,-0.025557085871696472,0.0001339241862297058,6.608501024422049,0.010389626026153564
1746232613387667500,11.37766748046875,0.14793504550946524,-0.02059338055551052,0.02049893656885482,-0.012485280632972717,0.0965178117282081,0.9249842785702951,0.26547980947521693,right,0.0025937557220458984,-0.7408684787337091,1.0665816952209919,-7.1571209951221935,-0.366971656828467,-0.03821147605776787,0.0011701136827468872,6.618792116811871,0.010645568370819092
1746232613427667500,11.41766748046875,0.1466930813205097,-0.04071953147649765,0.020032214028800652,-0.0017841048538684845,0.09598842899848668,0.924717627198988,0.2640895884905951,right,0.005111277103424072,-0.742850284561664,1.0557725703064351,-7.145449262028932,-0.3678072726276447,-0.04561333358287811,-0.0008359998464584351,6.633119917371869,0.0060329437255859375
1746232613467667500,11.45766748046875,0.1455134964073757,-0.055115245282649994,0.019771434601040083,0.018500396981835365,0.09499252776723813,0.9244834835780973,0.26172021653478555,right,0.006442248821258545,-0.7448991378937785,1.0453703456923364,-7.133228078359365,-0.3686674525301457,-0.040505144745111465,-0.0022775307297706604,6.6479048140496015,0.002165853977203369
1746232613507667200,11.497667236328125,0.14476717456638374,-0.06766845285892487,0.019826852594934177,0.04239131882786751,0.093613078547401,0.9242574425124079,0.25870144566139125,right,0.004259765148162842,-0.7470368458475404,1.0379938986402004,-7.119927282759547,-0.3695830500208226,-0.04842878505587578,-0.002222776412963867,6.663301120623946,0.001784682273864746
1746232613547667200,11.537667236328126,0.14455860620583805,-0.07514701783657074,0.020239136283283703,0.06934702396392822,0.09182881791510787,0.9240192523792273,0.25504159586449265,right,0.0022353529930114746,-0.7493605002759955,1.0342756087694316,-7.104802778863906,-0.3706025475127328,-0.046544935554265976,-0.0025045275688171387,6.680002664577961,0.0003407597541809082
1746232613587667500,11.57766748046875,0.1450098587540431,-0.07668079435825348,0.020979576897031615,0.0767950713634491,0.08988914887789914,0.9237841396467273,0.251300387521737,right,-0.000770866870880127,-0.7516222008101926,1.0352958186626433,-7.089367893844843,-0.3716217090419581,-0.04697273299098015,-0.00203491747379303,6.696223731538653,0.0018139481544494629
1746232613627667500,11.61766748046875,0.1451611628082917,-0.07558715343475342,0.021594572779392293,0.06552409380674362,0.08791685730854092,0.9235032052754195,0.24740084510407834,right,-0.0027813315391540527,-0.7541692749154809,1.0338979345634578,-7.072311545103788,-0.3727547932925414,-0.054163556545972824,-0.0009929388761520386,6.7144502931028605,0.00471419095993042
1746232613667667500,11.65766748046875,0.1451928855447954,-0.07629776000976562,0.02212043662820113,0.06189843267202377,0.08604950221362892,0.9231996847320914,0.24368476902552674,right,-0.0029107332229614258,-0.7567741813632695,1.0315881232511253,-7.054948322370648,-0.37390967077317566,-0.0549449659883976,-0.00111398845911026,6.733046272501349,0.00663834810256958
1746232613707667500,11.69766748046875,0.14458498126589162,-0.08222249895334244,0.022410776246527687,0.047680389136075974,0.08418532229170267,0.922923781415381,0.23970325612044388,right,-0.00021147727966308594,-0.7592984535296631,1.024847197623551,-7.0387331006288525,-0.3749963432818489,-0.048753853887319565,-0.005404092371463776,6.75102265869677,0.009995043277740479
1746232613747667200,11.737667236328125,0.14313056448782563,-0.10807997733354568,0.022502567857474724,0.051106829196214676,0.08209197330828356,0.922744997220561,0.23483833051469657,right,0.004501402378082275,-0.7615081041855234,1.012478495242074,-7.025434058594703,-0.37589385581790047,-0.034311745315790176,-0.0047200992703437805,6.766723501175641,0.008587896823883057
1746232613787667200,11.777667236328124,0.14136624742443227,-0.12855829298496246,0.022787914530718222,0.08625999838113785,0.0794025644340862,0.9227532942335063,0.2284651130809209,right,0.006867349147796631,-0.7629988804865444,0.9986594479218125,-7.017214511781931,-0.3764337026132807,-0.008077362552285194,-0.004442252218723297,6.777297502160072,0.0048239827156066895
1746232613827667500,11.81766748046875,0.14017635733683353,-0.1354561150074005,0.02358585121798081,0.11730055510997772,0.07617948637909916,0.922930474564558,0.22107372506048534,right,0.006132364273071289,-0.7636850031595194,0.9896591259948909,-7.013792136117815,-0.3766162889647747,0.010873446241021156,-0.005192413926124573,6.782158970716595,-0.00186079740524292
1746232613867667500,11.85766748046875,0.14035419503851362,-0.12255983799695969,0.025001693778726627,0.1346997767686844,0.07282372604113486,0.9231485623304121,0.21390454582699053,right,-0.0013611912727355957,-0.7639431137600154,0.9906615079704671,-7.01188250310421,-0.3766542321607809,0.000591060146689415,-0.0038249418139457703,6.783987355187535,-0.000559389591217041
1746232613907667500,11.89766748046875,0.1419266261066992,-0.09343540668487549,0.026811951088725375,0.13987202942371368,0.06975164033099193,0.9232343194085361,0.20795682210461938,right,-0.0043601393699646,-0.7645266932681,1.001125838035345,-7.006396180647611,-0.3769009808165281,0.0006863956223241985,-0.003055393695831299,6.78811875590384,-0.0033680200576782227
1746232613947667500,11.93766748046875,0.1439435936268483,-0.061169616878032684,0.028570757054886507,0.09991749376058578,0.06735732946744585,0.9233683480357558,0.20358622058496867,right,-0.009759604930877686,-0.7644600455810099,1.015320367604494,-7.0048103727608915,-0.3768790024633873,0.023547157645225525,-0.005978696048259735,6.787647046738862,-0.0034746527671813965
1746232613987667200,11.977667236328125,0.14473736732513143,-0.018982786685228348,0.029503774906054204,0.024298779666423798,0.06614671857780807,0.9237383115050403,0.20110260713905578,right,-0.015693724155426025,-0.7628139031924782,1.0224903322990984,-7.015048273658752,-0.37611381950099615,0.06447097659111023,-0.0006809011101722717,6.775986419561505,-0.0005285143852233887
1746232614027667200,12.017667236328125,0.14375315048416773,0.022941000759601593,0.02938781867464466,-0.04357179254293442,0.06621294762119523,0.9244258328894005,0.20044242499262338,right,-0.013236045837402344,-0.7592150089048604,1.0190724866796284,-7.040140629339218,-0.3744183290119442,0.10926248133182526,0.005129188299179077,6.750429368978739,0.0034897923469543457
1746232614067667500,12.05766748046875,0.14187440658865078,0.04254407435655594,0.02865027521841867,-0.06630967557430267,0.06721320565390099,0.9253057251248917,0.20130235959076362,right,-0.006659388542175293,-0.7543184004567104,1.010505806929618,-7.074680027800798,-0.3721167258244935,0.12398624420166016,0.010905846953392029,6.715516461029648,0.005625486373901367
1746232614107667500,12.09766748046875,0.14022663140469274,0.04390502721071243,0.027930617220279556,-0.05812671408057213,0.0684278649321405,0.9261908113810442,0.20270536099702363,right,-0.000303804874420166,-0.7492341255783086,1.0036061836089938,-7.110052369955182,-0.3697405734141072,0.11889856308698654,0.010042674839496613,6.6790949020832775,0.004284322261810303
1746232614147667500,12.13766748046875,0.13911918314413596,0.028484437614679337,0.027460357701588316,-0.037348195910453796,0.06942885285615168,0.9269635012284911,0.20393220162815712,right,0.0012157559394836426,-0.744735778739207,0.9998878937382251,-7.1408426450163125,-0.3676469690042883,0.09606858342885971,0.004548311233520508,6.6467270024418825,0.005011796951293945
1746232614187667500,12.17766748046875,0.1382180247471286,0.005886878818273544,0.0271779816324146,-0.017498807981610298,0.06992372172711006,0.927552361693895,0.2042800853935848,right,0.003446042537689209,-0.7414072719730336,0.9964951094947755,-7.163613864272833,-0.36608566211587024,0.07164576649665833,0.0014551356434822083,6.622690293294191,0.005957663059234619
1746232614227667500,12.21766748046875,0.13765188801907693,-0.010374698787927628,0.027171103534277548,0.009164787828922272,0.06984144555864578,0.927987037253754,0.20363075252189022,right,0.0027971267700195312,-0.7391128799058253,0.9945217635951936,-7.17920890828967,-0.36499856527723995,0.05225636810064316,0.00003552436828613281,6.606078181189298,0.0037589073181152344
1746232614267667200,12.257667236328125,0.13754268693033173,-0.00920138694345951,0.027389429922431537,0.010471581481397152,0.06951708156748417,0.9283175569867702,0.20270644374332553,right,-0.001189589500427246,-0.7374241636362253,0.9952658599607646,-7.190357494291662,-0.3642027256820827,0.036346957087516785,-0.002790696918964386,6.593829524990916,0.002381622791290283
1746232614307667200,12.297667236328126,0.13761132952930014,0.017664067447185516,0.027514715436319788,-0.008269182406365871,0.06951661467818969,0.9285383465883256,0.20259838688677242,right,-0.006023287773132324,-0.7361821343637828,0.9968821360509842,-7.198395839318633,-0.363630157402393,0.02554451674222946,-0.0031842291355133057,6.584808598667383,-0.0009940862655639648
1746232614347667500,12.33766748046875,0.13806896320073384,0.04532772675156593,0.027489054184984135,-0.026806719601154327,0.07020838509487057,0.9286210338647105,0.20417853021785992,right,-0.00596773624420166,-0.7353591878848983,1.000921693765372,-7.203304069626331,-0.3632878583362732,0.007621925324201584,-0.00098496675491333,6.578826017126441,0.0012272000312805176
1746232614387667500,12.37766748046875,0.13870005748006956,0.060185935348272324,0.02728604171504738,-0.03528360649943352,0.07145472210614598,0.9285898054847843,0.20706029352485467,right,-0.0006943941116333008,-0.7349048570907766,1.0058805582817643,-7.205629882225394,-0.36313989327666935,0.0024750293232500553,0.0014742463827133179,6.575521130362152,0.0023716092109680176
1746232614427667500,12.41766748046875,0.1393468885035701,0.047498419880867004,0.027054416470883826,-0.028794053941965103,0.0727520683424022,0.9285183293289774,0.21007864351086955,right,0.0030060410499572754,-0.7346409070492298,1.0107822127182036,-7.2066966346740715,-0.36308236166616464,-0.0025329692289233208,0.0038415342569351196,6.573600391432643,0.004830121994018555
1746232614467667500,12.45766748046875,0.14013604375093658,0.018037041649222374,0.027079210194865963,0.008084982633590698,0.07347422938561524,0.9284327248642961,0.21194705416443627,right,0.003881216049194336,-0.7346788942749609,1.016434247130528,-7.205649171447753,-0.36315402565638943,-0.010426212102174759,0.00283929705619812,6.5738768702864645,0.008702099323272705
1746232614507667200,12.497667236328125,0.1414260820404497,-0.00947880744934082,0.02754572549959006,0.040543459355831146,0.07340430534000993,0.9282540864392311,0.2123933842551601,right,0.004734158515930176,-0.7355065717793648,1.0249616908486932,-7.198942951807379,-0.3635894630883369,-0.03116811066865921,0.002505175769329071,6.579897445750236,0.008717477321624756
1746232614547667200,12.537667236328126,0.14329453669168626,-0.03728964924812317,0.028495467676667396,0.0767572671175003,0.07247734850626483,0.9279532253394261,0.21132943359733133,right,0.0018990039825439453,-0.7372987083852005,1.036725266943872,-7.185332944127917,-0.3644694411372788,-0.04725339636206627,-0.0012552514672279358,6.592918839886784,0.004886209964752197
1746232614587667500,12.57766748046875,0.1450030942426508,-0.048139214515686035,0.02953698310128552,0.06570519506931305,0.07108842491779468,0.9276305707375877,0.20924687468344197,right,-0.002562582492828369,-0.7394226551229849,1.0469745660185814,-7.16967944792211,-0.36548004390650685,-0.03857390582561493,-0.0036866888403892517,6.608323329767584,0.0017096996307373047
1746232614627667500,12.61766748046875,0.14540344447899053,-0.05717260763049126,0.030149912243571195,0.04587153345346451,0.06960107733490763,0.9274453322430768,0.20637747546665738,right,-0.003001689910888672,-0.7410156706133908,1.0483182357124983,-7.158834228780865,-0.36618575438005974,-0.02372438833117485,-0.0014873221516609192,6.61985711569488,-0.0009578466415405273
1746232614667667500,12.65766748046875,0.14511732270941885,-0.04994191974401474,0.030483946124956952,0.029471833258867264,0.06827583319452724,0.9273799618710228,0.20351381212990108,right,-0.005373597145080566,-0.7419703733978084,1.0453553673189133,-7.152876781681179,-0.36657266825240253,-0.014467182569205761,0.0006502121686935425,6.626761488255858,0.0015037059783935547
1746232614707667500,12.69766748046875,0.14455287090675287,-0.036021288484334946,0.03058691687831626,0.01746279001235962,0.06730823201360805,0.9273349871004831,0.2012855233839461,right,-0.005270779132843018,-0.7427015900712048,1.0406194979034364,-7.148668224075436,-0.366856637522598,-0.015469515696167946,0.0026171207427978516,6.632045566138625,0.0037534236907958984
1746232614747667200,12.737667236328125,0.14381446659525263,-0.021916531026363373,0.030466730308229,-0.0023342687636613846,0.06668763604612225,0.9272266085292451,0.1997619429204743,right,-0.00466001033782959,-0.7436667899393964,1.0344226160246879,-7.143095976901054,-0.367253637788699,-0.021858911961317062,0.0004925429821014404,6.639015405151247,0.0030632615089416504
1746232614787667200,12.777667236328124,0.14276923045654105,-0.014499306678771973,0.030089457590816677,-0.017016947269439697,0.066424235874572,0.9271086276755,0.19888130463253187,right,-0.0036647915840148926,-0.7445880086589888,1.026085214985907,-7.138117019444704,-0.3676301898090564,-0.0177733413875103,0.00024816393852233887,6.645661419036984,0.0007402896881103516
1746232614827667500,12.81766748046875,0.14166983233677208,-0.002972036600112915,0.029600471645012578,-0.024114888161420822,0.0664566576523905,0.927030434871702,0.19857997853764844,right,-0.002321183681488037,-0.74517808136747,1.0176831512130797,-7.135357491603493,-0.3678611706415843,-0.0112297423183918,-0.0007032230496406555,6.649915569350123,-0.00066375732421875
1746232614867667500,12.85766748046875,0.1408231524902732,0.009982362389564514,0.02910677850649778,-0.030728742480278015,0.06674990059739407,0.9269259558011408,0.1989412363243732,right,-0.0022092461585998535,-0.7457691698406829,1.0110895251017062,-7.132323238474131,-0.368110722418683,-0.01753317564725876,-0.002436429262161255,6.654174980360269,-0.0010200142860412598
1746232614907667500,12.89766748046875,0.14025880265899826,0.018821503967046738,0.02862850308952471,-0.025834426283836365,0.067275812048685,0.9267911440429988,0.1999196319076886,right,0.0002129077911376953,-0.74638973716197,1.0064867805466056,-7.128803247654438,-0.3683919243134929,-0.01644355058670044,-0.00209604948759079,6.6586436502069235,-0.0019227266311645508
1746232614947667500,12.93766748046875,0.14020636307089673,0.017346346750855446,0.028365171038093728,-0.008445484563708305,0.06779187414774372,0.9266688813264893,0.20106441618013757,right,0.002626657485961914,-0.7468645441484919,1.0056710802495479,-7.1257245708614585,-0.3686252473744509,-0.011214622296392918,-0.00033038854598999023,6.662061349695921,-0.003322303295135498
1746232614987667200,12.977667236328125,0.1408451602801438,0.013145970180630684,0.02844496668257645,0.005882579833269119,0.06813432185008444,0.9265508156081181,0.20210321401475165,right,0.0024915337562561035,-0.7472788355405948,1.009835214191675,-7.12234720338285,-0.36885259749112886,-0.011219078674912453,-0.0017200186848640442,6.665042411333322,0.0004659891128540039
1746232615027667200,13.017667236328125,0.14179859852409554,-0.0032035894691944122,0.02877148942121961,0.02826266922056675,0.06810835858290559,0.9264004896742423,0.20250327591978198,right,0.002963125705718994,-0.7479710325993378,1.015973278555274,-7.116812950131297,-0.3692096186193723,-0.020928367972373962,-0.001131601631641388,6.670020199745893,0.0019893646240234375
1746232615067667500,13.05766748046875,0.14319795592105708,-0.02310066670179367,0.02946030142405362,0.05491112172603607,0.06754474925480346,0.9262190602188063,0.2019564034036497,right,0.0003014802932739258,-0.7489798498539604,1.0249704586770385,-7.108720244568586,-0.36971369933644005,-0.02761750854551792,-0.0035092979669570923,6.6772688556998965,0.0044512152671813965
1746232615107667500,13.09766748046875,0.14466637549712366,-0.029629746451973915,0.030303305543347734,0.06117534264922142,0.06656864191488732,0.9259797741578404,0.2005995102439744,right,-0.002076566219329834,-0.7504536004682067,1.033988097064942,-7.097461768451333,-0.37042120316058114,-0.0355367511510849,-0.005637139081954956,6.687846363815665,0.0016192793846130371
1746232615147667500,13.13766748046875,0.1459179154561567,-0.017115233466029167,0.03096224150402747,0.036550696939229965,0.06577026793726233,0.9256668765490327,0.19958148500436648,right,-0.004095971584320068,-0.7522861541905407,1.0410863116975873,-7.084024779251218,-0.3712904383323427,-0.04450177028775215,-0.005184374749660492,6.700979401633143,-0.0014932751655578613
1746232615187667500,13.17766748046875,0.14704184924192654,0.008915664628148079,0.03135272499755924,0.019191036000847816,0.06552154990342124,0.9253216121155645,0.19969909019489174,right,-0.004660546779632568,-0.7540940402732675,1.0472708455514161,-7.070854332032799,-0.37216096116359454,-0.04692219942808151,-0.005040057003498077,6.713913117486238,-0.004156589508056641
1746232615227667500,13.21766748046875,0.14859775688111831,0.04961676895618439,0.03159360358962373,-0.013959383592009544,0.06605626588571684,0.9249073938128584,0.20168719092053478,right,-0.00917595624923706,-0.7559017369482119,1.056472608334571,-7.0572016542553895,-0.37307465314236316,-0.05527966469526291,-0.005141511559486389,6.726823452463746,-0.005515396595001221
1746232615267667200,13.257667236328125,0.14999405376940042,0.08276563882827759,0.031351333709131526,-0.053064726293087006,0.06761633624835525,0.9244143669860544,0.2058384158320038,right,-0.006567180156707764,-0.757750592725282,1.064465214523673,-7.0434104447901245,-0.3740362555568164,-0.05905468016862869,0.00028505176305770874,6.740005005598068,-0.0058425068855285645
1746232615307667200,13.297667236328126,0.15131640962533008,0.09117010980844498,0.03087377416350774,-0.05994304269552231,0.06973486840049482,0.9239332548396736,0.21113972320114216,right,-0.0006468892097473145,-0.7592986267357739,1.072204138212651,-7.031673829767108,-0.37487494287752743,-0.05050360783934593,0.005999162793159485,6.75102382774055,-0.0016701817512512207
1746232615347667500,13.33766748046875,0.15275863661223035,0.06931186467409134,0.03051396609944996,-0.035131052136421204,0.0716764736186257,0.9234681147910887,0.21610573844899192,right,0.001611948013305664,-0.7607833895084792,1.0808178719747812,-7.020205510291457,-0.3756834255791522,-0.05696151778101921,0.009172007441520691,6.761577370458841,0.005299568176269531
1746232615387667500,13.37766748046875,0.15435236557345774,0.032720185816287994,0.03047429180027294,-0.005658237263560295,0.07283798790996383,0.9229480174674027,0.21951986262950424,right,0.002197265625,-0.762848191243073,1.08985604169406,-7.00466365776658,-0.37673979390050955,-0.0681842640042305,0.008818395435810089,6.776229580667614,0.011042296886444092
1746232615427667500,13.41766748046875,0.1556600712447497,-0.005094438791275024,0.030628644202806022,0.014143494889140129,0.07310691934626735,0.9223870030823518,0.22096623459070008,right,0.001206517219543457,-0.7655484853212081,1.0961743579953909,-6.985130105257034,-0.3780467912708062,-0.07567764073610306,0.003701917827129364,6.795346953591704,0.01222902536392212
1746232615467667500,13.45766748046875,0.15611855892843762,-0.02379738725721836,0.030659515962904078,0.005402235314249992,0.07280031591977612,0.9218293989921512,0.2208636395221693,right,-0.0011119246482849121,-0.7686040277041681,1.0961433052700011,-6.964083225575089,-0.37946089749114964,-0.07320011407136917,-0.0005290433764457703,6.816919902974367,0.012249588966369629
1746232615507667200,13.497667236328125,0.15560020953853684,-0.032837480306625366,0.030404239433901917,-0.003908858634531498,0.07228948646999994,0.9213215488057479,0.21991138070909932,right,-0.0015709400177001953,-0.7716256511539747,1.0893361825384198,-6.944269687080383,-0.38081015536278134,-0.06711846590042114,-0.0025158673524856567,6.838190654540061,0.012293875217437744
