time,seconds_elapsed,roll,rotationRateZ,quaternionY,rotationRateY,quaternionZ,quaternionW,yaw,devicelocation,accelerationZ,pitch,gravityX,gravityZ,quaternionX,rotationRateX,accelerationX,gravityY,accelerationY
1746232667380176100,0.196176025390625,-1.0000128967044228,0.003791491035372019,-0.4096768723009927,0.0044269985519349575,-4.337145815069851e-17,0.850755732689578,-0.3316676532799318,right,0.0916028618812561,-0.594573239144278,-6.835920371520519,-4.3891696089595555,-0.32921040704321125,0.010142570361495018,1.040628433227539,5.493246702903509,0.31286174058914185
1746232667420176100,0.236176025390625,-0.35134220328209825,0.0049347179010510445,-0.16467810145481782,0.004558721091598272,0.10486838834175528,0.8611821736604041,0.04843108040057765,right,0.14910948276519775,-1.0025695602934346,-1.8162382522024214,-4.9549499732971185,-0.46930691043163225,0.012168215587735176,0.5298864841461182,8.265599538895488,0.0289117693901062
1746232667460176000,0.27617578125,0.3030601889767794,0.0009398399852216244,-0.01964919760016625,0.011017031967639923,0.1595480379965983,0.8323810009451061,0.56455183664005,right,0.07857775688171387,-1.0956419725841788,1.3389032101675866,-4.281852559056878,-0.5303773969260778,0.014127125963568687,0.20795147120952606,8.720290349054336,-0.01690196990966797
1746232667500176000,0.31617578125,0.5444919146727313,-0.0011967639438807964,0.029410007294681063,0.012602247297763824,0.17683707710362195,0.8174789609273025,0.7596949558799546,right,0.04007178544998169,-1.0854048819315323,2.369949993083626,-3.9137007991880175,-0.5473498332646498,0.006494651082903147,0.10434511303901672,8.673907368063926,-0.01054084300994873
1746232667540176100,0.356176025390625,0.6710199748934361,-0.0044381809420883656,0.05655815371465777,0.015180543065071106,0.18602491233408633,0.8082183097474712,0.8602762618792418,right,0.018108606338500977,-1.070557719165643,2.9246359858244655,-3.6838115548446773,-0.5558588457196394,0.00024380115792155266,0.04888826608657837,8.60502321693003,-0.004824638366699219
1746232667580176100,0.396176025390625,0.7344748642501673,-0.007438747212290764,0.071025380718752,0.011388367041945457,0.19066403494640155,0.803149715237108,0.9095642325264014,right,0.004901915788650513,-1.0600427560353505,3.2128134607464074,-3.5578985255435107,-0.5599580863058444,0.0011215663980692625,0.01906365156173706,8.555089849981664,0.0000324249267578125
1746232667620176100,0.436176025390625,0.7573361454663836,-0.006544990930706263,0.07642412454735938,0.007996050640940666,0.19231189364673285,0.8012427078305214,0.9270187570059739,right,0.0013176798820495605,-1.0557358227933171,3.318586788338423,-3.5102684671014543,-0.5614138186890885,0.0010894759325310588,0.008995980024337769,8.534363872817158,0.0007782578468322754
1746232667660176100,0.476176025390625,0.7645605131943249,-0.006701665464788675,0.07821454424617345,0.0024778880178928375,0.19279300906323932,0.800655463653158,0.9323548354167307,right,-0.0015584230422973633,-1.0542334851379906,3.352731050002575,-3.495451713980734,-0.5618398807702303,0.0001174452481791377,0.003969252109527588,8.527097096684574,0.002454519271850586
1746232667700176100,0.516176025390625,0.7681272808053136,-0.008530755527317524,0.07908689341971925,-0.0002643084153532982,0.19300291653444027,0.8003547436099042,0.9349641008176625,right,-0.001091092824935913,-1.0535605367161731,3.369163421626389,-3.4875972010880707,-0.5620741008029236,-0.0006194649613462389,0.0012342631816864014,8.523836049062012,0.0031560659408569336
1746232667740176000,0.55617578125,0.768522809814875,-0.010085588321089745,0.07925393894196867,-0.0002001211978495121,0.1929608084928953,0.8003479162523376,0.9350554916582825,right,-0.00022870302200317383,-1.053430560019656,3.371313585397601,-3.4870617790371177,-0.5620748522945954,0.005832502152770758,0.0005786418914794922,8.52320534994304,0.001956343650817871
1746232667780176100,0.596176025390625,0.7689176816218904,-0.01164042204618454,0.07942094926105002,-0.00013593399489764124,0.19291864919171367,0.8003410584782776,0.9351461768521937,right,0.0006338953971862793,-1.053300263710873,3.373462287864089,-3.4865281105518338,-0.5620754860587431,0.012284469790756702,-0.00007686018943786621,8.52257348178029,0.000756680965423584
1746232667820176100,0.636176025390625,0.7689574494357524,-0.003099797759205103,0.07947396489757405,0.009633451700210571,0.19271355607457205,0.8003422435774277,0.9348020916210367,right,-0.001767665147781372,-1.053525366226665,3.37226635607779,-3.485014783379435,-0.562136623349762,-0.007214783690869808,-0.0022877752780914307,8.523665368670224,0.0013731718063354492
1746232667860176100,0.676176025390625,0.768928523573497,-0.0016370347002521157,0.07955335836509535,0.012274793349206448,0.19253321990571606,0.8003703865314191,0.9343898427986155,right,-0.0021388232707977295,-1.0536194382509947,3.371607892169058,-3.484536059951782,-0.5621471078941064,-0.0008914973586797714,-0.00025522708892822266,8.52412129574418,0.0020766854286193848
1746232667900176100,0.716176025390625,0.7690663965723131,-0.00975564494729042,0.07970316408786814,0.0180110651999712,0.19222431679069982,0.8003876672548563,0.9338496829255134,right,-0.0038137733936309814,-1.053835671678722,3.370806512658298,-3.4827468384474516,-0.5622070207441494,-0.007060870993882418,0.0003706812858581543,8.525169343492388,0.0045531392097473145
1746232667940176100,0.756176025390625,0.7695718657783625,-0.01778212934732437,0.07967603318041867,0.013542409986257553,0.19162740151959046,0.8002330767293944,0.93349176946843,right,-0.00546225905418396,-1.0550830633460284,3.3651635383352634,-3.4734015024751423,-0.5626344639040297,-0.02829447016119957,0.0005704760551452637,8.53120862365663,0.004157125949859619
1746232667980176000,0.79617578125,0.7703988766924287,-0.014429869130253792,0.07962863291064459,0.02627161517739296,0.19119231502660183,0.8000178757734934,0.933724390770466,right,-0.002281874418258667,-1.0562652644064658,3.361009633526206,-3.4633781211107966,-0.5630951428314253,-0.02994072251021862,0.002199500799179077,8.536920571562648,0.001257181167602539
1746232668020176000,0.83617578125,0.7721075242843127,-0.015474384650588036,0.0798229573383458,0.02707270160317421,0.1907116472113272,0.7997334883428888,0.9344190250970781,right,-0.0051094889640808105,-1.0573733018566764,3.360322235783934,-3.450852401536703,-0.5636344504173699,-0.038959480822086334,0.000635981559753418,8.542262517112492,0.003081977367401123
1746232668060176100,0.876176025390625,0.774432046787106,-0.01687421277165413,0.0800234599756766,0.0292405616492033,0.19009063924057829,0.7993215377915162,0.9355047365775546,right,-0.004498988389968872,-1.0589672941953554,3.358808616350591,-3.4332942407533524,-0.5643996407488763,-0.028499716892838478,0.0009268522262573242,8.549929690739512,-0.00205916166305542
1746232668100176100,0.916176025390625,0.7751825322331711,-0.012515985406935215,0.0802081409109236,0.026181049644947052,0.1896540425576869,0.7992241656791069,0.9353310876367743,right,-0.0022045373916625977,-1.0595863203779274,3.357679027798772,-3.4269907566949724,-0.5646580811666843,-0.010894717648625374,0.0017550885677337646,8.552900815504788,-0.00027614831924438477
1746232668140176100,0.956176025390625,0.7759334805930047,-0.008157758042216301,0.0803927818563297,0.023121535778045654,0.18921735292887054,0.7991265997979414,0.9351580273463642,right,0.00008994340896606445,-1.0602054955882196,3.3565415482014416,-3.4206875648975372,-0.5649163373890815,0.006710285320878029,0.0025840699672698975,8.555870186704396,0.001507103443145752
1746232668180176100,0.996176025390625,0.7746707894353109,-0.005923272110521793,0.0806126396498996,0.009628726169466972,0.18886234768751967,0.799443381900107,0.9330628565200281,right,-0.0007673203945159912,-1.0597043876154677,3.355218482904136,-3.4279867819949983,-0.5645554974755187,0.019177541136741638,0.0034017562866210938,8.553467217215895,0.0019145011901855469
1746232668220176000,1.03617578125,0.7746606750911507,-0.0007674307562410831,0.08075316834460007,0.0026954468339681625,0.18876390770315002,0.7994999518039844,0.9327057757071723,right,-0.0006965696811676025,-1.0595391742250395,3.3561724226281044,-3.4290310303509233,-0.5644882592336137,0.01806858740746975,0.0035268962383270264,8.55267460553348,0.0015755295753479004
1746232668260176000,1.07617578125,0.7746507059836869,0.00438841013237834,0.08089370985421013,-0.004237832967191935,0.18866541645914214,0.7995564912913683,0.9323487361021542,right,-0.0006258785724639893,-1.0593740035129582,3.3571266546130176,-3.430074401924014,-0.5644210133875844,0.01695963367819786,0.0036520659923553467,8.551881993851065,0.001236557960510254
1746232668300176100,1.116176025390625,0.7739339719750035,-0.0027271979488432407,0.0809185474765863,-0.0034444802440702915,0.18876995810595884,0.799715417187741,0.9317602024802998,right,0.001921236515045166,-1.0588246805266137,3.357948784650862,-3.435837203234434,-0.5641571122147072,0.005027526058256626,0.0023849904537200928,8.549244631084798,0.0040836334228515625
1746232668340176100,1.156176025390625,0.7740518360237082,-0.0009618720505386591,0.08086936664959021,-0.001405299175530672,0.18879373980535102,0.7996724188325435,0.931982427093558,right,0.0016524791717529297,-1.0589516736215765,3.357594564385712,-3.4346646523237228,-0.564217137333531,-0.00045862235128879547,0.0013368725776672363,8.549854287415743,0.0021491646766662598
1746232668380176100,1.196176025390625,0.7741697096679943,0.0008034540805965662,0.08082017300768457,0.0006338818930089474,0.18881747024510503,0.7996293900608522,0.9322045949793075,right,0.001383751630783081,-1.059078665438523,3.3572397595986723,-3.4334921014130115,-0.5642771700564774,-0.0059447698295116425,0.00028884410858154297,8.550464528268575,0.00021469593048095703
1746232668419944000,1.23594384765625,0.7753432984966887,-0.00021529779769480228,0.08091338856219424,0.010700834915041924,0.18879810311173514,0.7994396372669418,0.9332058110153851,right,-0.000680814846418798,-1.0594313805289968,3.35915611461401,-3.42739612262547,-0.5645391506896502,-0.02029467560350895,-0.00032318857847712934,8.552157303661108,0.000621059094555676
1746232668459944000,1.27594384765625,0.7758792412818608,0.0024787720758467913,0.08089723248143851,-0.004819093272089958,0.1888371013074301,0.7993308152285203,0.933818151778369,right,-0.003211468458175659,-1.059648444455815,3.3596932902306316,-3.4242709763422607,-0.5646825715477206,-0.01465529203414917,0.0001137852668762207,8.553198921668528,0.001132667064666748
1746232668499944000,1.31594384765625,0.7764152870929724,0.0051728421822190285,0.08088100275278613,-0.02033902145922184,0.18887615076276487,0.7992220236065921,0.9344307843300432,right,-0.005742073059082031,-1.0598652698449362,3.360229589064419,-3.4211472913637757,-0.5648258974906388,-0.009015906602144241,0.0005507767200469971,8.55423878611028,0.0016443729400634766
1746232668539944000,1.35594384765625,0.7760949292713284,0.02021859772503376,0.08057671361855842,-0.027947334572672844,0.18950871528477806,0.7991973976886927,0.9354938167394768,right,-0.003380686044692993,-1.0593979631517854,3.3619314245462415,-3.42507410941869,-0.5646921441644556,0.0023416979238390923,0.000041157007217407227,8.551997144663334,0.004401028156280518
1746232668579944000,1.39594384765625,0.7757340861940584,0.028265805914998055,0.08037853104360124,-0.02710850164294243,0.19018684513407105,0.7992303049812286,0.9364348380375015,right,-0.0014303028583526611,-1.0586008378052953,3.3654686587616798,-3.431153429332375,-0.5644458738588652,0.005512556526809931,0.0002015233039855957,8.548168526285886,0.0033546090126037598
1746232668619944000,1.43594384765625,0.7753722227488918,0.0363130122423172,0.08018032453527736,-0.026269666850566864,0.19086488034099397,0.7992626709573379,0.9373750762490377,right,0.0005204081535339355,-1.057803592781319,3.3689956638440486,-3.4372365486383436,-0.5641992712138452,0.00868341512978077,0.0003628730773925781,8.544334062689542,0.002308666706085205
1746232668659944000,1.47594384765625,0.7759819431987627,0.03365318104624748,0.08027754546614424,-0.02059531770646572,0.19181889579532346,0.7992532302232926,0.9392730705974923,right,0.000994861125946045,-1.0563406651723173,3.3798429288119074,-3.444100296927988,-0.5638752307418153,0.013776308856904507,0.0011754333972930908,8.537284144178033,0.003461599349975586
1746232668699944000,1.51594384765625,0.7765612532728259,0.021374013274908066,0.0802486623849093,-0.009031758643686771,0.1922515925499056,0.7991568589286256,0.9405374176988022,right,0.0008699893951416016,-1.055979293771026,3.3839982949256897,-3.4443408276855942,-0.5638684580880636,-0.00003178883343935013,0.0020810067653656006,8.535539930859208,0.0036844611167907715
1746232668739944000,1.55594384765625,0.7771396225277397,0.0090948436409235,0.08021981296172934,0.0025317994877696037,0.19268431972098207,0.7990604363743213,0.9418009511141764,right,0.0007453262805938721,-1.0556178166761168,3.3881539533004164,-3.4445834042698142,-0.563861596154057,-0.013839886523783207,0.0029864907264709473,8.533793963974714,0.003907620906829834
1746232668779944000,1.59594384765625,0.7786431646161835,0.003991181030869484,0.08027083427657042,-0.0017492943443357944,0.19276170852130178,0.7987937080966674,0.9433336101643659,right,-0.0011584758758544922,-1.0560579839598936,3.390690486040711,-3.436810432180762,-0.5642056547013222,-0.011769196949899197,0.0007695257663726807,8.535919870087504,0.0033524036407470703
1746232668819944000,1.63594384765625,0.7791666140711413,0.006395431235432625,0.08028171771091087,0.0018439991399645805,0.19282361868434422,0.7987003529055534,0.9439295047833182,right,0.0004006922245025635,-1.0561708071024682,3.391813352590799,-3.434351056329906,-0.5643152186171408,-0.004179069306701422,0.0008669197559356689,8.536464644488692,0.0008116960525512695
1746232668859944000,1.67594384765625,0.7796899218191962,0.008799681439995766,0.08029258354366729,0.0054372926242649555,0.19288542632811118,0.7986069368814525,0.9445251120818899,right,0.0019599199295043945,-1.0562832808027982,3.392934757836163,-3.431892849522829,-0.5644247236691964,0.003411058336496353,0.000964432954788208,8.53700708080232,-0.0017289519309997559
1746232668899944200,1.715944091796875,0.7803842456671183,0.01711125299334526,0.08042237209609686,-0.004179142881184816,0.1930543337856196,0.7985389523365326,0.9452822370567794,right,-0.0027703046798706055,-1.0560354003720676,3.396806046311557,-3.431040324346721,-0.5644447411044494,-0.00628785602748394,-0.0013110339641571045,8.535810564494133,0.0025339722633361816
1746232668939944000,1.75594384765625,0.7830504107275522,0.0044093625620007515,0.08063405863065945,0.017742298543453217,0.19326517753410072,0.798124290694715,0.9479388283639648,right,-0.0003019571304321289,-1.0564185240823867,3.403634138765931,-3.4196532534137365,-0.5649286267152419,-0.03476359322667122,0.0007348954677581787,8.5376599917531,0.0037940144538879395
1746232668979944000,1.79594384765625,0.7853881011396427,0.015554134733974934,0.08083189689562874,0.03176471218466759,0.19313106651538475,0.7977462013267645,0.9497719436538393,right,-0.0013120174407958984,-1.0572274808018762,3.4067341506078836,-3.406802539668977,-0.565479988136653,-0.05262511223554611,0.006052613258361816,8.54155992180109,0.007674276828765869
1746232669019944000,1.83594384765625,0.7929693979714494,0.0028452384285628796,0.08143853273572256,0.05292658880352974,0.19307190069276972,0.7965337549597853,0.9563319636205874,right,-0.008294522762298584,-1.0593000810254591,3.4198426385059952,-3.3684456287458535,-0.567119771656471,-0.10860513895750046,0.005219548940658569,8.551527189064025,0.018104970455169678
1746232669059944000,1.87594384765625,0.796646121873641,-0.0024211741983890533,0.08152758433962108,0.021022681146860123,0.1928712304914257,0.7958515519056666,0.9595473350433144,right,-0.007830798625946045,-1.0610106815987381,3.4217405810818073,-3.3456182953879234,-0.5681321972598611,-0.07986859232187271,0.006241530179977417,8.55972627761066,0.020520925521850586
1746232669099944000,1.91594384765625,0.8003453305309195,-0.007687586359679699,0.08161651767045168,-0.010881230235099792,0.19267027805941742,0.795168072449939,0.9627853939333356,right,-0.007369130849838257,-1.0627152596854383,3.4236180653914805,-3.322770796024799,-0.569143722729343,-0.05113203823566437,0.007265597581863403,8.567871005621551,0.02294224500656128
1746232669139944200,1.955944091796875,0.8006036456324422,-0.003497577039524913,0.08096001630911188,-0.02907581813633442,0.1927957891411757,0.7948502638775331,0.9641613569140175,right,0.009196609258651733,-1.0640691433648815,3.4161475833803414,-3.3138074451074004,-0.5696387652327595,0.011438712477684021,0.008681118488311768,8.574322373718022,0.006552994251251221
1746232669179944000,1.99594384765625,0.7953628738264025,-0.017350558191537857,0.08024940062087177,-0.04438984394073486,0.1931860978504412,0.7955755479796918,0.9605619351147602,right,0.00705680251121521,-1.0627820684870333,3.4066116932719943,-3.3393869997829198,-0.5685935921802453,0.04005378484725952,0.0029205679893493652,8.56818957005143,0.0014370083808898926
1746232669219944000,2.03594384765625,0.7903324528067048,-0.029856614768505096,0.07958698205875445,-0.04492517560720444,0.1933066598896019,0.7962668411707603,0.9566988876849079,right,0.0064289867877960205,-1.0618859630264326,3.3952252068609,-3.3618829092293976,-0.5676773574195227,0.052847862243652344,-0.0010107159614562988,8.563911454340815,-0.00203096866607666
1746232669259944000,2.07594384765625,0.7836814281783439,-0.03412817791104317,0.07869727804679887,-0.04123314842581749,0.19327525569064527,0.7971649461499752,0.9513256459190945,right,0.006585150957107544,-1.0610081710616417,3.378095208361745,-3.3897134577021,-0.5665504881067255,0.05877062305808067,-0.00320318341255188,8.559714002650976,-0.0052027106285095215
1746232669299944000,2.11594384765625,0.7790087106556248,-0.03618524596095085,0.07814825403522783,-0.028443098068237305,0.19308217971547573,0.7978186600016983,0.9471866449029755,right,0.004750430583953857,-1.060476136406534,3.365417805357277,-3.408701066766679,-0.565771564998672,0.05168779566884041,-0.005195409059524536,8.557166656255722,-0.0067157745361328125
1746232669339944000,2.15594384765625,0.7743449431802354,-0.038242314010858536,0.07759910850902581,-0.01565304771065712,0.19288878151979785,0.7984712816472195,0.9430566035243603,right,0.0029138922691345215,-1.059934766763209,3.3527222821742293,-3.427670263391733,-0.5649918822966046,0.04460496827960014,-0.007185786962509155,8.554571963587403,-0.008224010467529297
1746232669379944000,2.19594384765625,0.7727622173287358,-0.027757836505770683,0.07731788971342587,0.01319622341543436,0.19248192046249618,0.7986271326754615,0.9412770057964434,right,0.002932310104370117,-1.0605055870778863,3.3438840189412233,-3.4294761437699197,-0.5649489562294696,-0.018190912902355194,-0.0011984705924987793,8.557307526031137,-0.004646003246307373
1746232669419944000,2.23594384765625,0.7757685384917532,-0.024434808641672134,0.07770592956625053,0.03504357859492302,0.1918335409417325,0.7981677516773931,0.9427304011379458,right,-0.005707114934921265,-1.0620121551242396,3.345147755266726,-3.4102009499356147,-0.5657649081333637,-0.058885544538497925,-0.0017639100551605225,8.564514096409082,0.005278468132019043
1746232669459944000,2.27594384765625,0.7787871424605605,-0.021111778914928436,0.07809382551618654,0.056890930980443954,0.1911848696169557,0.7977072272134849,0.9441967041415609,right,-0.014347761869430542,-1.0635164225501483,3.346372913147509,-3.3909137734025716,-0.566579975111597,-0.09958017617464066,-0.0023254454135894775,8.571690271648764,0.015206098556518555
1746232669499944000,2.31594384765625,0.7866107255840785,0.024050990119576454,0.07893794438794646,0.04203969985246658,0.1908044889047132,0.7965405190331925,0.9501796027279601,right,-0.007347762584686279,-1.0656699890115318,3.3597222240641713,-3.3515839257940647,-0.5682302098387569,-0.04958150163292885,0.003402411937713623,8.581930510634184,0.007148444652557373
1746232669539944000,2.35594384765625,0.7888384647188607,0.015117160975933075,0.07936406968324755,0.023230263963341713,0.1908539865111826,0.7963000038214088,0.951856633207267,right,-0.0072820186614990234,-1.0656118354318724,3.3675337745979426,-3.344442237345874,-0.5684912062433382,-0.025776473805308342,0.0028154850006103516,8.58165461630225,0.009314119815826416
1746232669579944000,2.39594384765625,0.7910654874357333,0.00618333276361227,0.07979008612748474,0.004420828074216843,0.1909034632745107,0.7960594069334939,0.9535331502384128,right,-0.007216721773147583,-1.0655521962189132,3.375338895390928,-3.337295580461621,-0.5687519900052423,-0.001971447840332985,0.0022291839122772217,8.581371123185754,0.011480569839477539
1746232669619944000,2.43594384765625,0.7908734265289804,-0.012785948812961578,0.07980960018201042,0.0015909721842035651,0.19069561400512522,0.7960906997424054,0.9530036414179864,right,-0.004211395978927612,-1.0657548301833673,3.373460242037475,-3.336719534139335,-0.5687750648366701,0.000408229767344892,0.0004101097583770752,8.582333246216177,0.005956768989562988
1746232669659944000,2.47594384765625,0.7901489532162889,-0.022944608703255653,0.07956431148456178,0.011468864977359772,0.19028457671639948,0.7960967234279791,0.95201785310733,right,-0.002215862274169922,-1.0666364906499464,3.3656647658556698,-3.333836379918456,-0.5689386346077794,-0.009301037527620792,-0.0008905231952667236,8.586513162249327,0.0015236139297485352
1746232669699944000,2.51594384765625,0.7894217500361158,-0.03310326859354973,0.07931901321376665,0.02134675905108452,0.1898735794175179,0.7961025629181456,0.9510295212848849,right,-0.00022035837173461914,-1.067517855116712,3.3578660748034714,-3.330952641175687,-0.569102071443118,-0.019010303542017937,-0.0021907687187194824,8.59068489497602,-0.002908647060394287
1746232669739944000,2.55594384765625,0.7900344105320694,-0.013112977147102356,0.07917284344092466,0.012043370865285397,0.18925448739875528,0.7958799903395192,0.9509168819224881,right,-0.0018456578254699707,-1.069087395490305,3.3503234043389556,-3.3194004428088664,-0.5696396556771223,-0.026888489723205566,-0.0002955198287963867,8.598097801581025,-0.001207590103149414
1746232669779944000,2.59594384765625,0.7918203252649728,0.0013095475733280182,0.07926924486505453,0.01843477599322796,0.1891771846536073,0.7955758779861271,0.9524344835511342,right,0.0013954341411590576,-1.0697629386931986,3.352113210365176,-3.3093314687371254,-0.5700766897260657,-0.021611295640468597,0.0022425055503845215,8.601282276836038,-0.0005331039428710938
1746232669819944000,2.63594384765625,0.7936101363953844,0.015732072293758392,0.07936560151267061,0.024826182052493095,0.18909979853588413,0.7952714389282094,0.9539559863224738,right,0.00463634729385376,-1.070436724994249,3.353897755694389,-3.2992607410997152,-0.570513473111713,-0.016334103420376778,0.004781067371368408,8.604453892609477,0.00014263391494750977
1746232669859944000,2.67594384765625,0.7956119986499516,0.0049109249375760555,0.07993618226586569,0.006282549351453781,0.18910947827743124,0.7951351701965954,0.9551451298959841,right,-0.0024143457412719727,-1.0700146995715207,3.3630893624097107,-3.2950814095884557,-0.5706205531215311,0.0024204200599342585,0.002146899700164795,8.602467687228321,0.007957994937896729
1746232669899944200,2.715944091796875,0.7963262356325819,0.003463039407506585,0.08005171362823836,0.008450308814644814,0.1891168686541187,0.7950492469142296,0.9557002561200028,right,-0.0006879866123199463,-1.070051859052945,3.3652140994787216,-3.292455444999039,-0.570721665499778,-0.0024585851933807135,0.0018752515316009521,8.602642459273337,0.004986763000488281
1746232669939944000,2.75594384765625,0.7970405637943612,0.0020151538774371147,0.08016724499061106,0.01061806920915842,0.18912420777116798,0.7949632932153704,0.956255402733668,right,0.0010383427143096924,-1.0700888863350473,3.3673376675039526,-3.2898283113658424,-0.570822777878024,-0.007337590679526329,0.0016037523746490479,8.602816646796464,0.0020156502723693848
1746232669979944000,2.79594384765625,0.7964120602275758,0.00134739198256284,0.0801097156616492,-0.013637739233672619,0.18919406167877018,0.7950628234706125,0.9558185530810109,right,-0.000095367431640625,-1.0698385776740076,3.3668086751937865,-3.293450008994341,-0.5706690894483646,0.012266122736036777,0.0003847777843475342,8.601638250666856,0.0007277727127075195
1746232670019944000,2.83594384765625,0.7958119190138957,0.005520391743630171,0.07995748713998123,-0.010773932561278343,0.1894208087697511,0.795127230970918,0.9557790948910715,right,0.00017058849334716797,-1.0695604772463283,3.3665400873854754,-3.2971433105543255,-0.5705254344540314,0.0031026117503643036,0.0019410550594329834,8.60032833711207,0.0045722126960754395
1746232670059944000,2.87594384765625,0.7952126779295723,0.009693391621112823,0.07980530184971797,-0.007910125888884068,0.18964756543408018,0.7951915055354536,0.9557405483105306,right,0.0004361569881439209,-1.0692825198048543,3.36627062279433,-3.3008336895048616,-0.570381823115212,-0.006060898303985596,0.0034974217414855957,8.599017839035392,0.008416712284088135
1746232670099944000,2.91594384765625,0.7947117615513649,-0.016138482838869095,0.07964428642275431,-0.007705021183937788,0.18962916673006094,0.7952169055923356,0.9554449762213398,right,0.000711292028427124,-1.0694533704582887,3.363567793576419,-3.3014901075869796,-0.5703749983833893,0.007386856246739626,0.005076110363006592,8.59982331019938,0.009563267230987549
1746232670139944200,2.955944091796875,0.7944870482399022,-0.015710193663835526,0.07959105039462264,0.007155129220336676,0.18935810208513115,0.7952186580432745,0.9548919667410888,right,0.00015804171562194824,-1.0699039047904175,3.3600606622382996,-3.2995304979518054,-0.570470004633731,-0.00022775214165449142,0.004808664321899414,8.601945709180832,0.008817672729492188
1746232670179944000,2.99594384765625,0.794261743920415,-0.015281904488801956,0.07953782718140127,0.022015279158949852,0.18908696533741862,0.7952202984015884,0.9543382856582235,right,-0.00039526820182800293,-1.0703544132948855,3.356551777334511,-3.2975705960556865,-0.5705650032799476,-0.007842360064387321,0.00454142689704895,8.604066354596615,0.008072197437286377
1746232670219944000,3.03594384765625,0.7925374601067035,-0.03112533502280712,0.07951782993098032,0.006906979717314243,0.18872848814027549,0.7955147823111459,0.9521208927620117,right,-0.002914607524871826,-1.0702310635550512,3.3516178280636666,-3.3040997055634853,-0.5702760023377873,0.01982356235384941,-0.0008155405521392822,8.603485924360156,0.0027521848678588867
1746232670259944000,3.07594384765625,0.7890151934756047,-0.03698963671922684,0.07880007795754745,-0.014566251076757908,0.1881590021214792,0.7958361891045527,0.9487956318196558,right,-0.0018993616104125977,-1.0712144887466022,3.3339529920354485,-3.309921543584764,-0.5701153473360226,0.01973068341612816,-0.00012916326522827148,8.608110661551356,0.0018587112426757812
1746232670299944000,3.11594384765625,0.7854798257072634,-0.042853936553001404,0.07808223164441504,-0.036039482802152634,0.18758944060701405,0.7961567887099942,0.9454573996819422,right,-0.0008850395679473877,-1.072192122065975,3.316277342352271,-3.3157354905605314,-0.5699541245397803,0.019637804478406906,0.000558316707611084,8.612699158385395,0.0009688735008239746
1746232670339944000,3.15594384765625,0.7824864260170854,-0.004330920055508614,0.0773394272442019,0.005987680517137051,0.1874510512634771,0.7963932809211448,0.9433369889549124,right,0.0081082284450531,-1.0727720707592863,3.3028149264499542,-3.3221047333315012,-0.569770492897305,0.0019750413484871387,0.005446761846542358,8.615417185172438,0.0004120469093322754
1746232670379944000,3.19594384765625,0.7818001862521073,-0.0038943481631577015,0.07709863338672367,-0.04832896962761879,0.18776084225740686,0.7964427163839033,0.9434620495225247,right,0.0010839998722076416,-1.0725174062735519,3.302080474695563,-3.3259277987509965,-0.5696320533836936,0.008582985028624535,-0.0021477937698364258,8.614224175995588,-0.0036240816116333008
1746232670419944000,3.23594384765625,0.7796675505448414,-0.009270923212170601,0.07586942667515094,-0.08984630554914474,0.18866914491242887,0.7963811302611532,0.944451305556381,right,-0.0018258988857269287,-1.0728848360811893,3.292754135684669,-3.3307106491133567,-0.5695830407958896,-0.031317949295043945,-0.0026990175247192383,8.615945592960715,0.0015741586685180664
1746232670459944000,3.27594384765625,0.7773696207705404,-0.027090750634670258,0.07417932517015885,-0.07493096590042114,0.18934990386524897,0.796129631929856,0.9455888726711543,right,0.0017340779304504395,-1.0745727310763096,3.2748879318654533,-3.327899683345854,-0.5699313681666104,-0.04683123156428337,0.00022771954536437988,8.623838976559043,0.006746888160705566
1746232670499944000,3.31594384765625,0.7742692399953842,-0.05925703048706055,0.07251043189585006,-0.08008277416229248,0.18940146553907974,0.7959873729519968,0.9449577058780987,right,-0.007593065500259399,-1.0768730306098664,3.2506741125851866,-3.323843978214264,-0.5703274091065776,-0.023721136152744293,-0.0008619725704193115,8.634556185406446,0.009238064289093018
1746232670539944000,3.35594384765625,0.769031769975606,-0.04778386279940605,0.07118673164733377,-0.014717794954776764,0.18914681334704334,0.7963735443841036,0.9412612969400456,right,0.002683669328689575,-1.077970126507104,3.2266309736967087,-3.3340143668338653,-0.5700394914397677,0.007091972976922989,0.0035868585109710693,8.639651462718843,0.008726179599761963
1746232670579944000,3.39594384765625,0.7668896802818891,-0.049405235797166824,0.07080584592460124,0.010569514706730843,0.18802627720507864,0.7965169118646733,0.9379995491980471,right,-0.00344124436378479,-1.079691765153737,3.2091561072826384,-3.330203284113109,-0.5702573233912683,-0.015461686998605728,-0.0021828413009643555,8.647626679381728,0.006639599800109863
1746232670619944000,3.43594384765625,0.766275508153825,-0.01853068731725216,0.07054711960135343,0.002102234400808811,0.18741571715003513,0.7964653258354675,0.9368428133376008,right,0.001610487699508667,-1.080987864402476,3.199335262753069,-3.324095614887774,-0.5705623543962045,-0.0036442140117287636,0.002921849489212036,8.653613352575897,0.0010082125663757324
1746232670659944000,3.47594384765625,0.7666064938067461,-0.0021979324519634247,0.07075715057121877,0.022974781692028046,0.18703538220739704,0.7964639929878722,0.9363040292938797,right,0.004105240106582642,-1.0812722403170443,3.1987270677268502,-3.321262729549408,-0.5706629083734008,0.0017319810576736927,0.003628373146057129,8.654925019696355,0.004603862762451172
1746232670699944000,3.51594384765625,0.7664830694101261,0.006839398294687271,0.070835602330532,-0.004627926275134087,0.18688689233162212,0.7965097160700526,0.9358484260898046,right,0.003640085458755493,-1.081281332977459,3.198262957346439,-3.321601167723536,-0.570638050059032,0.0156854297965765,0.002293109893798828,8.654967105272412,-0.0005109906196594238
1746232670739944000,3.55594384765625,0.7654184385250863,-0.00016612792387604713,0.07083042218521396,0.0015538288280367851,0.18687815051427045,0.7967082949690474,0.9347878878760478,right,0.00709223747253418,-1.0808423595066732,3.197356363895535,-3.327743323740363,-0.5703642375737322,0.02041136659681797,0.0032675564289093018,8.652942321446538,-0.0046520233154296875
1746232670779944000,3.59594384765625,0.7660736921687695,-0.003964544739574194,0.070938151910713,0.016907626762986183,0.18677869506585876,0.7966238438890078,0.9351357157593385,right,0.002917081117630005,-1.0810464110779843,3.1983120571851726,-3.324375016351044,-0.5705013759106236,-0.0392007902264595,-0.0016261935234069824,8.653883401688933,-0.003451824188232422
1746232670819944000,3.63594384765625,0.7701875808956886,-0.0028968912083655596,0.07107864301436491,0.030565032735466957,0.18652616938323,0.7958875832227927,0.9386351570835644,right,0.000804901123046875,-1.082922932706061,3.2006492679610847,-3.2995281598642467,-0.5715931318004271,-0.07142729312181473,-0.003185659646987915,8.66252497330606,-0.007817566394805908
1746232670859944000,3.67594384765625,0.7755445934076596,0.01932540163397789,0.07142132607120094,0.03943825140595436,0.18634722665109502,0.7950179721226072,0.9431913298068222,right,0.0007135272026062012,-1.0847405732298008,3.2072496891394255,-3.271086201494932,-0.5728176085558729,-0.05808212608098984,0.0017153024673461914,8.670866100671887,-0.010845780372619629
1746232670899944200,3.715944091796875,0.7818837417961535,0.042948395013809204,0.07226387704765935,0.037308964878320694,0.1864434679791881,0.7942114996552915,0.9484257067094671,right,-0.006881594657897949,-1.0853964856748237,3.223912654648721,-3.246652601984143,-0.5737984939851939,-0.05456855520606041,0.0006661713123321533,8.673868789619206,0.0006266236305236816
1746232670939944000,3.75594384765625,0.7884748473905847,0.06279291212558746,0.07316343219493057,0.025839345529675484,0.18696006312436417,0.7934165913779144,0.9544581208130681,right,-0.0017297863960266113,-1.0853391430119832,3.2455943251028656,-3.2256837559744715,-0.574615532035999,-0.03682833909988403,0.0027710795402526855,8.673606339290737,0.0072710514068603516
1746232670979944000,3.79594384765625,0.794453201407933,0.04159071296453476,0.07379282609144673,0.004505455493927002,0.18768982859628974,0.7926333999205137,0.9605847895454568,right,0.003348022699356079,-1.0852643296339928,3.2652851140007373,-3.2066794880360363,-0.5753776766527736,-0.0515621192753315,0.007015883922576904,8.67326439398527,0.01501309871673584
1746232671019944000,3.83594384765625,0.797943248103135,-0.005897186696529388,0.07382688289673392,-0.01572125405073166,0.1880517415979395,0.7920292064393628,0.9645381486128001,right,0.00386124849319458,-1.0860401420306611,3.2716394514635203,-3.190565973103046,-0.5760867982550599,-0.046899110078811646,0.0075314342975616455,8.676811857333778,0.017841875553131104
1746232671059944000,3.87594384765625,0.7983041352061722,-0.034196555614471436,0.07373912764542634,0.006096892058849335,0.18795670745298804,0.7919186159678221,0.9648783247823959,right,-0.002371281385421753,-1.0865279709407363,3.269758460022509,-3.1864301884725688,-0.5762810216806797,-0.018808655440807343,0.0027233362197875977,8.679040639299155,0.016215085983276367
1746232671099944000,3.91594384765625,0.7979797008924914,-0.03512946888804436,0.07359186482922984,0.025016991421580315,0.18716598064912407,0.7918586786907155,0.9635837923750373,right,0.001657724380493164,-1.087969561087264,3.2597628434479233,-3.178751908929646,-0.5766393997073285,-0.029018249362707138,-0.0023799240589141846,8.68561300342679,0.0026386380195617676
1746232671139944200,3.955944091796875,0.800269710802459,0.014049604535102844,0.07380997775121069,0.030808456242084503,0.18672318282468417,0.7914982063225748,0.9648845663761068,right,-0.002362191677093506,-1.0891209626094038,3.259855197906494,-3.1643107111230493,-0.5772496328235031,-0.034733209758996964,-0.004377275705337524,8.690849735036492,-0.0021501779556274414
1746232671179944000,3.99594384765625,0.8053538365536568,0.030439049005508423,0.0745686447777271,0.02055293321609497,0.18690466065424743,0.7908997798165947,0.9691232263848822,right,-0.00804370641708374,-1.0892257277576982,3.275245074740052,-3.1470664385944604,-0.5779133064401452,-0.03953172266483307,-0.0057492852210998535,8.691325535854697,0.002102196216583252
1746232671219944000,4.03594384765625,0.8090344946020227,0.024231087416410446,0.07499525752004474,0.014886352233588696,0.18729229590484664,0.7904323467206072,0.9727483460080667,right,0.0017710328102111816,-1.0891544019260435,3.2872534924417733,-3.135416332811117,-0.5783718192295316,-0.027683090418577194,0.0015231668949127197,8.69100171072781,0.006633579730987549
1746232671259944000,4.07594384765625,0.8113404327448297,0.01160747092217207,0.07539631792203355,0.0071404497139155865,0.18754502843470483,0.7901952963744564,0.9748446108073366,right,-0.0011522471904754639,-1.0888034936313669,3.296685629914701,-3.1299267954841254,-0.5785616078754967,-0.012582249939441681,0.003182142972946167,8.689407135012745,0.011703193187713623
1746232671299944000,4.11594384765625,0.8118283708067324,0.006395120173692703,0.07549333597942393,-0.018618397414684296,0.18771117016657904,0.7901575524750544,0.9754391566577456,right,-0.006004929542541504,-1.0885257815633602,3.2999636286720633,-3.1299788179323076,-0.5785466637566031,0.011072861030697823,0.004715591669082642,8.688143983209132,0.014752030372619629
1746232671339944000,4.15594384765625,0.8105167266806235,-0.019777094945311546,0.07534045841920259,-0.025195354595780373,0.18770650779936487,0.7903332545443789,0.9743477606163999,right,-0.008157581090927124,-1.0883446179860474,3.296996303299069,-3.1353897370651365,-0.5783281251735118,0.018485339358448982,0.004485785961151123,8.687320391866564,0.01791936159133911
1746232671379944000,4.19594384765625,0.8063868730080463,-0.034422099590301514,0.07478064532930342,-0.025855598971247673,0.1876233956744252,0.7908494230393107,0.9709206131527061,right,0.0007115304470062256,-1.088044489978752,3.2859020778328176,-3.150784290073812,-0.5777218744881997,0.03177293390035629,0.005577206611633301,8.685954364210367,0.012375235557556152
1746232671419944000,4.23594384765625,0.8024156974159982,-0.032891202718019485,0.07438725196269146,-0.0015623010694980621,0.18722831224727005,0.7913846556808021,0.9669492566801655,right,0.002648591995239258,-1.0879315603131903,3.2740690166980024,-3.164489867082238,-0.577167618851007,0.02002030983567238,0.001563727855682373,8.685439984947443,0.0028482675552368164
1746232671459944000,4.27594384765625,0.8001703538947369,-0.017338309437036514,0.07414991027951942,-0.01443442516028881,0.18687134957587268,0.7916710975189994,0.9645255098109689,right,-0.0014311373233795166,-1.0881077443819294,3.265856484147906,-3.170766170872748,-0.5769208813918008,0.01886880397796631,-0.0024859607219696045,8.686241948980092,-0.005148768424987793
1746232671499944000,4.31594384765625,0.7992598658440901,0.002556702122092247,0.07411486273818917,-0.004725905135273933,0.18693116906039364,0.7918279519314761,0.9637614882288368,right,-0.0009864866733551025,-1.0877213829350043,3.265373084545135,-3.176077429023385,-0.5766906436128599,0.008093227632343769,-0.003653883934020996,8.684483122614026,-0.001828014850616455
1746232671539944000,4.35594384765625,0.8000334816342457,-0.0019245040602982044,0.07410541157320323,0.00006602797657251358,0.18717164202811598,0.7916991637681834,0.9649013466359938,right,0.0018347501754760742,-1.087673849646971,3.268126474906504,-3.173839294707775,-0.5767907881516778,-0.014219260774552822,-0.0016757547855377197,8.684266264992951,0.0015535354614257812
1746232671579944000,4.39594384765625,0.8006537761749482,-0.00001759687438607216,0.07402657380394943,0.001296935835853219,0.18722612149406997,0.7915557252333469,0.9657096539681269,right,0.004149377346038818,-1.0880089660763488,3.268005478875339,-3.1697853431418537,-0.5769800666565974,-0.004090394824743271,0.0004928410053253174,8.685792451646924,-0.0009446144104003906
1746232671619944000,4.43594384765625,0.8010777404302194,-0.0032978460658341646,0.07412237242085418,-0.0034456385765224695,0.1872927953959208,0.7915231384161512,0.9660939678066777,right,-0.0007340312004089355,-1.0878662531279033,3.270239521537721,-3.169262488311529,-0.5769908663914277,-0.002062775893136859,0.0005980134010314941,8.685142463305592,0.007246911525726318
1746232671659944000,4.47594384765625,0.8009677673370555,-0.018365878611803055,0.07405290436260338,0.019232267513871193,0.18703751460908605,0.791495721344972,0.9657020784713087,right,0.002662479877471924,-1.0883768652114705,3.2667069634974,-3.166535693696141,-0.5771202474494167,-0.011836333200335503,0.0051190853118896484,8.687467106860876,0.00936359167098999
1746232671699944000,4.51594384765625,0.8027369498087109,-0.019697319716215134,0.07412170663914745,0.019505692645907402,0.18643666523482083,0.7911571395898968,0.9664622313129562,right,0.0005315244197845459,-1.0898881469346002,3.2628564255490895,-3.1516257093340156,-0.5777696619067282,-0.02796914055943489,0.0019297003746032715,8.694332316455245,0.00295865535736084
1746232671739944000,4.55594384765625,0.8039064431244203,-0.003976719453930855,0.07409090512758723,0.003563949838280678,0.18615652526927015,0.7909100964974761,0.96724785605251,right,-0.0008119940757751465,-1.0908648568088106,3.260423353183269,-3.141913293614983,-0.5782019861582913,-0.012435898184776306,-0.0008256137371063232,8.69875890072584,-0.0008208751678466797
1746232671779944000,4.59594384765625,0.804496713040325,0.011527310125529766,0.07411492465719866,-0.0038751596584916115,0.18627369672298566,0.7908209080152894,0.9679742507213546,right,-0.0009635090827941895,-1.0908625958323293,3.2622917774036524,-3.140002199296653,-0.5782831708287833,-0.0006023282185196877,-0.0018732547760009766,8.698748963853717,0.00010138750076293945
1746232671819944000,4.63594384765625,0.804524213277553,0.01842121034860611,0.07405947265343396,-0.01811428740620613,0.18672078396285327,0.790824562592819,0.968747480667687,right,0.00008103251457214355,-1.0902866183544102,3.2659874170511958,-3.1433862887769934,-0.5781410717780742,0.00512535497546196,-0.001035064458847046,8.696139658138156,0.001304328441619873
1746232671859944000,4.67594384765625,0.8053034547405312,0.0197589173913002,0.07409844064723696,-0.005421625450253487,0.1871695293483235,0.7907302289650201,0.9701351735879182,right,-0.0013593435287475586,-1.089803273899094,3.2714658484622836,-3.1437519072189923,-0.5781199588574217,-0.008197734132409096,-0.0009680688381195068,8.693947701051831,0.0035096406936645508
1746232671899944200,4.715944091796875,0.8063689270755238,0.012361987493932247,0.0741602130859837,-0.007463403977453709,0.1875485598087303,0.7905878742402374,0.9716704702651199,right,-0.0021823644638061523,-1.0894947734981697,3.27674992634505,-3.142121091146767,-0.5781839397899051,-0.005598175339400768,0.000790029764175415,8.692547186604141,0.004896342754364014
1746232671939944000,4.75594384765625,0.8072534723308624,0.008675274439156055,0.07430505837669467,0.00363047793507576,0.18774466517869892,0.7905003346927608,0.9726354247951569,right,-0.00014066696166992188,-1.0892236581259647,3.2812297021076082,-3.140850632819533,-0.5782213599621543,-0.0021821551490575075,0.001301795244216919,8.691316183504462,0.0030617713928222656
1746232671979944000,4.79594384765625,0.8080415983548538,0.003213257994502783,0.07450566768396809,0.0029941298998892307,0.18772825604658427,0.7904391018318858,0.9731083636955582,right,-0.0011046528816223145,-1.0891292860869126,3.284297565245628,-3.1388305251687765,-0.578284602800568,-0.0013582345563918352,0.0009514391422271729,8.690887728959321,0.0031253695487976074
1746232672019944000,4.83594384765625,0.8083031928434395,0.0003251254092901945,0.0744880145443933,-0.006346088368445635,0.18771505155119084,0.7903830973318684,0.9733731621972347,right,0.0014369189739227295,-1.0892916392642316,3.284098243281245,-3.1369968800008294,-0.5783677128377162,0.0018376840744167566,0.003094494342803955,8.691624811062216,-0.00021696090698242188
1746232672059944000,4.87594384765625,0.8075982528608975,-0.0026592155918478966,0.074286161554335,-0.014444269239902496,0.18779002816446924,0.7904326465228759,0.9730719652731955,right,0.0023787617683410645,-1.0893295533198117,3.2816485120415684,-3.1390839154079555,-0.5783016732593933,0.00555364228785038,0.0038885772228240967,8.691797245019673,-0.0014553666114807129
1746232672099944000,4.91594384765625,0.8064874757593692,0.00015589524991810322,0.07400377726987771,-0.024110455065965652,0.1880150584734777,0.7905327686648009,0.9727064459128206,right,0.0013531148433685303,-1.0891434272765028,3.279327667878568,-3.1438468920260667,-0.5781278918053355,0.0006727753207087517,0.0036011338233947754,8.690952026367187,0.0010860562324523926
1746232672139944200,4.955944091796875,0.8063461174700427,0.00533957127481699,0.07366036838611492,-0.0183427557349205,0.18830072899261444,0.7904343345813915,0.9734795567171831,right,0.0029720067977905273,-1.0893773473872712,3.2774156967774033,-3.142903181435168,-0.5782133549962248,-0.014011852443218231,0.001492321491241455,8.692014102640748,0.0031847357749938965
1746232672179944000,4.99594384765625,0.8069428981783087,0.018985508009791374,0.0733729175779032,-0.03158307448029518,0.18874672468287815,0.7902353080285281,0.975144993937057,right,0.003940373659133911,-1.0895296326681096,3.2783348574489355,-3.1400311331301927,-0.5783765068631254,-0.011062631383538246,-0.006798923015594482,8.692705592036246,0.011016309261322021
1746232672219944000,5.03594384765625,0.8067880607495379,0.02758670039474964,0.07298623565109223,-0.039535585790872574,0.18964946972402408,0.7901618299193409,0.9768881475692079,right,0.011186152696609497,-1.0888786741825203,3.2819340509846806,-3.1444530412256717,-0.5782305140178927,0.013752875849604607,-0.005529344081878662,8.689748495796323,0.019940853118896484
1746232672259944000,5.07594384765625,0.8052620679192398,0.014839326031506062,0.07290938329375551,-0.012041931971907616,0.19027521651474869,0.7904493425311288,0.9764191335119967,right,0.013195574283599854,-1.0874543357602735,3.2860517154365776,-3.158030023418367,-0.5776413228908471,0.049148231744766235,-0.004089862108230591,8.683266148039698,0.025881648063659668
1746232672299944000,5.11594384765625,0.801636429522425,-0.005391157232224941,0.07332772023356615,0.022961320355534554,0.19008359599877134,0.791277675713755,0.9719450440834809,right,0.012541204690933228,-1.0854043049959932,3.287363382557034,-3.1822979109734293,-0.5765162715909832,0.09831295162439346,-0.0038826167583465576,8.673904445454477,0.022575736045837402
1746232672339944000,5.15594384765625,0.7966313083182112,-0.024247508496046066,0.07421997830798036,0.05821067839860916,0.18909976481942822,0.7925127442962226,0.9642471963470963,right,0.01280394196510315,-1.0829894742581034,3.2863615120381113,-3.2133459601879117,-0.5750272504999422,0.12056199461221695,-0.0017278790473937988,8.662830678254366,0.01343071460723877
1746232672379944000,5.19594384765625,0.7925419254004215,-0.009453991428017616,0.07569261472292182,0.09626772999763489,0.1876420727317508,0.7937982726128672,0.9559257862003189,right,0.009186238050460815,-1.0803866586177884,3.2892376519963142,-3.2425749772816896,-0.5735375433375265,0.11929759383201599,0.0007827877998352051,8.650838042643667,0.001063525676727295
1746232672419944000,5.23594384765625,0.7902683580338888,0.012341700494289398,0.07781342220973106,0.11705167591571808,0.1861578357923853,0.7950256331077746,0.9484447730564359,right,0.005892306566238403,-1.0771150070931277,3.3019489572703837,-3.2699419998958703,-0.5720353395591481,0.1297810971736908,0.0017680525779724121,8.635680805522203,-0.008572757244110107
1746232672459944000,5.27594384765625,0.7892646710507667,0.031396277248859406,0.08058567778034584,0.12766483426094055,0.18484704936016655,0.7963115585902841,0.9415550596989661,right,0.00221860408782959,-1.0726247077462625,3.3261586848974227,-3.300536167863011,-0.5702854032285463,0.15271438658237457,0.0003820061683654785,8.61472686482072,-0.01012653112411499
1746232672499944000,5.31594384765625,0.7880601248325083,0.029625285416841507,0.08361217438728509,0.12684866786003113,0.18362425522123316,0.7977565009749927,0.9342322401684205,right,-0.00459638237953186,-1.0672948575808099,3.354686860245466,-3.3368738479182123,-0.5682215922063211,0.16028104722499847,-0.0013600587844848633,8.589629832965135,-0.0021497607231140137
1746232672539944000,5.35594384765625,0.7864317206352365,0.030967870727181435,0.08647309801696959,0.1119956523180008,0.18250943340286735,0.7992255212417135,0.9268810498478338,right,-0.0118771493434906,-1.0619219924660415,3.3818668358549475,-3.374882968316972,-0.5660841446867875,0.14913329482078552,-0.0006655752658843994,8.564083303776384,0.004054427146911621
1746232672579944000,5.39594384765625,0.7851940692330406,0.022778427228331566,0.08884188945303122,0.08424544334411621,0.1816326592677278,0.8004290939089086,0.9209696638078819,right,-0.014965474605560303,-1.0574066906213253,3.4049911063328384,-3.406381099386513,-0.5642960369336399,0.1135796532034874,0.001552969217300415,8.542423260632157,0.0061986446380615234
1746232672619944000,5.43594384765625,0.7843598926513126,0.011398738250136375,0.09056680649830752,0.06117425113916397,0.18088493592396357,0.8012861162483172,0.9165662033543441,right,-0.019313573837280273,-1.0543002631742187,3.4208769499897955,-3.427987366516888,-0.5630443413655462,0.06808724999427795,0.0013073086738586426,8.527420337289572,0.004880249500274658
1746232672659944000,5.47594384765625,0.7833375471746491,-0.0141795314848423,0.0914440954922588,0.025026772171258926,0.1802000984343249,0.8018161699096661,0.9132776915064494,right,-0.016217172145843506,-1.052922253462198,3.4256583390474318,-3.4398052300825714,-0.5623670689102167,0.035574786365032196,0.0014654695987701416,8.520738667568564,0.0022233128547668457
1746232672699944000,5.51594384765625,0.7812632506049668,-0.021792570129036903,0.09156196380092949,-0.0020839031785726547,0.17969231894301205,0.8022370547385534,0.91029339451766,right,-0.012846589088439941,-1.05249874005284,3.421055521427095,-3.449464454309642,-0.5619098338337639,0.029028138145804405,0.0027562379837036133,8.518682319560646,-0.0032917261123657227
1746232672739944000,5.55594384765625,0.7779307898540704,-0.012194869108498096,0.09135568084137104,-0.023873120546340942,0.17939680561798393,0.8027838942648987,0.9068407079679928,right,-0.011392384767532349,-1.0518811571832771,3.413234326282143,-3.4645945111632344,-0.5612566100722036,0.05401939898729324,0.0018451213836669922,8.515680215135216,-0.01256716251373291
1746232672779944000,5.59594384765625,0.7727202431081074,-0.01721809059381485,0.09097329241419679,-0.03435063362121582,0.1793657360049237,0.8036521180275028,0.9021718548144595,right,-0.0062094032764434814,-1.0503391288032886,3.4042990324154494,-3.4917306476309893,-0.5600849417875048,0.06038050726056099,0.0015546977519989014,8.508170277896523,-0.006406843662261963
1746232672819944000,5.63594384765625,0.7686708128024683,0.00649227574467659,0.09046509463750523,-0.03510750085115433,0.17955461566128517,0.804253858091082,0.8991634062162637,right,0.003043532371520996,-1.0492682725720408,3.3964641010060905,-3.512035476773977,-0.5592424261136016,0.03313552588224411,0.003139019012451172,8.502943483158946,-0.009201526641845703
1746232672859944000,5.67594384765625,0.7669713856928009,0.019770149141550064,0.09010255037499738,-0.032676804810762405,0.1801144179630826,0.804482556963173,0.8988324627455061,right,0.005126833915710449,-1.048385400774005,3.3956972082868218,-3.5232045210421084,-0.5587916397391431,0.012117113918066025,0.0073073506355285645,8.49862678900361,0.0010594725608825684
1746232672899944200,5.715944091796875,0.7653329813984052,0.00930982455611229,0.08986536685387944,-0.03296101465821266,0.18069259047418804,0.8047575035551108,0.8984112467614443,right,0.004200369119644165,-1.0472087627577196,3.3968460860610006,-3.535972817200422,-0.5582470603894908,0.03450069576501846,0.008182436227798462,8.49286281864941,0.00836247205734253
1746232672939944000,5.75594384765625,0.7620952951806147,-0.006296360865235329,0.08942970293099657,-0.040852583944797516,0.18100684083150298,0.8052430386395302,0.8962932815024713,right,0.0028377771377563477,-1.0461371879184482,3.3916616691604253,-3.553533608332276,-0.5575146063374804,0.04899030923843384,0.006249755620956421,8.4876038752079,0.004305839538574219
1746232672979944000,5.79594384765625,0.7576214418428568,-0.014006068930029869,0.08870832649959261,-0.05243393033742905,0.18124274642818977,0.8058434349344259,0.8932406860229722,right,0.000529557466506958,-1.0452428686056456,3.3809435835301875,-3.574183597651124,-0.5566849906697562,0.03457333892583847,0.0020609796047210693,8.483207686075568,0.006405293941497803
1746232673019944000,5.83594384765625,0.7543306269894332,0.0006422344595193863,0.08777785515534456,-0.04780316352844238,0.18162853191659278,0.8061216308198635,0.8918833195053086,right,0.0030906498432159424,-1.0451728035484247,3.3695708333835004,-3.585723813319206,-0.556303879659953,-0.0013874061405658722,0.0011269152164459229,8.482862818160653,0.0030788183212280273
1746232673059944000,5.87594384765625,0.7539833861544311,0.018155278638005257,0.08721485140375348,-0.02682209573686123,0.18223694687115952,0.8059892475418302,0.8932526666403443,right,0.005206644535064697,-1.0453370314628732,3.3673724465563892,-3.585878711619973,-0.5563853269664006,-0.021282508969306946,-0.0007688999176025391,8.483670627412199,0.0012511610984802246
1746232673099944000,5.91594384765625,0.755058062156926,0.012290188111364841,0.08683647718092884,-0.020604392513632774,0.18286115420755697,0.8056535282797842,0.8957914610865656,right,0.002995103597640991,-1.0457449159256442,3.368851871459186,-3.579737432385981,-0.5567257996671133,-0.03818337619304657,-0.0023074448108673096,8.485676122015715,0.00508350133895874
1746232673139944200,5.955944091796875,0.7569496621773019,-0.0007202932611107826,0.08654369707132002,-0.006625554524362087,0.18319480821195955,0.8051656381988105,0.8985822022423736,right,0.0010142028331756592,-1.0468209580162449,3.3693452079340815,-3.5667186685979364,-0.557367152285286,-0.03929303586483002,-0.0008730292320251465,8.49096078442037,0.0055435895919799805
1746232673179944000,5.99594384765625,0.7583696611440264,-0.003360932692885399,0.0864065076170443,0.00467271264642477,0.18318391604698642,0.8048147825151754,0.9001679312305275,right,0.0000013709068298339844,-1.047853625144218,3.3683737325534224,-3.555562776072323,-0.5578984374639582,-0.019953183829784393,-0.0013295412063598633,8.496023328506945,0.004948139190673828
1746232673219944000,6.03594384765625,0.7593654722451001,-0.0014123894507065415,0.086399100748248,0.005862644873559475,0.18309059179289064,0.8046021453585421,0.9010252492828624,right,-0.0020338892936706543,-1.0485069792414186,3.3680905316978693,-3.5481799723446366,-0.5582368288043386,-0.014344844967126846,-0.002285987138748169,8.499221247765421,0.006197571754455566
1746232673259944000,6.07594384765625,0.75975863854335,0.012592240236699581,0.08644129828727048,-0.008085086941719055,0.18324132521690603,0.804555327769881,0.9015805602889837,right,-0.0031633973121643066,-1.0483560582622362,3.3703687057629224,-3.5477854200690984,-0.5582483150151141,0.009927691891789436,-0.0034088194370269775,8.498482996618748,0.0068871378898620605
1746232673299944000,6.11594384765625,0.7592282410155229,0.022273965179920197,0.08638791543445747,-0.022084467113018036,0.1837085020888883,0.8046789546466667,0.9018311071842742,right,0.0015756189823150635,-1.0474671422790052,3.3736849907040596,-3.5550507348969576,-0.5579247175249448,0.02317095175385475,-0.0018504858016967773,8.494129477584362,0.005655348300933838
1746232673339944000,6.15594384765625,0.7581601422255054,0.01864519529044628,0.08639945313724084,-0.01421973668038845,0.18420013050489267,0.8049428850000732,0.9014935305182253,right,0.003923147916793823,-1.0461242977893412,3.377725498266518,-3.5669308500438928,-0.5573798316728233,0.035141799598932266,0.0016016066074371338,8.487540746843814,0.0043659210205078125
1746232673379944000,6.19594384765625,0.7565259789842311,0.010507247410714626,0.08650522344752719,-0.01100609265267849,0.18448265164280764,0.8053468686514305,0.9001479664981723,right,0.0009996891021728516,-1.0446187914195175,3.3806586291089653,-3.5817338669002052,-0.556685949060555,0.04006456583738327,0.0015442073345184326,8.480135439023375,0.002500593662261963
1746232673419944000,6.23594384765625,0.754059104773994,-0.01267318706959486,0.0864001403819686,-0.021556155756115913,0.18460767792824326,0.8058114006866698,0.8980418245610728,right,-0.0021156370639801025,-1.0434451567352825,3.3786250774547457,-3.5973157591745255,-0.5559882695613767,0.04014931619167328,0.0007968544960021973,8.474349256837368,0.0010747313499450684
1746232673459944000,6.27594384765625,0.7496594165832006,-0.028524935245513916,0.08592650414240023,-0.02987409569323063,0.1844839219563014,0.8064803957490053,0.8941731148115654,right,-0.002885282039642334,-1.0425696870631564,3.3678193135410543,-3.617574703349173,-0.5551321072367045,0.05651320517063141,0.000920414924621582,8.470025548419356,-0.0023841261863708496
1746232673499944000,6.31594384765625,0.7439652215445991,-0.0322234146296978,0.08514182128219878,-0.044934287667274475,0.18429598791127064,0.8072660739845221,0.8893693542737492,right,-0.0047190189361572266,-1.0418653624008474,3.3512051556095477,-3.6410818356648087,-0.554172677073462,0.048963479697704315,-0.0016393959522247314,8.466541797956824,0.0013910531997680664
1746232673539944000,6.35594384765625,0.7384347487164286,-0.01857657916843891,0.08414434529229073,-0.06406646221876144,0.18443715257556853,0.8079499781533992,0.8855250573472269,right,-0.003936439752578735,-1.0411929843001482,3.3348484795704483,-3.663768883769214,-0.553280671640775,0.03798128664493561,-0.0018863976001739502,8.463212945795059,0.003183305263519287
1746232673579944000,6.39594384765625,0.7335370602228358,-0.01645970344543457,0.08294748869144612,-0.06481669098138809,0.1849298364310734,0.8084426973810012,0.8831192419993144,right,0.002440035343170166,-1.0407318767538525,3.319477599698305,-3.6829569838419554,-0.5525768375450588,0.015766721218824387,-0.0011863410472869873,8.460927465206384,0.004602193832397461
1746232673619944000,6.43594384765625,0.7312808783545982,0.007190205156803131,0.08204031256870807,-0.03584618121385574,0.18557225683596412,0.8085398723762349,0.8831411510104786,right,0.005747795104980469,-1.0406886977458718,3.3114030143141746,-3.6907083286210893,-0.552354619648797,-0.016443751752376556,0.00002339482307434082,8.46071353019476,0.004626572132110596
1746232673659944000,6.47594384765625,0.7319377918648291,-0.002347358502447605,0.08157193023480273,-0.015838002786040306,0.18601020430633441,0.8082228898587787,0.8851145679916965,right,0.0035267174243927,-1.0414323991490446,3.30962022255063,-3.6838501332893965,-0.5527403923861935,-0.02572220377624035,-0.0022855401039123535,8.464398940709232,0.0019858479499816895
1746232673699944000,6.51594384765625,0.731892235224327,-0.01857569068670273,0.08124803614442631,0.0026048198342323303,0.18598670234114534,0.8080760804029631,0.8854939857354676,right,0.0024353861808776855,-1.0422223545044123,3.304982625877857,-3.6790251973509784,-0.5530105567059334,-0.011662011034786701,-0.0021504759788513184,8.468308223107456,0.0012670159339904785
1746232673739944000,6.55594384765625,0.7316755005962121,-0.030091984197497368,0.08112355967418838,0.021557865664362907,0.1855036915561282,0.8080153464401105,0.8847301560453401,right,0.0014080405235290527,-1.0431997432624356,3.2986537151172755,-3.6735809604704377,-0.5532797291920688,-0.015453592874109745,-0.0022383034229278564,8.473137542960048,0.004784941673278809
1746232673779944000,6.59594384765625,0.732234810669007,-0.030167682096362114,0.08109593501973976,0.04534698277711868,0.1847080737923538,0.807809939981635,0.8841271840812669,right,0.0032946765422821045,-1.0448563183718442,3.291320011228323,-3.6612925567835566,-0.5538496857685138,-0.020336294546723366,0.0001748800277709961,8.481305067324637,0.0019036531448364258
1746232673819944000,6.63594384765625,0.7333729090907585,-0.0366847924888134,0.08129955461551219,0.046408895403146744,0.18369279063711463,0.8075731603837126,0.8834394879851364,right,-0.0003847777843475342,-1.046615749209144,3.285491743466258,-3.6464532995700836,-0.5545024799606615,-0.0254376158118248,0.0016973316669464111,8.48995365320444,0.006033062934875488
1746232673859944000,6.67594384765625,0.7337197026102256,-0.03531273454427719,0.08137875757580398,0.026397202163934708,0.18256497302700128,0.8074268653008878,0.8819774573532481,right,0.0004909634590148926,-1.0484537865890737,3.2763010135337707,-3.633718028898537,-0.5550760680943713,0.0007757805287837982,0.004487484693527222,8.49896113552451,0.0024747848510742188
1746232673899944200,6.715944091796875,0.7335696941930736,-0.02905513159930706,0.08140218653309793,0.02179368957877159,0.18167130921543057,0.8073775811592363,0.880455056218702,right,-0.000886768102645874,-1.0497896173046617,3.2681516093477603,-3.625772915112972,-0.5554374004126552,-0.010645365342497826,0.007262080907821655,8.50548907598853,0.006239771842956543
1746232673939944000,6.75594384765625,0.7333841993767748,-0.014540943317115307,0.08125494355136754,-0.006334349513053894,0.18115420786354886,0.8072918362363015,0.8797051679344525,right,-0.0026365816593170166,-1.0508975686500683,3.2611692031145094,-3.6193764920741316,-0.5557524490452187,-0.004586384631693363,0.004696100950241089,8.510892396336793,0.001876533031463623
1746232673979944000,6.79594384765625,0.7315542468559602,0.017492908984422684,0.08081589298429429,-0.03981996327638626,0.1813077772387691,0.8074720917269426,0.8787473744688474,right,-0.0005231499671936035,-1.0507647374933216,3.2552950503841043,-3.6261788655653593,-0.5555043896777837,0.0218215212225914,0.002604961395263672,8.51024533060491,-0.0045302510261535645
1746232674019944000,6.83594384765625,0.7306566333541548,0.09016329050064087,0.0806437515869459,-0.05737458914518356,0.1825161294296777,0.807698749352623,0.8799160657468984,right,-0.0016630589962005615,-1.048730555771116,3.2635841553017495,-3.64198346067965,-0.5548036688618248,0.024645615369081497,-0.002039313316345215,8.500314888221025,-0.004202723503112793
1746232674059944000,6.87594384765625,0.7342322317340875,0.1482827067375183,0.08136466254882464,-0.03681447356939316,0.1849063140534017,0.8075461689230284,0.8860199706972307,right,0.0014514029026031494,-1.0449098582627736,3.2983219989448784,-3.6543735711753365,-0.5541286716852131,0.01032980065792799,0.002663224935531616,8.481568686696887,0.0015295147895812988
1746232674099944000,6.91594384765625,0.7397912648236513,0.1393316686153412,0.08247672299570416,-0.03917396068572998,0.18768693836164488,0.8071844677832376,0.8941209049809988,right,0.0012070238590240479,-1.0405533345173925,3.343463455441594,-3.663239014676213,-0.5535561245685533,0.012067370116710663,0.004407107830047607,8.46004191454351,0.011043965816497803
1746232674139944200,6.955944091796875,0.742533137719093,0.04789913445711136,0.08294762437975615,-0.040168363600969315,0.189664916911028,0.8070099793788575,0.8991407168773687,right,-0.0015382766723632812,-1.0376155588915563,3.370285703654587,-3.672353464502096,-0.5530657958100864,0.012408982962369919,0.0056053996086120605,8.445435297042131,0.017721116542816162
1746232674179944000,6.99594384765625,0.7402567553011228,-0.05107591301202774,0.08228759983163975,-0.03713583946228027,0.18998572166905675,0.8071985367919204,0.898309100675843,right,-0.0018762648105621338,-1.037503644524241,3.3625542326197024,-3.6807132965683933,-0.5527789837853556,-0.00013944786041975021,0.0020960569381713867,8.44487766315937,0.016647040843963623
1746232674219944000,7.03594384765625,0.7357889758994799,-0.0898938998579979,0.08097115990944141,-0.013624893501400948,0.18906673771426113,0.8074236592081665,0.8943750465190718,right,0.002302110195159912,-1.039848447580796,3.3327766417324542,-3.6810105259492993,-0.5529596478612167,-0.019616298377513885,-0.0029928386211395264,8.456544135555625,0.0057051777839660645
1746232674259944000,7.07594384765625,0.7328888852328608,-0.08026424050331116,0.07979902764045481,-0.000273311510682106,0.18771597771468393,0.8073453057436667,0.8911368144185118,right,0.0020141005516052246,-1.0433628838074316,3.302183350548148,-3.6685479347392915,-0.5537041004102193,-0.045053258538246155,-0.00890260934829712,8.473943014124035,-0.003096282482147217
1746232674299944000,7.11594384765625,0.7319903687698868,-0.046885810792446136,0.07888742492025935,0.01174481213092804,0.18669920321434555,0.8070019461772304,0.8900118044793228,right,0.008261233568191528,-1.0467398330382713,3.279742093898356,-3.6502073914065956,-0.5546782736942887,-0.054112132638692856,-0.006076544523239136,8.490562725013493,-0.005036890506744385
1746232674339944000,7.15594384765625,0.7337953317804577,0.008599903434515,0.07899033036248664,0.04123969376087189,0.18612119553450146,0.8066267391078704,0.8907827104384922,right,0.006087303161621094,-1.0483532059367622,3.2771479857519266,-3.6341046901285647,-0.5554032359239339,-0.009716879576444626,-0.005080670118331909,8.498468968093395,-0.005911886692047119
1746232674379944000,7.19594384765625,0.7361017084300282,0.039468761533498764,0.0799314103626945,0.03389634191989899,0.18609940933809754,0.806598979652459,0.8916968912560026,right,0.001014411449432373,-1.0473158661185868,3.2914377923890945,-3.6330677482962606,-0.5553161820771882,0.030136186629533768,-0.003150850534439087,8.493388303828239,-0.000321805477142334
1746232674419944000,7.23594384765625,0.7381387167161577,0.0541609525680542,0.08111700145351819,0.03516187146306038,0.18644408533099147,0.8067733547749275,0.8925478197129045,right,0.0003623068332672119,-1.0449670915066207,3.312246771661937,-3.641102878452837,-0.5547751333332243,0.03502935171127319,0.004571586847305298,8.481850426247716,0.007276177406311035
1746232674459944000,7.27594384765625,0.7409900335834538,0.03486091271042824,0.08226322397023089,0.026614291593432426,0.18677170984292565,0.8067569946864084,0.8942342453983505,right,-0.002865433692932129,-1.043154621231168,3.332987946395576,-3.642981239545345,-0.5545199846375326,0.002248033881187439,0.005562901496887207,8.472914840120076,0.01225060224533081
1746232674499944000,7.31594384765625,0.7431451806281322,-0.01592104509472847,0.0827501317228966,0.027587920427322388,0.18645923170116907,0.8065151592327251,0.8952058933336775,right,-0.0008494555950164795,-1.0435948652411635,3.338306803330779,-3.633042321594059,-0.5549043227580236,-0.018076276406645775,0.006645768880844116,8.475088092505931,0.008736491203308105
1746232674539944000,7.35594384765625,0.7434476574499849,-0.06402258574962616,0.08265852986145779,0.03336936607956886,0.18548229172174988,0.806322270743747,0.8941679784493651,right,-0.0011075735092163086,-1.0455521324287367,3.3281717782855034,-3.619814298969507,-0.5555253414394221,-0.028249716386198997,0.0042472779750823975,8.484728612032532,0.006287097930908203
1746232674579944000,7.39594384765625,0.7415253330057122,-0.10729558765888214,0.08195335389444793,0.021430306136608124,0.1838013210817115,0.8062267917508985,0.8907436060373557,right,-0.0047512054443359375,-1.0489981047497143,3.301438961921632,-3.6046214060127735,-0.5563264300162662,-0.0459432378411293,-0.0002104640007019043,8.501623048210144,0.006593525409698486
1746232674619944000,7.43594384765625,0.7384426280792827,-0.13722918927669525,0.08044977792858266,0.011206082999706268,0.18173267003123772,0.80594029108941,0.8867247839398241,right,-0.00423431396484375,-1.054405491082948,3.2593177300289273,-3.5807319963812825,-0.5576390469211147,-0.07635056972503662,-0.0022714734077453613,8.527930040377377,-0.0024642348289489746
1746232674659944000,7.47594384765625,0.7354743819478513,-0.09214352071285248,0.07888636129928163,0.003799318801611662,0.17984633913423348,0.8056006955391014,0.8831792539389908,right,-0.0013964474201202393,-1.0597378886574056,3.2181188736781476,-3.556620176170766,-0.5589631221918191,-0.05597525089979172,0.0008921325206756592,8.55362796073556,-0.015365660190582275
1746232674699944000,7.51594384765625,0.73452029951771,-0.014320597052574158,0.07812606327056157,-0.0006839605048298836,0.1790318750456377,0.8053415507797269,0.8820942655238414,right,-0.0018926262855529785,-1.0624119376485153,3.1993820245042444,-3.542700664150715,-0.5597042540925405,-0.028534771874547005,0.00007700920104980469,8.566423144900797,-0.011699557304382324
1746232674739944000,7.55594384765625,0.736425469101738,0.04825415462255478,0.07802944775365674,-0.03281547129154205,0.17961004104609918,0.8049764322236288,0.884983963660739,right,-0.006234109401702881,-1.062626928952515,3.2048888052269815,-3.5352348583146926,-0.5600576685683321,-0.025366488844156265,-0.001294642686843872,8.567449565339087,-0.0038415193557739258
1746232674779944000,7.59594384765625,0.7389474682730843,0.06955958157777786,0.077961511386324,-0.055238936096429825,0.18119910665001038,0.8046076263882734,0.8899577719161128,right,-0.005277752876281738,-1.0614115714719787,3.220805920805037,-3.5348356298640367,-0.5600852973389645,-0.015022037550807,-0.0010963678359985352,8.56164409393072,0.003936350345611572
1746232674819944000,7.63594384765625,0.7400888287678463,0.039419494569301605,0.07754412091401763,-0.06467543542385101,0.18289354000536476,0.8043554734746681,0.894219170114357,right,-0.0009123086929321289,-1.0601741241783023,3.2319805180311203,-3.538977844235301,-0.5599546847361877,-0.017333069816231728,-0.0021730363368988037,8.555719380056857,0.011028409004211426
1746232674859944000,7.67594384765625,0.7397094603544232,-0.011064790189266205,0.0766640025452206,-0.03425101190805435,0.18377227667340015,0.8041047363443102,0.8964091853481039,right,0.005600690841674805,-1.060619801696766,3.2280671439796684,-3.5373870679125186,-0.5601482707219594,-0.04329823702573776,-0.0009404122829437256,8.557854638519883,0.011371314525604248
1746232674899944200,7.715944091796875,0.7404589942989592,-0.05645306035876274,0.07583233544632483,0.01537131518125534,0.1834864847780392,0.8035353831252359,0.8979018855310426,right,0.0063828229904174805,-1.0634012488303453,3.21464506008774,-3.517380344933271,-0.5611710729156804,-0.08837907761335373,-0.0018153190612792969,8.571141990116239,0.009406626224517822
1746232674939944000,7.75594384765625,0.7444322866131364,-0.07420305162668228,0.07536161644722629,0.09281999617815018,0.1819987671383749,0.8023784858320088,0.900275378382531,right,0.012954860925674438,-1.06883514183178,3.196991622236371,-3.470274602626264,-0.5633700872883168,-0.15450987219810486,-0.0005418956279754639,8.596907715013623,0.00498652458190918
1746232674979944000,7.79594384765625,0.7566295508249282,-0.05101514607667923,0.07609960321392632,0.18142415583133698,0.1797161935719134,0.8001104986678986,0.9079012622342092,right,0.0157126784324646,-1.0765329124945944,3.1935555103078483,-3.382800025051832,-0.5672160508852304,-0.21281106770038605,-0.012561976909637451,8.632974469172954,-0.0191727876663208
1746232675019944000,7.83594384765625,0.7728068560743466,0.025533147156238556,0.07817534220683385,0.17145438492298126,0.1777679739669239,0.7977597967160038,0.9180894479135634,right,0.0026650726795196533,-1.0822231195444119,3.2135113798826933,-3.2954718702107666,-0.5708470106128656,-0.15328174829483032,-0.012049853801727295,8.659306011259556,-0.013866007328033447
1746232675059944000,7.87594384765625,0.7869505999696311,0.08227221667766571,0.0808078749064375,0.12780730426311493,0.177097996094484,0.7961886487808368,0.9273846273637503,right,-0.0023497343063354492,-1.0835325618974885,3.2517674607798455,-3.241686504009366,-0.5728787542383211,-0.05632887780666351,-0.005683153867721558,8.665325417679547,-0.004994034767150879
1746232675099944000,7.91594384765625,0.7982233861116251,0.11411277204751968,0.08358676233837281,0.10287096351385117,0.17746657144792374,0.7953075024953317,0.9351702107305297,right,-0.0025867223739624023,-1.0815606802741993,3.300333046506345,-3.2167452472373843,-0.5735894825356347,-0.01656259223818779,0.004760861396789551,8.656254806995392,0.006748318672180176
1746232675139944200,7.955944091796875,0.8079058283210369,0.11247250437736511,0.08629038826726937,0.08451542258262634,0.1782396981629867,0.7947041129504043,0.9420848578616122,right,-0.0033686161041259766,-1.0784344567887896,3.3508678864791985,-3.203323163345456,-0.5737856216647684,0.003043927252292633,0.008962661027908325,8.641804841360448,0.010960698127746582
1746232675179944000,7.99594384765625,0.8155066896219897,0.08507400751113892,0.08869151438010203,0.067060686647892,0.17894054448028815,0.7943354822636768,0.9472542558796514,right,-0.005600273609161377,-1.0752272849847129,3.395280444179475,-3.1967440772160884,-0.573711794706608,0.01025827694684267,0.006413757801055908,8.626893103432655,0.009316861629486084
1746232675219944000,8.03594384765625,0.821150460171137,0.055407844483852386,0.09046262113592189,0.04889877513051033,0.17937255526721915,0.7940378487751918,0.9509768172950465,right,-0.007931053638458252,-1.0730181280367475,3.4272084910988805,-3.190508689957857,-0.5737123284780116,-0.005848660133779049,0.0033062100410461426,8.6165698623389,0.010372757911682129
1746232675259944000,8.07594384765625,0.8250452621193706,0.01740945130586624,0.09146123694119182,0.03418271988630295,0.17944237364334015,0.7937196374030561,0.9535245756205881,right,-0.005168884992599487,-1.0723414488712057,3.4438907458305357,-3.181091457793116,-0.5739723984249048,-0.0161212719976902,0.003980278968811035,8.61339941560924,0.006650447845458984
1746232675299944000,8.11594384765625,0.826972823483597,-0.009508470073342323,0.09177049320622334,0.01446332223713398,0.17923620776879953,0.7934696367860019,0.9546912173150773,right,-0.0037744641304016113,-1.0727854291257952,3.4472020623356103,-3.1718577655017373,-0.5743330303695868,-0.021456053480505943,0.0030178427696228027,8.615479729014634,0.005394697189331055
1746232675339944000,8.15594384765625,0.827826197255858,-0.014676013961434364,0.09162378454981245,0.00613036472350359,0.17894127097204884,0.7932298930376563,0.9553095289651135,right,-0.00016176700592041016,-1.0739159716110511,3.4427325157061217,-3.1623242134809493,-0.5747794475394642,-0.027439264580607414,0.0015731751918792725,8.620770236638188,0.0024719834327697754
1746232675379944000,8.19594384765625,0.828748174537963,-0.010198136791586876,0.09145819104991687,0.008078069426119328,0.17868870312495913,0.7929729429030864,0.9560860857986965,right,0.0012342333793640137,-1.0750470283984344,3.4384579071268435,-3.1525577294871208,-0.5752388033218228,-0.020409714430570602,0.00022304058074951172,8.626051976433397,-0.00027292966842651367
1746232675419944000,8.23594384765625,0.8297324451524075,0.003045128658413887,0.09139227019829586,-0.0020454199984669685,0.17865854299477013,0.7927604983192399,0.9571131239696947,right,0.0008089840412139893,-1.0756366035757763,3.4378070420026776,-3.1457384048610924,-0.575551409682552,-0.016324713826179504,-0.0014207661151885986,8.628800982880591,-0.000629425048828125
1746232675459944000,8.27594384765625,0.8304836666422036,0.011166767217218876,0.09140312049323635,-0.0011495562503114343,0.17882062178503802,0.7926359261507387,0.9580849632111545,right,0.0011137723922729492,-1.075662973878811,3.440001044915616,-3.143001381112635,-0.5756709043377721,-0.005543881095945835,-0.00003504753112792969,8.628923732477427,-0.0016935467720031738
1746232675499944000,8.31594384765625,0.8314165551718277,0.013327671214938164,0.09150949827715424,-0.001040846691466868,0.1790433509133891,0.792520104614764,0.9591911778283073,right,-0.001264333724975586,-1.0754609413450409,3.444218954871595,-3.140964906848967,-0.5757441803395525,-0.011259401217103004,0.0007858574390411377,8.62798265223503,0.0011208653450012207
1746232675539944000,8.35594384765625,0.8330947194289242,0.014338265173137188,0.09156681939266789,-0.0012077271239832044,0.17932152532443998,0.7922492887055639,0.961190272175926,right,-0.0012009143829345703,-1.0755778260342395,3.448739062644541,-3.134502432836592,-0.5760211530075013,-0.024091672152280807,0.0019288957118988037,8.628527426636218,0.0006272792816162109
1746232675579944000,8.39594384765625,0.8351420258948085,0.012939108535647392,0.0915968671312755,-0.0050158328376710415,0.1796363890582465,0.7919013407310105,0.9636496115512665,right,-0.002929478883743286,-1.0758417675040375,3.453461122730374,-3.125907330709696,-0.5763966473280032,-0.026605330407619476,0.00299912691116333,8.62975667617023,0.003001391887664795
1746232675619944000,8.43594384765625,0.836779489277915,0.012467342428863049,0.09146432874585735,-0.018593251705169678,0.1800705358028724,0.7915721918670835,0.9661111464102008,right,-0.0027499794960021973,-1.0761012002237742,3.4569121399670837,-3.1187481066048144,-0.576734228549224,-0.024891052395105362,0.0045379698276519775,8.630964882916212,0.004818558692932129
1746232675659944000,8.47594384765625,0.8376387496992147,0.011975277215242386,0.0911648995822073,-0.02480323612689972,0.180636498828473,0.7913290227916546,0.9682337020718199,right,-0.0017137527465820312,-1.076200519852543,3.458953874927759,-3.1152029813438653,-0.5769383105508884,-0.017252478748559952,0.005806833505630493,8.631427239730954,0.007827341556549072
1746232675699944000,8.51594384765625,0.8378002977181699,0.009565746411681175,0.09080931743733883,-0.03208312392234802,0.1812172259393772,0.7911933093285654,0.9697652357694608,right,-0.0014836788177490234,-1.076119218043673,3.4599779572784897,-3.1151129649728535,-0.5769983529626426,-0.008112149313092232,0.0032501518726348877,8.631049054068326,0.008137643337249756
1746232675739944000,8.55594384765625,0.8371625633534321,0.002566732931882143,0.09035323590638107,-0.033565934747457504,0.18177147384292294,0.7911636581250614,0.9706068164764934,right,0.0011154413223266602,-1.0759775693517861,3.4588989298701285,-3.1181378657519816,-0.5769363036793341,-0.001027471385896206,0.0016573965549468994,8.63038912885487,0.005732476711273193
1746232675779944000,8.59594384765625,0.8359569536711996,-0.002991815097630024,0.08988254508271792,-0.027557259425520897,0.18217033131851038,0.7912235966248312,0.9706740008231933,right,0.0014227330684661865,-1.0758844655828306,3.4557337438374756,-3.122844728268683,-0.5768018326682085,0.0006729811429977417,-0.00037619471549987793,8.629955998134612,0.0030143260955810547
1746232675819944000,8.63594384765625,0.8349208524501661,-0.0015959225129336119,0.08949934788049423,-0.017111150547862053,0.182415610896002,0.7912774460939589,0.9705562652193243,right,0.003137528896331787,-1.0759107218838206,3.4523277347862718,-3.126270903325081,-0.5767099809987442,-0.0016144569963216782,-0.0015660524368286133,8.630078163209557,0.001693427562713623
1746232675859944000,8.67594384765625,0.8348270089156614,0.006360182538628578,0.08927429535748745,-0.007599692791700363,0.1826354677756756,0.7912182084166597,0.9711111355984526,right,0.0027115345001220703,-1.0760122272497186,3.4513849009782076,-3.1260066994309423,-0.5767565410863705,-0.012109875679016113,-0.0016574561595916748,8.630551041418313,0.0008488297462463379
1746232675899944200,8.715944091796874,0.8360767784848356,0.01746859773993492,0.08933256347810702,0.0005949810147285461,0.18287389534141832,0.791024304385459,0.9726243262491528,right,0.002349644899368286,-1.076010991730359,3.45529710598588,-3.1216981885820627,-0.5769379302678351,-0.012339329347014427,-0.0009400248527526855,8.630545196199417,0.0015128850936889648
1746232675939944000,8.75594384765625,0.8378626040584511,0.02135629951953888,0.0894960606277202,-0.004981874953955412,0.18324308833632127,0.7907806748971817,0.9747146961966144,right,0.001477360725402832,-1.0757920187450052,3.4622724979564548,-3.1167882047086954,-0.5771295135489874,-0.011807689443230629,0.0007255673408508301,8.629525205501913,0.004243910312652588
1746232675979944000,8.79594384765625,0.8396220338019813,0.016696149483323097,0.08970357605143568,0.0003048223443329334,0.1835905771677709,0.7905575038194725,0.9766838204869673,right,0.00017124414443969727,-1.0755011522925229,3.4696187690660354,-3.1123674656569955,-0.5772925514366127,-0.011869378387928009,0.002126246690750122,8.62816969923973,0.006493628025054932
1746232676019944000,8.83594384765625,0.841124411518019,0.013994673267006874,0.08987227492263011,-0.002634318545460701,0.1838717784238191,0.7903622972241754,0.9783542912638921,right,-0.0005422234535217285,-1.0752943656600893,3.4756209320902824,-3.1083406943589447,-0.5774441068397576,-0.011343123391270638,0.0015738904476165771,8.627205822643637,0.005936026573181152
1746232676059944000,8.87594384765625,0.8421751786897052,0.008389094844460487,0.08993667506931968,-0.003546136897057295,0.18411607842093128,0.7902070863509665,0.9796699475388804,right,0.00015527009963989258,-1.0751892777113,3.479562070931494,-3.10529124366045,-0.5775686979994187,-0.007466559298336506,0.0023434460163116455,8.62671599330008,0.0048367977142333984
1746232676099944000,8.91594384765625,0.8425130140220267,0.0025935457088053226,0.08993289755578515,-0.007055758498609066,0.184286195506655,0.7901523643596471,0.9802642015900122,right,-0.0005491673946380615,-1.0750648207399145,3.4814100368857384,-3.104828302323818,-0.577589722030693,0.001564566045999527,0.0021483302116394043,8.626134978541732,0.0037592649459838867
1746232676139944200,8.955944091796875,0.8420426948563757,0.00020975549705326557,0.0897295397110323,-0.012805888429284096,0.18448680128023212,0.7901700714060581,0.9803856940083681,right,-0.00030291080474853516,-1.075001367881129,3.4803573129624126,-3.106829120752215,-0.5775330310076828,0.0003609488485381007,0.0031612515449523926,8.62583921046555,0.003632843494415283
1746232676179944000,8.99594384765625,0.8412095396934375,-0.0030284516979008913,0.08946273841119157,-0.014197384007275105,0.18464901308468293,0.7902277201278742,0.9801800866769652,right,0.000798642635345459,-1.0749905115003733,3.477837439095974,-3.1097903086453673,-0.5774437076013103,0.0035337647423148155,0.0022571980953216553,8.625788357061147,0.0031170248985290527
1746232676219944000,9.03594384765625,0.8399677166622258,-0.008594002574682236,0.08910844195039709,-0.01712820865213871,0.18473742662242768,0.7903222531139227,0.9795833753613439,right,-0.001099705696105957,-1.0751202567960123,3.4731402211904525,-3.1133602760866284,-0.5773408752098976,0.0028123243246227503,0.0001067817211151123,8.626393921738863,0.003482222557067871
1746232676259944000,9.07594384765625,0.8384007527047942,-0.016764281317591667,0.08859504394463685,-0.025718338787555695,0.18485529325128308,0.7904152725524822,0.9789343086315837,right,-0.0014881789684295654,-1.0754150655634165,3.4663664892718193,-3.117098293571174,-0.57725482545598,-0.002797031542286277,0.00023695826530456543,8.627768717223406,0.005591273307800293
1746232676299944000,9.11594384765625,0.835987278823643,-0.027604013681411743,0.08791467817246787,-0.021822918206453323,0.18482563108513198,0.790589655308823,0.9774626087307262,right,0.0004132390022277832,-1.0759623874759405,3.4553298392117022,-3.1222894324734805,-0.5771295813221704,0.008742322213947773,0.00016048550605773926,8.630318986228108,0.0029906034469604492
1746232676339944000,9.15594384765625,0.8330961000917759,-0.031263239681720734,0.08722972198472992,-0.018426502123475075,0.184589050432329,0.7908373294899318,0.9752146880018342,right,-0.0012681782245635986,-1.0766531089958877,3.441876483398676,-3.128256524184346,-0.5769699118516368,0.00479986472055316,-0.0013248622417449951,8.633533272099495,0.0048288702964782715
1746232676379944000,9.19594384765625,0.831079759510172,-0.02277412638068199,0.08665244344406293,-0.01417875848710537,0.1844004009698096,0.7909675513540445,0.9737534245879118,right,-0.00013512372970581055,-1.0773845531300352,3.4308959474399683,-3.1309321731343864,-0.5769386787886664,-0.0006591416895389557,-0.0018693804740905762,8.636932851409911,0.004552245140075684
1746232676419944000,9.23594384765625,0.8294342381956131,-0.01808447577059269,0.0862163240303033,-0.0036037499085068703,0.18421730245664958,0.79108526477702,0.9724676046470033,right,0.004203170537948608,-1.0779523531089754,3.422121689353883,-3.1332612006038425,-0.5769011018534761,0.00859454832971096,-0.001369774341583252,8.639569045132399,0.0007701516151428223
1746232676459944000,9.27594384765625,0.8281010930526784,-0.013612870126962662,0.08607638579788916,0.003944436088204384,0.18391703407196303,0.791256889749032,0.9708957469723752,right,0.0020405948162078857,-1.0781923091092291,3.4164144176229834,-3.1364187878519294,-0.5767824516512938,0.0068140821531414986,-0.0018276572227478027,8.640681974810361,0.002297341823577881
1746232676499944000,9.31594384765625,0.8272661837464886,-0.013947299681603909,0.08601934991426906,0.009125728160142899,0.1835980713206192,0.7913682130144254,0.9696727132732145,right,0.0008672177791595459,-1.0784812795438192,3.4119551001265642,-3.1375784792810677,-0.576739710085752,0.0016743941232562065,-0.00036269426345825195,8.642021698981523,0.001232922077178955
1746232676539944000,9.35594384765625,0.8270832471861012,-0.012317675165832043,0.08604801361372003,0.009558559395372868,0.1832722156821764,0.7913930387156657,0.9689648171187334,right,-0.0014988183975219727,-1.0788571344403273,3.4089906973630186,-3.136003485049307,-0.5768050397362139,-0.001978025771677494,0.0003891289234161377,8.64376357421279,-0.0004013180732727051
1746232676579944000,9.39594384765625,0.8266541578521829,-0.015601009130477905,0.08591462316224055,-0.0022769831120967865,0.1829965079787502,0.7914006302803984,0.9683179388470309,right,-0.0029644370079040527,-1.0794046939370316,3.404161962032318,-3.1342592717304822,-0.576902003295695,-0.0025718281976878643,0.0007999837398529053,8.64629864564836,-0.0015297532081604004
1746232676619944000,9.43594384765625,0.8255722345060854,-0.017464054748415947,0.0856375559290659,-0.007148871663957834,0.18277976690926662,0.7914741229810978,0.9673152329299711,right,-0.0032013356685638428,-1.0799089371364983,3.397565047985315,-3.134984371134639,-0.5769111593319394,-0.0009023766033351421,0.00021195411682128906,8.64863088798821,-0.0011548995971679688
1746232676659944000,9.47594384765625,0.8247641394976951,-0.011274939402937889,0.08531295208848458,-0.010977193713188171,0.182649547654932,0.7914828648333453,0.9667809167762463,right,-0.0036707818508148193,-1.0804892508043857,3.3913445660352703,-3.134322107833624,-0.5769885135226487,-0.011703621596097946,-0.0009312331676483154,8.651312089896201,0.0014388561248779297
1746232676699944000,9.51594384765625,0.824362685973184,-0.007365373894572258,0.0849533735258331,-0.013871423900127411,0.1826704228318205,0.7914119432960068,0.9669251237825245,right,-0.0014088153839111328,-1.0810702385489839,3.3863954191952943,-3.132269851478934,-0.5771322258499291,-0.008467565290629864,0.0018713772296905518,8.653993291804193,0.002217233180999756
1746232676739944000,9.55594384765625,0.8229390496888966,-0.023741386830806732,0.08459807898992724,-0.010641339235007763,0.18260862233466554,0.7915256708597723,0.9659251478102172,right,0.0015771687030792236,-1.0813641370179232,3.3800679697394367,-3.1353578806221485,-0.577048005828583,0.01829461380839348,0.003812819719314575,8.655348798066377,0.006650805473327637
1746232676779944000,9.59594384765625,0.8173591410429837,-0.07342001795768738,0.08386033462089272,-0.03494807705283165,0.1820449209320213,0.7922154178411687,0.9605952930448427,right,-0.0016470551490783691,-1.0816035306364,3.3610090490043163,-3.152751790754497,-0.5763868876717886,0.06657224893569946,0.006020277738571167,8.656452375394105,0.01572287082672119
1746232676819944000,9.63594384765625,0.8055664902994439,-0.13440857827663422,0.08227537702960219,-0.04706720635294914,0.18071336378977806,0.7936439221516437,0.9491596158510041,right,-0.000684887170791626,-1.082346297364327,3.3189579597383734,-3.187711168193817,-0.5750675772439237,0.0985187217593193,0.009916812181472778,8.65987299749255,0.0209236741065979
1746232676859944000,9.67594384765625,0.7901053830392543,-0.16247469186782837,0.0801614857162007,-0.04222884029150009,0.17860143685417526,0.7954505635746887,0.9336734873811259,right,0.0011589527130126953,-1.083905921976343,3.2596792568176984,-3.2291344809502363,-0.5735277597342583,0.10131024569272995,0.0053792595863342285,8.66703923586011,0.01507711410522461
1746232676899944200,9.715944091796874,0.7751659860074602,-0.14018405973911285,0.07805947099511185,-0.041001081466674805,0.17640709752678885,0.7971272124517481,0.9185668852161467,right,0.0018082857131958008,-1.0857209697605015,3.20006123894006,-3.266227655547857,-0.5721673339548384,0.08810289204120636,-0.001450181007385254,8.675352890697122,0.0015388727188110352
1746232676939944000,9.75594384765625,0.7631691962720283,-0.08640597760677338,0.07640026449415283,-0.039432425051927567,0.17494131937931892,0.7984964491841263,0.9068372804995831,right,0.004236042499542236,-1.0865823470498595,3.1554803389355537,-3.2989795860707756,-0.5709306860854848,0.07351545244455338,-0.005515068769454956,8.67928847658038,-0.007807433605194092
1746232676979944000,9.79594384765625,0.7553575903853391,-0.023591384291648865,0.07542819468955184,-0.03172449767589569,0.1744141199862242,0.7994790587714652,0.8996828609184421,right,0.004502594470977783,-1.0861657847525976,3.1320936181291934,-3.326161315245926,-0.569845205772029,0.050904158502817154,-0.007270932197570801,8.677386442351342,-0.00985860824584961
1746232677019944000,9.83594384765625,0.7527914370825373,0.023457489907741547,0.07515550217512112,-0.022326793521642685,0.17474118575925196,0.7998801569840034,0.8980120303874085,right,0.003699660301208496,-1.08509234850208,3.1299139360025525,-3.3409833290636537,-0.5692178037776292,0.011633064597845078,-0.005594134330749512,8.672477042999864,-0.007307589054107666
1746232677059944000,9.87594384765625,0.7548855742191697,0.04005773365497589,0.07531978840509351,-0.005443360656499863,0.17546276676700398,0.7996359012020781,0.9009313617666682,right,0.001401066780090332,-1.0844822841914499,3.1405291457802056,-3.338275239148736,-0.5693173626983855,-0.036178503185510635,-0.0032855868339538574,8.669682443845272,-0.001769423484802246
1746232677099944000,9.91594384765625,0.7594671932936432,0.03286922350525856,0.07556976405298069,-0.0014141984283924103,0.17615437201566292,0.7989510090088301,0.9061515889759587,right,0.0004253089427947998,-1.0848450242903365,3.1536253587186334,-3.3215707725852726,-0.5700317804721894,-0.05024753883481026,-0.0010405778884887695,8.67134423957765,0.0023844242095947266
1746232677139944200,9.955944091796875,0.7631321994675273,0.01754949800670147,0.07559138531540957,-0.005139226093888283,0.17661987386315536,0.7983126378518446,0.9104499187418712,right,0.0007567107677459717,-1.0856735835531592,3.1608091327428816,-3.3047955788731573,-0.5707786380849704,-0.039595723152160645,-0.00011456012725830078,8.675136617597937,0.00354766845703125
1746232677179944000,9.99594384765625,0.7655808605115079,0.011200539767742157,0.07551699160480929,-0.00588185852393508,0.17694003421358534,0.7978477216652492,0.9134615380837506,right,0.00031769275665283203,-1.0864065704377415,3.1644851909071203,-3.292460705696046,-0.5713391280399143,-0.03144017606973648,0.0006774961948394775,8.678485928025841,0.007646739482879639
1746232677219944000,10.03594384765625,0.7671018371087499,0.005186132155358791,0.07545742102479128,-0.002489865990355611,0.1771455504452253,0.7975541683862599,0.9153611120465476,right,0.0032809972763061523,-1.086877803656967,3.166651429030299,-3.2847003008276223,-0.5716931552247023,-0.014058530330657959,0.00003764033317565918,8.680636968579888,0.007735073566436768
1746232677259944000,10.07594384765625,0.767675064351645,-0.00014421669766306877,0.07543014226427337,-0.0023921432439237833,0.17723814248002445,0.7974429789658369,0.9161064365086719,right,0.001168578863143921,-1.0870409325569828,3.1675504236966368,-3.2818656619235873,-0.5718231459984062,-0.0035035498440265656,0.0010356009006500244,8.681381064945459,0.00859689712524414
1746232677299944000,10.11594384765625,0.7678118451694567,-0.000780509493779391,0.07542888207847909,-0.0018636786844581366,0.17725727178613707,0.7974185668973905,0.9162724245144401,right,-0.00046896934509277344,-1.0870728138326589,3.1678076133280992,-3.281233793760836,-0.5718514784351414,-0.0015590866096317768,0.0006987452507019043,8.681526610895991,0.009496867656707764
1746232677339944000,10.15594384765625,0.7674822910323499,-0.008887778967618942,0.0753300263762345,0.00004547636490315199,0.17714228937029114,0.7974242903752436,0.9159144279135513,right,0.00048744678497314453,-1.0873389178825832,3.165121442984044,-3.280614492818713,-0.5718921173916143,-0.0025100321508944035,-0.00023832917213439941,8.68274007833898,0.006634831428527832
1746232677379944000,10.19594384765625,0.7671596042832157,-0.006615462712943554,0.07518304424485173,0.00029039845685474575,0.17697145430580002,0.7974010304461548,0.9155482902764309,right,0.00031509995460510254,-1.0878078512036986,3.161234956939518,-3.278703106239438,-0.5719966608394483,-0.0049470108933746815,-0.0005897581577301025,8.684876505845784,0.0030272603034973145
1746232677419944000,10.23594384765625,0.7674313044424005,0.005415579304099083,0.07512391567046847,0.0009834080701693892,0.17695220360182926,0.7973209923194772,0.9158730214060662,right,0.00039389729499816895,-1.0880921392567784,3.160411073336005,-3.2760666202560067,-0.5721219165862568,-0.0066114189103245735,-0.0017078220844268799,8.68617122183144,0.0009801387786865234
1746232677459944000,10.27594384765625,0.7686403226525124,0.01951500214636326,0.07526911864746899,0.0020557157695293427,0.1771628818718308,0.797180277133299,0.9171802615483714,right,0.0003199279308319092,-1.087950203088271,3.165226656924188,-3.2731293977603313,-0.5722337001446481,-0.005159955471754074,-0.0036081671714782715,8.685524740621448,-0.000835120677947998
1746232677499944000,10.31594384765625,0.7705846392984349,0.030244238674640656,0.07551853836446101,-0.0022145919501781464,0.17762934554963863,0.7969735044479457,0.919450237327076,right,0.0006698668003082275,-1.08747806605568,3.1744404754713176,-3.2699107279747723,-0.5723442188498138,-0.00975273922085762,-0.002972245216369629,8.68337428458929,0.0003158450126647949
1746232677539944000,10.35594384765625,0.7728797869778796,0.035061515867710114,0.07588086613993289,0.0074034035205841064,0.1781758278391186,0.7967581429463708,0.9220273346154796,right,0.0017336905002593994,-1.0867739880316434,3.1862048552840947,-3.266992210179567,-0.5724262754263613,-0.004055296070873737,-0.0012187361717224121,8.680163505849242,0.00022202730178833008
1746232677579944000,10.39594384765625,0.7753583057101471,0.031785305589437485,0.0763350539259424,0.006145093590021133,0.17869120267206495,0.7965446301781824,0.9246096701724202,right,0.0015780925750732422,-1.0859932617031671,3.1990359875455496,-3.2639252238243817,-0.5725024783816649,-0.009988635778427124,0.00022047758102416992,8.676597922322154,0.004511713981628418
1746232677619944000,10.43594384765625,0.7774605549111354,0.01821431890130043,0.0767268664561799,0.012577112764120102,0.17900847799266242,0.79635357150627,0.9266119628855438,right,0.0012612640857696533,-1.0855096080669568,3.2088334511995313,-3.2601828224256635,-0.5726167332463722,-0.007560127414762974,0.0025562942028045654,8.67438667601347,0.0063800811767578125
1746232677659944000,10.47594384765625,0.7790152733243477,0.0021350737661123276,0.07705395251586696,0.011867636814713478,0.17898766285407025,0.7962043364966364,0.9276589760596075,right,-0.0015395879745483398,-1.0854798310690759,3.214080119681358,-3.2553742531001566,-0.5727868612292856,-0.008879901841282845,0.0018616914749145508,8.674250482413171,0.008178949356079102
1746232677699944000,10.51594384765625,0.7798590620456175,-0.007056867703795433,0.07714849602485019,0.00875755213201046,0.1788014237461101,0.7960702609662939,0.928084287053093,right,-0.0013370215892791748,-1.0859309810138655,3.214074566723406,-3.249878870554268,-0.5730186671973655,-0.008834781125187874,0.0019240379333496094,8.676313260161876,0.0054351091384887695
1746232677739944000,10.55594384765625,0.7803092437242529,-0.007628834806382656,0.07719681777182652,0.008086943067610264,0.17855805253968424,0.7959843452519705,0.9280996363524433,right,-0.0010807812213897705,-1.0864081682410482,3.2126246601760386,-3.2454894034236665,-0.5732074138323094,-0.006287436932325363,0.001463562250137329,8.678493526810406,0.002444446086883545
1746232677779944000,10.59594384765625,0.7805651689324472,-0.0032892017625272274,0.07717015801092808,0.0037222355604171753,0.17838660249273186,0.7959083927100126,0.9281359197849296,right,-0.00044670701026916504,-1.0868535672507744,3.2107340241238473,-3.241919435982406,-0.573369750772678,-0.010414458811283112,0.0004665851593017578,8.680526493942738,0.0003592371940612793
1746232677819944000,10.63594384765625,0.7815721081556883,0.004350552801042795,0.07720180345321016,-0.0014228937216103077,0.17838866419062785,0.7957339197793408,0.9290931434794273,right,-0.00032708048820495605,-1.0872099879604922,3.2118168509244915,-3.236488058583438,-0.5736069281760752,-0.014747865498065948,-0.0013457834720611572,8.682152049317956,0.00002372264862060547
1746232677859944000,10.67594384765625,0.7830363429425786,0.009949610568583012,0.07721952398053059,0.0005750972777605057,0.17855781660018452,0.7954836613830186,0.9307728681600688,right,0.00038123130798339844,-1.0875222625042629,3.214640091651678,-3.229860749398172,-0.5738990127845432,-0.021243588998913765,-0.00005984306335449219,8.683575360119342,0.0017012357711791992
1746232677899944200,10.715944091796874,0.7849554245892654,0.01080367062240839,0.07731720935943426,0.002415962051600218,0.17872404685805593,0.7951834305270656,0.9327860313059959,right,-0.0002371668815612793,-1.0878515185985669,3.2188103630736467,-3.221661660851538,-0.5742499665608825,-0.02181416004896164,-0.0008449256420135498,8.685075827810168,0.004656195640563965
1746232677939944000,10.75594384765625,0.7865246453851265,0.005540789104998112,0.07734605514712686,-0.000056145014241337776,0.1788569165308837,0.7949155932133505,0.9345001304685456,right,0.0016292929649353027,-1.088236816646609,3.221491857242584,-3.2142420322448015,-0.574575371177959,-0.016604240983724594,-0.000927358865737915,8.686829393479227,0.0047065019607543945
1746232677979944000,10.79594384765625,0.7875911612860855,0.0007304316386580467,0.07733922623327195,0.0036253274884074926,0.17889515203378442,0.7947175347951725,0.9356251098420756,right,0.0010694265365600586,-1.0886395617253133,3.2224384904429315,-3.2083354385495184,-0.5748382894771666,-0.015008662827312946,-0.0007145404815673828,8.688661869603395,0.004817545413970947
1746232678019944000,10.83594384765625,0.7884056218900516,-0.0069624390453100204,0.07732182019927074,0.006784524768590927,0.17880044351612107,0.7945500968918443,0.9363170167075333,right,0.0015699565410614014,-1.089172299192106,3.2217689206182953,-3.202448134076595,-0.5751016621466797,-0.012401096522808075,-0.0009701251983642578,8.691082959270476,0.0047509074211120605
1746232678059944000,10.87594384765625,0.7887833167815552,-0.010356010869145393,0.07724643444036486,0.005652121268212795,0.1785855981306312,0.794427671227499,0.9364789026998689,right,0.0011199712753295898,-1.089842151578473,3.2188468956917524,-3.197127231314778,-0.5753475963409619,-0.008042622357606888,-0.000979304313659668,8.694123642140626,0.0040166378021240234
1746232678099944000,10.91594384765625,0.7891160196007044,-0.005839127581566572,0.0772156112035342,0.004131536465138197,0.17839893003176754,0.794335549837874,0.9365748706333314,right,-0.0016053617000579834,-1.0903488672362935,3.216782364377379,-3.1929514069348572,-0.5755367309889202,-0.008774971589446068,-0.0012246668338775635,8.696421397688985,0.004690408706665039
1746232678139944200,10.955944091796875,0.7895736842763887,-0.002240661298856139,0.0771888229919693,0.0007923676166683435,0.17833730287437075,0.7942334852001687,0.936975356632432,right,-0.0003317296504974365,-1.0906980663363917,3.2160867833286524,-3.1893402307003735,-0.5757002530825152,-0.008033769205212593,0.00023126602172851562,8.698003698444365,0.004803895950317383
1746232678179944000,10.99594384765625,0.790045963685577,-0.0013173227198421955,0.07715900321484487,0.0027499343268573284,0.17834522923965504,0.7941338103949944,0.9374982266658214,right,0.0022912919521331787,-1.0909482004637685,3.2160473281010984,-3.186289903219044,-0.5758393062402642,-0.007956444285809994,0.0015076398849487305,8.699136501866578,0.005782783031463623
1746232678219944000,11.03594384765625,0.7910819098241758,-0.0008770177373662591,0.07719677651744317,0.005562852136790752,0.178344731348497,0.7939585117350625,0.9384720098217573,right,0.002360701560974121,-1.0912962522837117,3.2171926987439394,-3.180827253898978,-0.5760760356654507,-0.022278767079114914,0.00033226609230041504,8.700711788359284,0.007877767086029053
1746232678259944000,11.07594384765625,0.7928585547249042,-0.014012396335601807,0.07724544716556773,0.018792955204844475,0.17817689462068004,0.79363644127344,0.9399164493310722,right,0.0031576454639434814,-1.0921936763838533,3.217275116330385,-3.1696251841440795,-0.5765650263452748,-0.02922672964632511,0.0009444653987884521,8.704768370273708,0.004147648811340332
1746232678299944000,11.11594384765625,0.7941966324497245,-0.019819501787424088,0.0772267061784182,0.01276959478855133,0.17775193792526248,0.7933436654500308,0.9406388428570612,right,-0.00008067488670349121,-1.0934670238242419,3.2136043188631533,-3.157546039293706,-0.5771013644720816,-0.02835029922425747,-0.0008128583431243896,8.71051188236177,0.0034656524658203125
1746232678339944000,11.15594384765625,0.7951718115891367,-0.010369223542511463,0.0770303479671498,-0.0007771579548716545,0.1774701912294585,0.7930543612607478,0.9414665549038589,right,-0.0018682777881622314,-1.0947501034769576,3.2086990111649034,-3.1465824544698,-0.5776116889215394,-0.026504414156079292,-0.0023257434368133545,8.716285789588094,0.0018110275268554688
1746232678379944000,11.19594384765625,0.7969525472266337,0.01235766801983118,0.07697111693641893,0.007642864249646664,0.17751470904463418,0.7927067208934889,0.943384729221724,right,-0.0013130009174346924,-1.0955360240908485,3.2093983916059137,-3.136076842546463,-0.5780830613398347,-0.028617901727557182,-0.00016936659812927246,8.719814548236132,0.0056310296058654785
1746232678419944000,11.23594384765625,0.798855056991632,0.02155478298664093,0.07720577241008088,-0.00846532080322504,0.17779083851029368,0.7924839696902677,0.9453509938920203,right,-0.0048878490924835205,-1.0953533731619858,3.2165000403046604,-3.131075965519249,-0.5782722728432438,0.004069959744811058,-0.0006520748138427734,8.718995048546791,0.011777222156524658
1746232678459944000,11.27594384765625,0.7985410667358345,0.015245619229972363,0.07726159326203168,-0.023699000477790833,0.17829515232817095,0.7926096028539159,0.945710252341655,right,-0.0005338788032531738,-1.0942980031485916,3.2221061897486445,-3.138504361954331,-0.5779372432729427,0.029238056391477585,0.0020793378353118896,8.714252822455764,0.01690518856048584
1746232678499944000,11.31594384765625,0.7957967193984524,0.008085183799266815,0.07717785701974614,-0.026112623512744904,0.1787570094945119,0.7931177139170688,0.943792287976192,right,0.003758370876312256,-1.092623413450017,3.2239021332547066,-3.1575416553795335,-0.5771081027146638,0.05714242160320282,0.003949016332626343,8.706708398425578,0.017423152923583984
1746232678539944000,11.35594384765625,0.7908403737232108,-0.008622672408819199,0.07702493846527898,-0.0340881422162056,0.17903102263016968,0.7939901627444659,0.9394981614217564,right,0.004458189010620117,-1.0904757076379539,3.2214988715052604,-3.186623665218055,-0.5758424800780807,0.08568763732910156,0.0024261474609375,8.696996567228435,0.011747419834136963
1746232678579944000,11.39594384765625,0.7836190820720893,-0.030811410397291183,0.07659964889218258,-0.03377935662865639,0.17898886729213662,0.7951422098334048,0.9328733120004672,right,0.005456745624542236,-1.0884572976555802,3.210788384659588,-3.222233030998707,-0.5743207566539994,0.09296359121799469,0.0008727908134460449,8.68783301756382,0.005370736122131348
1746232678619944000,11.43594384765625,0.7760230328408769,-0.03708624094724655,0.0761263319503537,-0.021720988675951958,0.1786492809404081,0.7963225727697769,0.9255028186279539,right,0.004976630210876465,-1.0868167848157102,3.1961978415101764,-3.256696149353683,-0.5728520668566778,0.07985153794288635,-0.0019614994525909424,8.680358736160397,0.00004988908767700195
1746232678659944000,11.47594384765625,0.7698126196204736,-0.028519583866000175,0.07578410745213855,-0.010138440877199173,0.17819615464319627,0.7972952834558557,0.9191525005983411,right,0.002579331398010254,-1.0856221285381031,3.183126763013005,-3.283926978367567,-0.5716844279533635,0.06822868436574936,-0.004128992557525635,8.674901055276393,-0.006126523017883301
1746232678699944000,11.51594384765625,0.7655920064262457,-0.012541763484477997,0.07563447743926119,-0.003708398435264826,0.1778353924780696,0.7979907456455417,0.9146406940403841,right,0.0005498826503753662,-1.0846887162705066,3.1748475949674844,-3.3031685621932145,-0.570845594513852,0.03607244789600372,-0.0054931640625,8.670628200262785,-0.005665302276611328
1746232678739944000,11.55594384765625,0.7613887887890438,0.003436056897044182,0.07548485560596377,0.0027216440066695213,0.17747442018505738,0.7986850435262436,0.9101460989584883,right,-0.001481086015701294,-1.0837465826078339,3.1665701804876325,-3.322395825232565,-0.5700061324468713,0.003916218876838684,-0.006857544183731079,8.66630799897611,-0.0051993727684021
1746232678779944000,11.59594384765625,0.7625991185770631,0.02309856191277504,0.07575805189221793,0.007683740463107824,0.1777028121016123,0.7986026619452803,0.9112993615002576,right,0.002949237823486328,-1.0832921876960375,3.1733085488319395,-3.3214071064561606,-0.5700141053132132,0.0013850503601133823,-0.002787381410598755,8.66422184035182,-0.008918344974517822
1746232678819944000,11.63594384765625,0.7636238401982594,0.016526497900485992,0.07611353269654489,0.004656839184463024,0.17792000104111336,0.7985916044646004,0.9121350910216055,right,-0.0016991198062896729,-1.0825862261529875,3.180940943406522,-3.3225726431041953,-0.5699146173699922,0.00954391434788704,-0.0027984976768493652,8.66097657482028,0.0011829137802124023
1746232678859944000,11.67594384765625,0.763458089063146,-0.005747007206082344,0.07609721560586986,-0.006033804267644882,0.177953900141295,0.7986192741396341,0.9120444385000835,right,-0.004317760467529297,-1.0824942924863112,3.180940943406522,-3.3236753436490893,-0.5698674668922449,-0.005129147320985794,0.0029601752758026123,8.660553965494037,0.007516801357269287
1746232678899944200,11.715944091796874,0.7644878286622243,0.0030578868463635445,0.07610816970011033,0.009481479413807392,0.17795221904097547,0.7984277483472234,0.9130476053220798,right,-0.0019394755363464355,-1.0829313834053018,3.181740861612558,-3.3176652895793315,-0.570134803664913,-0.02337603084743023,0.005224823951721191,8.662563551750779,0.008296728134155273
1746232678939944000,11.75594384765625,0.766535702070017,0.00011381367221474648,0.07624840166028543,-0.00028385501354932785,0.17801379031445178,0.7981079007733501,0.9149714521021511,right,-0.005195409059524536,-1.0834224649537108,3.185577955557406,-3.308078546066582,-0.5705445819625771,-0.018678633496165276,0.00010001659393310547,8.664819806244969,0.006591796875
1746232678979944000,11.79594384765625,0.7668116627111419,-0.008198007941246033,0.07609047137654848,-0.009348740801215172,0.17803414066684942,0.7979860035194216,0.9154996441720445,right,-0.004038363695144653,-1.0838702416413097,3.18379808640331,-3.3044048259899017,-0.5707297816195592,-0.006753535009920597,0.0011539459228515625,8.666875569730996,0.0069419145584106445
1746232679019944000,11.83594384765625,0.7660382810750008,-0.001351168379187584,0.07589985534792046,0.0022622132673859596,0.17794626671646052,0.7980376151720011,0.9148720573342101,right,-0.0020120441913604736,-1.0841033172530004,3.1798399964272974,-3.3054090345963836,-0.5707103029421942,0.0071010589599609375,0.0021224617958068848,8.667944660267233,0.005111753940582275
1746232679059944000,11.87594384765625,0.7651169124939959,-0.005045345984399319,0.07598304207117705,-0.0018391567282378674,0.1779074303941352,0.7982466143142479,0.9137822930358898,right,0.00011768937110900879,-1.0835688024112957,3.1800024935126303,-3.3116797854289413,-0.5704190558829434,0.024487944319844246,-0.000861436128616333,8.66549200641811,-0.00021058320999145508
1746232679099944000,11.91594384765625,0.7635040563753019,-0.009151969105005264,0.07577401050117932,-0.0023854963947087526,0.17784695874689288,0.7984524786107557,0.9123892001664584,right,0.0005204677581787109,-1.0834254212785903,3.17551716479212,-3.3177029912412164,-0.5701776290640299,-0.002318998798727989,0.0003394484519958496,8.664833834770322,0.0022548437118530273
1746232679139944200,11.955944091796875,0.7644655750383439,0.00625566765666008,0.07581137676045274,0.009465768933296204,0.17778594987261112,0.7982802250972937,0.9131987769457875,right,0.000013053417205810547,-1.0838675613678608,3.1760537558868527,-3.3118826145246625,-0.5704328280783153,-0.0184504222124815,-0.00042006373405456543,8.666863294771312,0.0013307929039001465
1746232679179944000,11.99594384765625,0.7647967370119648,-0.004164423793554306,0.07576180269234258,-0.013440053910017014,0.17774396812325266,0.79819037213606,0.9135349475578882,right,0.0003040730953216553,-1.0841955689657556,3.1751810647055505,-3.3087785110294816,-0.5705781277072072,0.005420155823230743,-0.0017951130867004395,8.668367854115367,-0.0005639195442199707
1746232679219944000,12.03594384765625,0.7635233232361361,-0.0025784331373870373,0.07545132938213933,-0.004799428395926952,0.17773771078839623,0.7982906214574483,0.9127032491746633,right,0.000011354684829711914,-1.0843465372234515,3.1700600684300064,-3.311873554435372,-0.5704809653412607,-0.008948776870965958,-0.0008982717990875244,8.669060512554646,0.002536594867706299
1746232679259944000,12.07594384765625,0.7647862466061147,-0.0022544863168150187,0.07531744618290684,0.003472692333161831,0.1777184153018778,0.7979878001807901,0.9141169713737693,right,0.0006670951843261719,-1.0852426942765077,3.168859168207645,-3.302259922915697,-0.5709280891181325,-0.040338728576898575,-0.0009853839874267578,8.673165025264025,0.0032874345779418945
1746232679299944000,12.11594384765625,0.7669185258158453,0.0015197116881608963,0.07519251596920591,-0.0032330318354070187,0.17770817839069214,0.7975261629492628,0.9163938245937007,right,-0.0004905164241790771,-1.0864832594132716,3.1684234071388837,-3.28774449082911,-0.5715923103984694,-0.028153933584690094,-0.0008061528205871582,8.678836056637763,-0.0008642077445983887
1746232679339944000,12.15594384765625,0.7678600308935661,0.01054416410624981,0.07498644896892741,-0.018862813711166382,0.17796978817544443,0.7972816274774975,0.9180100802968835,right,-0.00037172436714172363,-1.086938350397781,3.1687744125336406,-3.2819188534155486,-0.5718791243201887,-0.019100524485111237,-0.002531200647354126,8.68091344743371,0.0012496113777160645
1746232679379944000,12.19594384765625,0.7691937901801541,0.01905856654047966,0.07479271307460439,-0.0018596984446048737,0.17836201458062692,0.7969820108232096,0.920192625587133,right,0.0022628307342529297,-1.0873229262872202,3.170826961149275,-3.2752909597083923,-0.5721998595832725,-0.02526634931564331,-0.0017610490322113037,8.682667013102769,0.00018477439880371094
1746232679419944000,12.23594384765625,0.7720146524288991,0.03589242696762085,0.07491237765134674,-0.008453934453427792,0.17889674331559569,0.7965576415603064,0.9236181140739718,right,0.0014066696166992188,-1.08741318469312,3.1795074034720656,-3.2657728975176807,-0.5726081191573924,-0.03433030843734741,-0.0023889541625976562,8.683078516513108,0.007643699645996094
1746232679459944000,12.27594384765625,0.7745730669084846,0.026468520984053612,0.07504392585638668,-0.009641638025641441,0.17956994433352882,0.7962006764665323,0.9269729911926762,right,0.0047081708908081055,-1.087134659527324,3.1895430597960948,-3.2593557239517565,-0.5728765326913172,-0.003982707858085632,0.0017072856426239014,8.681808934968709,0.009286940097808838
1746232679499944000,12.31594384765625,0.7753706272084825,0.00441620871424675,0.07519415915941087,0.004740215837955475,0.17975445374812482,0.7961353655466767,0.9278261064309726,right,0.003232032060623169,-1.0868431654205608,3.193912360921502,-3.258617180544138,-0.5728896860246759,0.0026894696056842804,0.0030003488063812256,8.680479147669672,0.0111275315284729
1746232679539944000,12.35594384765625,0.7753823406928368,-0.017651891335844994,0.075261026382594,0.009886831045150757,0.17950570486178882,0.7961393397410764,0.927371917555943,right,0.0005572140216827393,-1.0870996791717698,3.1923914349645375,-3.256989287081361,-0.5729533468191452,-0.00016529671847820282,0.003907263278961182,8.681649360492825,0.007311820983886719
1746232679579944000,12.39594384765625,0.7744149810408083,-0.025820648297667503,0.07513544650110378,0.006051002070307732,0.17902228384462254,0.7962186421642079,0.9258697401124024,right,-0.0014200210571289062,-1.087745644591279,3.185316966533661,-3.2560666192784904,-0.5730108830121328,-0.004145385231822729,-0.00040200352668762207,8.684593597251176,0.004309594631195068
1746232679619944000,12.43594384765625,0.7737697705027434,-0.014385486952960491,0.07507517166088101,0.008852407336235046,0.1785364564187222,0.796265674519355,0.9245909911426856,right,-0.0012194812297821045,-1.088388307073288,3.179314511248469,-3.2541283446922895,-0.5731050064571035,0.004639606457203627,-0.0006733238697052002,8.687519129309058,-0.0014001131057739258
1746232679659944000,12.47594384765625,0.7732103098939226,0.00317345280200243,0.07496419424929403,-0.003105645067989826,0.1784312032681402,0.7963107163297714,0.9240365825654513,right,0.0015301406383514404,-1.0885667441890363,3.176411191022396,-3.254797329995036,-0.5730897677374418,0.0020723885390907526,-0.0011574625968933105,8.688330445691943,-0.00183027982711792
1746232679699944000,12.51594384765625,0.7737054455752403,0.016686145216226578,0.07508363584984543,0.004985962063074112,0.1786136056948164,0.7962891361889138,0.924630193850328,right,0.00137367844581604,-1.0882169847078498,3.180146578158438,-3.2553988030195233,-0.5730473790410144,0.003179315011948347,-0.00027552247047424316,8.686739377108216,0.00121307373046875
1746232679739944000,12.55594384765625,0.7754515484281265,0.016576174646615982,0.0754122791909271,0.009245362132787704,0.17887395201983947,0.7961333972155249,0.9262840904904232,right,0.0023649930953979492,-1.0878103270643449,3.1882977359101172,-3.2523622118026014,-0.5731393043170562,-0.010029442608356476,0.0008717477321624756,8.684888196283579,0.004491627216339111
1746232679779944000,12.59594384765625,0.7773477221947278,0.02066897600889206,0.07580941060784371,0.023068562150001526,0.17903103427435743,0.7959694733955754,0.9278357425829232,right,0.004206806421279907,-1.0874810194060358,3.196463798969984,-3.248348299986124,-0.5732654429339126,0.0011848919093608856,0.0010613203048706055,8.683387728592752,0.008144617080688477
1746232679819944000,12.63594384765625,0.7785143458507854,0.011925287544727325,0.07642218582537327,0.018710972741246223,0.17903716384515705,0.7960231511010871,0.928132583243424,right,0.001547306776046753,-1.0865995618086723,3.2056255950689314,-3.250065625298023,-0.5731076791573841,0.027543943375349045,-0.004684269428253174,8.679367387035489,0.015349328517913818
1746232679859944000,12.67594384765625,0.7773980692736185,-0.008350616320967674,0.07694418585423762,0.028770431876182556,0.17876987994977334,0.796439253581847,0.9258858011650544,right,0.005733281373977661,-1.0853799471645678,3.2094188498720526,-3.261184985205531,-0.5725429493808296,0.05167284607887268,-0.0028486251831054688,8.673793386295438,0.01442563533782959
1746232679899944200,12.715944091796874,0.77491287206184,-0.015327662229537964,0.07764550878750982,0.035543106496334076,0.1781145121067157,0.7971575693885133,0.9214477189215231,right,0.000017940998077392578,-1.0837821582792808,3.2109967667132615,-3.2790488509371873,-0.5716521750938275,0.07159347087144852,-0.005065828561782837,8.666471665105224,0.009503960609436035
1746232679939944000,12.75594384765625,0.7715831904367397,-0.01732318103313446,0.07835062958450105,0.035241078585386276,0.1773055704483972,0.798025603434079,0.915937326078634,right,-0.0025977790355682373,-1.0820356231892552,3.2106101054832337,-3.3005674397841096,-0.570595371932496,0.07473865896463394,-0.005668729543685913,8.658442672428489,0.0036044716835021973
1746232679979944000,12.79594384765625,0.7679262808242886,-0.026060806587338448,0.07892803190253375,0.03787454590201378,0.17632770523416846,0.7988850269039378,0.9100317856949481,right,-0.0018470585346221924,-1.080684068524018,3.2066452935054897,-3.3207015885353086,-0.5696153941058498,0.07064639776945114,-0.005889534950256348,8.65221166908443,-0.0015940070152282715
1746232680019944000,12.83594384765625,0.7651931322373401,-0.018187660723924637,0.07947372146874679,0.04012303426861763,0.17540834792175264,0.7995614014637346,0.9051748027270929,right,-0.0020882487297058105,-1.0797042248010402,3.203427500502765,-3.3355656879290936,-0.5688738024214528,0.04005604237318039,-0.003795057535171509,8.647683962526918,-0.0025931596755981445
1746232680059944000,12.87594384765625,0.7648379828791065,0.003383023664355278,0.0802283547888681,0.043339841067790985,0.17468191818464432,0.7998971085856692,0.9026673546889126,right,-0.0023940205574035645,-1.0789980641404788,3.2064705214604734,-3.3411087090089917,-0.5685193755164355,0.026941079646348953,-0.0019518136978149414,8.644415900641679,-0.002094864845275879
1746232680099944000,12.91594384765625,0.7657445804663449,0.023156018927693367,0.08113888209214436,0.023891743272542953,0.17439726313385745,0.8001072462927414,0.9018479612509647,right,-0.00542294979095459,-1.0777854436678096,3.2167610293284055,-3.3457541967272757,-0.5681817431378743,0.0318162776529789,-0.004976153373718262,8.638794553628564,0.002963840961456299
1746232680139944200,12.955944091796875,0.7654566523080732,0.021404394879937172,0.08182409974196246,0.006873713806271553,0.17456525483316027,0.800492479191128,0.900837843841093,right,0.0008612573146820068,-1.0758072771072382,3.2276319674327967,-3.358996540138125,-0.5674889051377162,0.05805274844169617,-0.0022014975547790527,8.629596517172455,0.006343364715576172
1746232680179944000,12.99594384765625,0.7630709358664393,0.0036524441093206406,0.08221904249837692,-0.00011731218546628952,0.17471349163029812,0.8011509159388671,0.8981299384313849,right,0.0035635530948638916,-1.0735598897981198,3.2330054771646854,-3.3806951617270706,-0.5664561230878532,0.05893032252788544,-0.00032252073287963867,8.61910551829636,0.008494734764099121
1746232680219944000,13.03594384765625,0.7601076288806339,-0.0054106153547763824,0.08258930646701744,0.012698755599558353,0.17446576970020664,0.8018720770613572,0.8942941319282506,right,-0.0016488432884216309,-1.0717322033622223,3.233821761983633,-3.401672483304143,-0.5654573219442061,0.06283273547887802,-0.005388826131820679,8.610541688090562,0.004248321056365967
1746232680259944000,13.07594384765625,0.7576924874786616,0.012900909408926964,0.08286541904977045,-0.0006155837327241898,0.17436941159995023,0.8024619614190717,0.8913617864090725,right,-0.005055725574493408,-1.070116487371853,3.2351535951092836,-3.419574342958629,-0.5646092020695894,0.04433102160692215,-0.005705088376998901,8.602946995177865,-0.000737309455871582
1746232680299944000,13.11594384765625,0.7576763690626609,0.046860478818416595,0.08329161502174394,0.0032736212015151978,0.17482166824651904,0.802710014606848,0.8914135916060484,right,-0.00027754902839660645,-1.0683781210662688,3.2453701609581707,-3.4304838595077394,-0.5640536365621224,0.021841324865818024,-0.0013127326965332031,8.59475082924068,-0.0003413558006286621
1746232680339944000,13.15594384765625,0.7600190204670779,0.07050327956676483,0.0840428777337302,0.012504659593105316,0.17570090096611515,0.8026865562263682,0.8939792967400428,right,0.0074028074741363525,-1.0663034816184134,3.2656752823621034,-3.435788980178535,-0.5637023186685987,0.014821793884038925,-0.0014054179191589355,8.584934953147172,-0.0038010478019714355
1746232680379944000,13.19594384765625,0.7642235083520422,0.07558099925518036,0.08522183091344859,0.021866105496883392,0.17670102251004424,0.8024977969137739,0.8979631734393672,right,0.004722535610198975,-1.063925005227999,3.294212225538492,-3.4367592865154144,-0.5634813927829839,0.008076686412096024,0.0008197426795959473,8.573636145019531,0.004629611968994141
1746232680419944000,13.23594384765625,0.7681603523431713,0.05429261177778244,0.08646980784460949,0.04338415339589119,0.17738830690651508,0.8023538557803627,0.9011162053900204,right,0.003213852643966675,-1.0617766358687066,3.320506650485098,-3.437002447621524,-0.5632802235010309,0.017782457172870636,0.00851091742515564,8.563388891771435,0.007864832878112793
1746232680459944000,13.27594384765625,0.7710820215172175,0.01966891437768936,0.08788989234018685,0.06529946625232697,0.17733775360382018,0.8024116026249218,0.9019152740994831,right,0.0023179352283477783,-1.059955078248139,3.3413998009100556,-3.438467843998968,-0.5629940479817338,0.034836456179618835,0.01012873649597168,8.554669578742981,0.007803440093994141
