time,seconds_elapsed,roll,rotationRateZ,quaternionY,rotationRateY,quaternionZ,quaternionW,yaw,devicelocation,accelerationZ,pitch,gravityX,gravityZ,quaternionX,rotationRateX,accelerationX,gravityY,accelerationY
2025-04-30 01:06:56.787261200,0.53526123046875,-0.1005150996239998,0.0367577970027923,-0.041675709903319,-0.0865267664194107,-7.169979921821596e-18,0.9432862022340612,-0.0350436303799333,left,-0.0074193477630615,-0.6704664892277417,-0.7710402674023061,-7.6450412901878355,-0.3293547400291888,-0.0459118150174617,0.0037019252777099,6.093375911566615,-0.0043451189994812
2025-04-30 01:06:56.827261400,0.575261474609375,-0.101177920249455,0.088850662112236,-0.0423487132751555,-0.0615696795284748,0.0012570524768683,0.9430097092382288,-0.0326996212462625,left,-0.0062590241432189,-0.6720621979042496,-0.77512424878031,-7.634845474866032,-0.3300573608408982,-0.0828508213162422,0.0044981390237808,6.105629243940115,0.005446434020996
2025-04-30 01:06:56.867261400,0.615261474609375,-0.096101850249247,0.2785510420799255,-0.0418091837286093,-0.0775877013802528,0.0053336760037693,0.9441177942012658,-0.0219547002799683,left,0.0007904767990112,-0.6658340654733955,-0.7399939717534929,-7.676384522956609,-0.326902674989756,-0.0762404575943946,-0.0168248862028121,6.057715984642505,0.021449327468872
2025-04-30 01:06:56.907261400,0.655261474609375,-0.0902901333551405,0.4690978527069092,-0.0412975192218394,-0.0330483727157115,0.0108317553865814,0.9441870223628378,-0.0082956234665566,left,-0.0154207348823547,-0.665811014832398,-0.6953812883712351,-7.680694202849269,-0.3266315184637987,-0.126517504453659,-0.0032610967755317,6.057537705466151,0.0382179617881774
2025-04-30 01:06:56.947261400,0.695261474609375,-0.0797659599386545,0.5644545555114746,-0.0403735656456969,0.0502371378242969,0.0210177487848133,0.9428668680053076,0.0166173637249531,left,-0.0142828822135925,-0.673948573260364,-0.6105632897201925,-7.638195954337716,-0.3300460613805487,-0.1866482645273208,0.0077139735221862,6.1200944071441885,-0.0053202509880065
2025-04-30 01:06:56.987261200,0.73526123046875,-0.0722850803903444,0.4488074779510498,-0.0394959170743706,0.0206767190247774,0.0274346964534507,0.9414152695388188,0.0325898848220877,left,0.000925064086914,-0.6824063207831562,-0.5496481812367215,-7.590649774786829,-0.333803367374583,-0.1577240079641342,0.018359400331974,6.184682906910777,-0.0342612862586975
2025-04-30 01:06:57.027261200,0.77526123046875,-0.0652339828429107,0.2093271166086197,-0.039011233400137,-0.0855980142951011,0.0342331924901312,0.9407438881138196,0.0494553285579408,left,0.018682837486267,-0.6856812616606892,-0.4947896328458562,-7.574085008955001,-0.3351228195614728,-0.0959677249193191,0.0136908181011676,6.209573602539301,-0.0268467664718627
2025-04-30 01:06:57.067261400,0.815261474609375,-0.0620176055696552,-0.0037844928447157,-0.0389542897194725,-0.0528349056839942,0.0378358437299846,0.9412839524276014,0.0583388965889229,left,0.0004557371139526,-0.6818845374055559,-0.4718837908916175,-7.599113067227601,-0.3332201367065779,-0.0216422956436872,0.0211370568722486,6.180711080670356,-0.0190101861953735
2025-04-30 01:06:57.107261400,0.855261474609375,-0.0611425839866172,-0.0600401125848293,-0.0381922705616786,-0.0196626149117946,0.0367209191593837,0.9415896924002034,0.0563107339276539,left,0.0072149038314819,-0.6803839636875674,-0.4658004523899406,-7.608772291454672,-0.3325687567758994,-0.0169635154306888,0.0118371099233627,6.169279001551867,0.0002121329307556
2025-04-30 01:06:57.147261400,0.895261474609375,-0.0602647771005562,-0.116295725107193,-0.0374301783441929,0.0135096795856952,0.0356058763331675,0.9418931917899814,0.054283245809812,left,0.0139711499214172,-0.678884727677818,-0.4596777682585641,-7.618402289587259,-0.3319165934405327,-0.0122847342863678,0.0025331452488899,6.157843415302038,0.0194347500801086
2025-04-30 01:06:57.187261400,0.935261474609375,-0.0606695032388273,-0.134907066822052,-0.0366339428024316,0.0317661873996257,0.0328842968747521,0.9422303953899716,0.0483938890492949,left,0.0115358829498291,-0.6774198065560616,-0.4633075030630454,-7.627211034464835,-0.3313283488333145,0.0113375661894679,0.0027120150625705,6.146656250855326,0.0201193690299987
2025-04-30 01:06:57.227261200,0.97526123046875,-0.0630260568845628,-0.1375762224197387,-0.0369349610501124,0.0106234569102525,0.0309715209032474,0.9421486354580774,0.043488412482013,left,0.0085909366607666,-0.6781213364556765,-0.4810084333179518,-7.621792516547441,-0.3317115953759384,0.0085052447393536,0.0025552809238433,6.152015147539973,0.0182396173477172
2025-04-30 01:06:57.267261200,1.01526123046875,-0.0675512298297895,-0.1321041584014892,-0.037761570193255,0.0053506162948906,0.0280215620316645,0.9419860606549848,0.0356008565023934,left,0.0075934529304504,-0.6792878370310766,-0.51500853727106,-7.612372361773252,-0.3323418763311769,0.0151751348748803,0.0049411244690418,6.1609191694855685,0.0169741511344909
2025-04-30 01:06:57.307261400,1.055261474609375,-0.0704038922582678,-0.1052392721176147,-0.0382662705866556,0.0097169131040573,0.0261303355720473,0.9418014220090296,0.0305434142015747,left,0.0055052042007446,-0.6804804002577381,-0.5362047622958198,-7.603538482454419,-0.3329612070769065,0.0046151336282491,0.0050917565822601,6.170013745567203,0.0120930671691894
2025-04-30 01:06:57.347261400,1.095261474609375,-0.0732670590781926,-0.0783743932843208,-0.0387708196362164,0.0140832085162401,0.0242389832604113,0.9416126864195898,0.0254766938157464,left,0.0034162998199462,-0.6816615745470427,-0.5574388351129368,-7.594698173394799,-0.333579097345852,-0.0059448676183819,0.0052462667226791,6.179013044580817,0.0072218179702758
2025-04-30 01:06:57.387261400,1.135261474609375,-0.076140608050394,-0.0515095144510269,-0.039275193674281,0.0184495039284229,0.0223475419831592,0.9414199819607192,0.0204008362377915,left,0.0013267397880554,-0.6828315769493882,-0.5787099154721945,-7.585852019116282,-0.3341956094335643,-0.0165048688650131,0.0054045319557189,6.187918820092082,0.0023599863052368
2025-04-30 01:06:57.427261400,1.175261474609375,-0.0759791453348376,-0.0065971761941909,-0.0388984792450117,0.037249319255352,0.0215100351989149,0.941163127640142,0.0186210933085711,left,-0.0001857876777648,-0.6844986723182024,-0.5767012425309047,-7.575648605009913,-0.33501699146887,-0.030985027551651,0.0056033208966255,6.200593008226156,0.0013022422790527
2025-04-30 01:06:57.467261400,1.215261474609375,-0.0730274368218263,0.0507548712193965,-0.0377303931644272,0.0549993440508842,0.0216673088959333,0.9409393553073566,0.0199537918241704,left,0.0021929740905761,-0.686081449336946,-0.5536209207925945,-7.5675202436119315,-0.335768240865521,-0.0425920523703098,0.0025683268904685,6.212610778278112,0.0035807490348815
2025-04-30 01:06:57.507261200,1.25526123046875,-0.0669575681781542,0.082872450351715,-0.035649997063278,0.0622163563966751,0.0228503041012919,0.9406318746353164,0.0245706286314052,left,0.0059638023376464,-0.6882618334634413,-0.5067695916380733,-7.557207523912191,-0.3367770420386667,-0.0373959504067897,-0.0022933781147003,6.229139888274669,0.0023041367530822
2025-04-30 01:06:57.547261200,1.29526123046875,-0.0620030192002391,0.0220736041665077,-0.0339843392830752,0.0324047282338142,0.0238912012021501,0.940278106327647,0.0284972207174572,left,0.0054602622985839,-0.690593226014556,-0.4684198411080986,-7.545110258883238,-0.3378632001212555,-0.0346920639276504,-0.0012909360229969,6.2467813434273,-0.0009839534759521
2025-04-30 01:06:57.587261400,1.335261474609375,-0.0616740942928972,0.0046912897378206,-0.0338161029870066,0.0195943266153335,0.0238072069102865,0.9400865392927712,0.0284066562753015,left,0.004385232925415,-0.691762743944765,-0.4654874409180134,-7.537966816869377,-0.3384186142974884,-0.0374618507921695,7.98478722572e-05,6.255618145355582,0.0047184228897094
2025-04-30 01:06:57.627261400,1.375261474609375,-0.0620089330262692,-0.0320423170924186,-0.0337774801620095,0.0142150782048702,0.0233356041473608,0.9397917085990792,0.0272362448597508,left,0.002041220664978,-0.6935464063670537,-0.4673192229224369,-7.526662163522839,-0.3392729919621175,-0.0386147238314151,0.0009490884840488,6.269079099953174,0.0017345547676086
2025-04-30 01:06:57.667261400,1.415261474609375,-0.0632930758330997,-0.0467305108904838,-0.0338599464377792,0.0182127859443426,0.0221350662614962,0.9394564403391386,0.0241619056683143,left,-0.0010722875595092,-0.6955934991975775,-0.4761714416155591,-7.51323277310729,-0.3402723927403059,-0.0390127263963222,0.0019484125077724,6.284503463578224,0.0022926330566406
2025-04-30 01:06:57.707261400,1.455261474609375,-0.0634593464506483,-0.0309683233499526,-0.033701367030938,0.0248921476304531,0.0215180211745721,0.93936347215519,0.0227710179797418,left,0.0012478232383728,-0.6962107456448756,-0.4771745542434975,-7.509280236089229,-0.3405840939713974,-0.0186442732810974,0.0010788924992084,6.2891492435574525,0.0030986070632934
2025-04-30 01:06:57.747261200,1.49526123046875,-0.0640041408462205,-0.0693863034248352,-0.0334600126740536,0.020557964220643,0.0202434157030685,0.9393412171838972,0.0198524919835049,left,0.0034951567649841,-0.696466217516773,-0.481162710564211,-7.507415611261129,-0.3407474211543807,-0.0141524914652109,0.0024069957435131,6.291071151530742,0.0004636049270629
2025-04-30 01:06:57.787261200,1.53526123046875,-0.0658470242362007,-0.0941186249256134,-0.0336716669714858,0.0108530363067984,0.0187573380558928,0.9393263306895038,0.0160161060979251,left,0.0034716725349426,-0.6965915343621324,-0.4949452983316034,-7.505729265609383,-0.3408526990192768,-0.0125273158773779,0.0042902044951915,6.292013985338807,-0.0022617578506469
2025-04-30 01:06:57.827261400,1.575261474609375,-0.0676906839694749,-0.1188509464263916,-0.0338832372461372,0.0011481083929538,0.0172712228918472,0.9393092913169696,0.0121790500378505,left,0.0034489631652832,-0.6967114002774124,-0.508731429762952,-7.504051687785982,-0.3409572035718329,-0.010902140289545,0.0061737559735774,6.292915318092703,-0.0049828886985778
2025-04-30 01:06:57.867261400,1.615261474609375,-0.0704953104187692,-0.0728691965341568,-0.0342036472787356,0.0355151779949665,0.0150172531798001,0.939226962107506,0.0063453648904989,left,0.0013895034790039,-0.6971899676312446,-0.5295632784547284,-7.499590616723895,-0.3412586368912546,-0.0128905987367033,0.0072407945990562,6.296514219367504,-0.0026091337203979
2025-04-30 01:06:58.008864800,1.75686474609375,-0.0668273855810727,0.0046785087324678,-0.032262674023594,0.0101344715803861,0.0139230521676119,0.9384736298308224,0.0051922741859207,left,-0.0016268580220639,-0.7019923207560399,-0.5000268393795937,-7.471225522983074,-0.3435588429713997,-0.0391277708113193,-0.0074847880750894,6.332546486735343,0.0236094202846288
2025-04-30 01:06:58.048864800,1.79686474609375,-0.0663603740879827,0.0068252403289079,-0.0320889630940056,0.0061097415164113,0.0140098217876435,0.938207416456052,0.0054973518790317,left,0.0030614733695983,-0.7035709655740229,-0.4958741036143154,-7.461473944297432,-0.3442978953542659,0.0059959948994219,-0.0037906430661678,6.34435967412591,0.0092620849609375
2025-04-30 01:06:58.088864800,1.83686474609375,-0.0655919506487189,-0.0077664945274591,-0.0317047314235188,0.0298206023871898,0.0137862256771261,0.9383906501828984,0.0053341237227714,left,-0.0005978345870971,-0.7025837191521086,-0.4905506801018491,-7.46809891539514,-0.3438426708993295,0.0377043075859546,0.0030232034623622,6.33697365552783,-0.001480221748352
2025-04-30 01:06:58.128864800,1.87686474609375,-0.0641274155377409,-0.0103018376976251,-0.0309076790496113,0.0543590746819973,0.0131636102194184,0.9388740494543908,0.0046267121450197,left,-0.0006719827651977,-0.6999293067822819,-0.4806891017030924,-7.4855691056340925,-0.3426177896635871,0.0757105723023414,0.0088519491255283,6.317085298231244,-0.0051153302192687
2025-04-30 01:06:58.168864800,1.91686474609375,-0.0621855865752137,-0.0044073513709008,-0.02999575050849,0.067332237958908,0.0127564992527948,0.939390278558714,0.0045541886375976,left,0.0012470483779907,-0.6970871590351426,-0.4672663967566564,-7.504377851000428,-0.3412968107370784,0.0849761143326759,0.0101119577884674,6.295740896907448,-0.0071324706077575
2025-04-30 01:06:58.208865000,1.956864990234375,-0.0587354773227195,-0.003421236295253,-0.0284443638482786,0.0831746384501457,0.0122753095480148,0.94002598542963,0.0048815170641411,left,0.0050370693206787,-0.6936386240577798,-0.4426446177300066,-7.52757460219264,-0.3396932211191534,0.0744898468255996,0.0096581354737281,6.269774681001901,-0.0099431276321411
2025-04-30 01:06:58.248864800,1.99686474609375,-0.055593314364745,-0.0224626939743757,-0.0268956066188084,0.0506436005234718,0.0114865974504032,0.9404885111014336,0.004405269190872,left,0.0041321516036987,-0.6911849632538983,-0.419843149465695,-7.54426562475264,-0.338564877599619,0.0133404843509197,0.0101871490478515,6.251253520405292,-0.0037963986396789
2025-04-30 01:06:58.288864800,2.03686474609375,-0.0548322052240809,-0.024721335619688,-0.0263877601709653,0.0197296161204576,0.0109388558855977,0.9405210767720816,0.0035172358307884,left,0.0055621266365051,-0.6910816426566613,-0.4141363891914487,-7.545227747783064,-0.3385324019869593,-0.0050496999174356,0.0067200548946857,6.25047318368256,-0.0004498362541198
2025-04-30 01:06:58.328864800,2.07686474609375,-0.055267965828665,-0.0148768201470375,-0.0264328098586229,0.0026430133730173,0.0105888200090483,0.9403773105866328,0.0025930953559294,left,0.0045158267021179,-0.6919263456310198,-0.4171325022675097,-7.5397724049866195,-0.3389394315202718,-0.016248770058155,0.0052386112511157,6.25685382463038,0.001718521118164
2025-04-30 01:06:58.368864800,2.11686474609375,-0.0557049992744256,-0.0050323056057095,-0.0264778445860434,-0.014443589374423,0.0102388015473427,0.9402331232926174,0.0016678850329864,left,0.0034691095352172,-0.6927705211262362,-0.4201333645839243,-7.534312970536947,-0.3393463127948197,-0.0274478420615196,0.0037576705217361,6.263226282271742,0.0038877129554748
2025-04-30 01:06:58.408864800,2.15686474609375,-0.0561798103764075,-0.0040426482446491,-0.0266776954062873,-0.0227327942848205,0.0102762064955535,0.9400824321433636,0.0015523371725915,left,0.0033531188964843,-0.6936241373076564,-0.4234103038953617,-7.528771703022718,-0.3397466990401907,-0.0242041256278753,0.0021849162876605,6.26966537540853,0.006024420261383
2025-04-30 01:06:58.448864800,2.19686474609375,-0.0568484533066535,0.007900295779109,-0.0270271294625028,-0.0216277949512004,0.0105133227266326,0.939896636004097,0.0017861096602025,left,0.0012998580932617,-0.694657688455351,-0.4280758845536038,-7.522014045456052,-0.3402258152652588,-0.0190807394683361,0.0024538412690162,6.277455298632383,0.0071522593498229
2025-04-30 01:06:58.488865000,2.236864990234375,-0.0569270839949951,0.0021076360717415,-0.0271447989038071,-0.01343091763556,0.010754804660703,0.9398582386667842,0.0022657665519852,left,0.0039898753166198,-0.694861710719739,-0.4285944650676101,-7.520701209291816,-0.340314804657359,-0.015327388420701,0.00070745870471,6.278992591202258,0.0035982728004455
2025-04-30 01:06:58.528864800,2.27686474609375,-0.0570055538949675,-0.0036850236356258,-0.0272624573820242,-0.0052340412512421,0.010996326964146,0.9398198851818126,0.0027455937540715,left,0.0066797733306884,-0.6950659640080565,-0.4291115477442741,-7.5193872040838,-0.340403804141805,-0.0115740383043885,-0.0010391063988208,6.280531052815914,4.41074371337e-05
2025-04-30 01:06:58.568864800,2.31686474609375,-0.0570055538949675,-0.0050448114052414,-0.0272624573820242,-0.005017532967031,0.010996326964146,0.9398198851818126,0.0027455937540715,left,0.0024370551109313,-0.6950659640080565,-0.4291115477442741,-7.5193872040838,-0.340403804141805,-0.0058181514032185,-0.0032685659825801,6.280531052815914,0.0024967193603515
2025-04-30 01:06:58.608864800,2.35686474609375,-0.0570055538949675,0.0030108606442809,-0.0272624573820242,0.0130434120073914,0.010996326964146,0.9398198851818126,0.0027455937540715,left,-0.0045787692070007,-0.6950659640080565,-0.4291115477442741,-7.5193872040838,-0.340403804141805,0.0187420882284641,-0.0034668110311031,6.280531052815914,0.000658094882965
2025-04-30 01:06:58.648864800,2.39686474609375,-0.0564293774690956,0.0088800508528947,-0.0271041597814974,0.0212450455874204,0.0111964740501066,0.939910925032959,0.0033942954801747,left,-0.0047239661216735,-0.6945556736881595,-0.4249596887618303,-7.522831791579723,-0.3401583867076171,0.0203276854008436,-0.0030408538877964,6.276687236869335,0.0030062198638916
2025-04-30 01:06:58.688864800,2.43686474609375,-0.0558141538015137,0.0086347591131925,-0.0269306754824676,0.0122192800045013,0.0113893645100132,0.940076455037928,0.0040531246979633,left,-0.0040323734283447,-0.6936088806995953,-0.4206626856876537,-7.529021878391504,-0.3397079652003179,0.0259514693170785,-0.0010753609240055,6.269550224596261,0.0024672746658325
2025-04-30 01:06:58.728865000,2.476864990234375,-0.0553549581311335,-0.0014567095786333,-0.0267799880016123,0.0034179966896772,0.0114673228508356,0.940261993403672,0.0044136539138931,left,0.0008028745651245,-0.6925400536085157,-0.4175758621208369,-7.535900531989336,-0.3392033007023251,0.024457873776555,-0.0002715438604354,6.261486745128035,-0.0022359490394592
2025-04-30 01:06:58.768864800,2.51686474609375,-0.0556407436890739,-0.0056941155344247,-0.0268592326422435,0.0043308548629283,0.0113447737419201,0.9403937666828504,0.0040712389556207,left,-0.0004255175590515,-0.6917520356135952,-0.4200037833875045,-7.540705301922559,-0.3388357376416485,0.0242643449455499,0.0017067268490791,6.255537481334805,-0.0028163790702819
2025-04-30 01:06:58.808864800,2.55686474609375,-0.0559751165277124,-0.0051701120100915,-0.0269533348608885,0.003979479894042,0.0112031706937903,0.9405568531640358,0.0036763039599409,left,-0.0021274089813232,-0.6907749324708584,-0.4228668812010437,-7.546662749022245,-0.3383797198711178,0.013411795720458,0.0016764402389526,6.248154969868064,-0.0010122060775756
2025-04-30 01:06:58.848864800,2.59686474609375,-0.0561436118768585,-0.0007789167575538,-0.0269933150829489,-0.0046753920614719,0.011121233716206,0.940565444617785,0.0034429915247013,left,-0.00290048122406,-0.6907193144811292,-0.424157980457507,-7.546939227876066,-0.338355715508903,-0.0106656551361083,0.0001726113259792,6.247734698629379,-0.0046664476394653
2025-04-30 01:06:58.888864800,2.63686474609375,-0.0561436118768585,0.0030014675576239,-0.0269933150829489,-0.0040651364251971,0.011121233716206,0.940565444617785,0.0034429915247013,left,-0.0040971636772155,-0.6907193144811292,-0.424157980457507,-7.546939227876066,-0.338355715508903,-0.0037068296223878,0.0003735311329364,6.247734698629379,-0.0037139654159545
2025-04-30 01:06:58.928864800,2.67686474609375,-0.0552464095264936,0.009167424403131,-0.0267183375528526,0.0084566734731197,0.011376006115872,0.9405871591358266,0.0043098007907649,left,-0.002579391002655,-0.690632847771682,-0.4174165068406611,-7.547855758199096,-0.3383084884381734,0.001833030488342,-0.0005093105137348,6.247081203156709,-0.0019809007644653
2025-04-30 01:06:58.968865000,2.716864990234375,-0.0543494154968886,0.0153333805501461,-0.0264433709858417,0.0209784843027591,0.0116307785155386,0.9406088736538686,0.0051764397344403,left,-0.0010620951652526,-0.6905459941149771,-0.4106754350826144,-7.548769365912675,-0.3382612512751005,0.0073728905990719,-0.001392126083374,6.246424200552702,-0.0002474784851074
2025-04-30 01:06:59.008864800,2.75686474609375,-0.0533786215184353,0.0054691452533006,-0.0260743043372706,0.0219820942729711,0.0117056363473587,0.9406531398766338,0.0056899656777794,left,0.0005983710289001,-0.6903415711227939,-0.4034150521581992,-7.55043876042962,-0.3381640483790595,0.0111386086791753,-0.000932652503252,6.24487872467637,-0.000411033630371
2025-04-30 01:06:59.048864800,2.79686474609375,-0.0525338999668011,-0.0029435828328132,-0.0256745866259556,0.0194822065532207,0.011547483182638,0.940734972629282,0.0056679533979765,left,-0.0001880526542663,-0.6899230066004783,-0.3971741119420156,-7.55338650431931,-0.337972364305196,0.008814426138997,0.0006524436175823,6.241713538643717,0.0026530027389526
2025-04-30 01:06:59.088864800,2.83686474609375,-0.0522128409342346,-0.0036630653776228,-0.0254996127449945,0.0133808571845293,0.0114157300389814,0.9408292021599548,0.0055164580436668,left,0.0001819729804992,-0.6893951022277303,-0.3949209261877462,-7.556803619286417,-0.3377277968997124,0.0107567654922604,0.0007880814373493,6.237719500571489,0.0018352270126342
2025-04-30 01:06:59.128864800,2.87686474609375,-0.0518918181339966,-0.0043825479224324,-0.0253246406055163,0.0072795082814991,0.0112839838612626,0.9409232632472004,0.0053648235246922,left,0.0005516409873962,-0.6888671780949027,-0.392665731139481,-7.5602172271221875,-0.3374831873833627,0.0126991048455238,0.0009234808385372,6.233723708933591,0.0010176301002502
2025-04-30 01:06:59.168864800,2.91686474609375,-0.0516995429476343,-0.0052329441532492,-0.0251903220742663,0.0041908961720764,0.011115729283321,0.941038213648284,0.0050925619842699,left,0.0006352663040161,-0.6882092528414238,-0.39142395091746,-7.564386621761321,-0.3371781448028924,0.016508612781763,-0.0001802965998649,6.2287418288677925,-0.0009155869483947
2025-04-30 01:06:59.208865000,2.956864990234375,-0.0520135960557382,-0.0217091254889965,-0.0252051920718977,0.0022419304586946,0.0107850544120977,0.9411392761054662,0.004292320008143,left,0.0005343556404113,-0.6876121291152395,-0.3939928515573963,-7.567976170685887,-0.3369055307162625,0.0095705371350049,0.0024817362427711,6.224217629441618,-0.0044428706169128
2025-04-30 01:06:59.248864800,2.99686474609375,-0.0523269546845508,-0.0381853096187114,-0.0252200747740999,0.0002929647453129,0.010454342654471,0.9412402104885944,0.0034926134897086,left,0.0004330873489379,-0.6870148894172763,-0.3965586834574118,-7.571563381522893,-0.3366328644264252,0.0026324614882469,0.0051434263586997,6.219690507405996,-0.0079697966575622
2025-04-30 01:06:59.288864800,3.03686474609375,-0.0540133332508188,-0.0329218953847885,-0.0256491613805414,0.0007701891008764,0.009720129412865,0.9412213210136284,0.0013280316951187,left,-0.000288188457489,-0.6870642586334679,-0.4093100284809246,-7.570577293094992,-0.3366751385345611,-0.0072154970839619,0.0043613798916339,6.220064601415396,-0.0048964619636535
2025-04-30 01:06:59.328864800,3.07686474609375,-0.0556999491588187,-0.0276584792882204,-0.0260782272881155,0.0012474134564399,0.0089858598132943,0.9412017542819888,-0.0008368565796833,left,-0.0010099411010742,-0.6871107573793822,-0.4220619945589453,-7.569587113013863,-0.33671714814369,-0.0170634537935256,0.0035794004797935,6.220417652636766,-0.0018208622932434
2025-04-30 01:06:59.368864800,3.11686474609375,-0.0571238036720492,-0.0117198918014764,-0.0264435425822035,-0.0061651994474232,0.0083994709184916,0.9410407052182967,-0.002618184663808,left,-0.0003054738044738,-0.6880019491469634,-0.4325228905577212,-7.563440865343809,-0.3371536942253645,-0.0345954336225986,0.0010312534868717,6.227171218550205,0.003128170967102
2025-04-30 01:06:59.408864800,3.15686474609375,-0.0572355289339049,0.0276946406811475,-0.0265063480373582,-0.0011886148713529,0.008492745259486,0.9407702050916156,-0.002506255445004,left,-0.0022225379943847,-0.6895941127222662,-0.4328002096617594,-7.553485288518667,-0.3379007243681173,-0.0439663380384445,1.47074460983e-05,6.239225228959322,0.0083913207054138
2025-04-30 01:06:59.448864800,3.19686474609375,-0.0555778277814011,0.0681719481945037,-0.0261648547598544,0.0028678588569164,0.0094981563532713,0.9403565037877328,0.0001570496294357,left,-0.0027773976325988,-0.6920968002017828,-0.4194095072887838,-7.5385776422441,-0.3390500795259452,-0.0469653159379959,-0.001735296100378,6.258140941831469,0.0097732543945312
2025-04-30 01:06:59.488865000,3.236864990234375,-0.0529477418568983,0.0796049982309341,-0.0255743874664057,0.0074781291186809,0.0108941631715733,0.9399870914625374,0.0040161627509599,left,0.0022680163383483,-0.6943568723987085,-0.3988314141623675,-7.5255112399220465,-0.3400760145011709,-0.038960438221693,-0.004230797290802,6.275189107266068,0.0042935013771057
2025-04-30 01:06:59.528864800,3.27686474609375,-0.051248014383609,0.0555204972624778,-0.0252621799677382,0.0043915435671806,0.0119765741994957,0.9397576234031082,0.0069005212648155,left,0.0010368227958679,-0.6957344134901657,-0.3855963407425209,-7.5175383613467215,-0.3406964791174299,-0.0319975838065147,-0.0039849132299423,6.285564370808005,0.0029813051223754
2025-04-30 01:06:59.568864800,3.31686474609375,-0.0495411027392737,0.0314360000193119,-0.0249499218497263,0.0013049582485109,0.0130590075514827,0.9395265955004994,0.009791361304113,left,-0.0001955032348632,-0.6971082710494781,-0.3723360232835635,-7.509553792333603,-0.3413163827171509,-0.0250347256660461,-0.0037416331470012,6.295899886861443,0.0016731619834899
2025-04-30 01:06:59.608864800,3.35686474609375,-0.048702086488723,0.0203321352601051,-0.0248077197859182,-0.0059404987841844,0.0136230518567185,0.93936705862831,0.0112759621137488,left,0.0041958689689636,-0.6980451194456548,-0.3657479866627603,-7.503968685677647,-0.3417436041162989,-0.0168294683098793,-0.0068142749369144,6.302941037544608,0.0012972950935363
2025-04-30 01:06:59.648864800,3.39686474609375,-0.0479374513298408,0.0278358645737171,-0.0246547594790835,0.0050610937178134,0.0140730910060804,0.9391898147720188,0.0124897045695369,left,-0.0049901008605957,-0.6990867334110532,-0.3596952624950558,-7.497684490841626,-0.3422231408412641,-0.030714925378561,-0.0054693669080734,6.3107631094723935,0.0069701075553894
2025-04-30 01:06:59.688864800,3.43686474609375,-0.0467776615831138,0.0421867370605468,-0.0243838733029997,0.0031380807049572,0.0146449647584602,0.9389133754566468,0.0140962065104899,left,-0.0018988251686096,-0.7007150676807975,-0.3505183418922126,-7.487821852996945,-0.3429763870257067,-0.0426444262266159,-0.0100771076977252,6.322977278879285,0.0079323053359985
2025-04-30 01:06:59.728865000,3.476864990234375,-0.0453227265781127,0.0518588051199913,-0.0241389890736442,-0.0095554552972316,0.01561263840261,0.938579863956024,0.0166510610716276,left,-0.0023872852325439,-0.7026453929453619,-0.3390700422912835,-7.476116802155971,-0.3438625827312463,-0.0446687676012516,-0.0127588137984275,6.337435427820682,-0.001533567905426
2025-04-30 01:06:59.768864800,3.51686474609375,-0.0448946491385491,-0.0064440928399562,-0.0242297709890226,-0.0192556604743003,0.016343527258974,0.9383863938708442,0.018344818253412,left,-0.0032128095626831,-0.7037204765000165,-0.3355636781381443,-7.469450914525985,-0.3443500480319105,-6.79269433021e-05,-0.0072803124785423,6.34547727997899,-0.0227048993110656
2025-04-30 01:06:59.808864800,3.55686474609375,-0.0475450419731761,-0.1110411137342453,-0.0249309976721357,0.0017185136675834,0.0153106079943631,0.9385533688381597,0.0151919954335184,left,-0.0051200985908508,-0.7027067131285164,-0.3556650205982848,-7.474957110726833,-0.343892066878794,0.0346804484724998,0.0032774247229099,6.337894277504086,-0.0179000496864318
2025-04-30 01:06:59.848864800,3.59686474609375,-0.0522960573920271,-0.1664797961711883,-0.0258604469874796,0.0095336865633726,0.0125420462105586,0.9388862672535312,0.007600437156422,left,0.0026856064796447,-0.7007256852263495,-0.3918299744350835,-7.485705883756279,-0.3430255020547185,0.0370758324861526,0.0074226073920726,6.323057358378172,-0.0037243962287902
2025-04-30 01:06:59.888864800,3.63686474609375,-0.0575089420730443,-0.1415155380964279,-0.0269068327184186,0.0007407683879137,0.0095437554280578,0.939231431647877,-0.0006292135401481,left,0.0028047561645507,-0.6985753429165432,-0.4316271107617765,-7.497119258174299,-0.3420955633958981,0.0380595736205577,0.0094329826533794,6.306923385179043,0.0109434723854064
2025-04-30 01:06:59.928864800,3.67686474609375,-0.0612500889698849,-0.0846093893051147,-0.0276849384678666,-0.0063530504703521,0.0074444364849444,0.9394722492456198,-0.0064125720503955,left,0.004058837890625,-0.6970103744507569,-0.4602754418907687,-7.505294381323456,-0.3414236146521879,0.0235879272222518,0.009871482849121,6.295163973802328,0.0106003284454345
2025-04-30 01:06:59.968865000,3.716864990234375,-0.0636651306795532,-0.0435733199119567,-0.0282878112550926,-0.0220088418573141,0.0063795788269492,0.9395169650879092,-0.0095439387530607,left,0.006268560886383,-0.6966137390398627,-0.4785585194151848,-7.506652225673198,-0.3412727702591996,-0.0030084569007158,0.0074119307100772,6.292180574077367,0.0060383081436157
2025-04-30 01:07:00.008864800,3.75686474609375,-0.0656290826343671,-0.0241391099989414,-0.0289227893198224,-0.0255303680896759,0.005951185439394,0.9393707177357083,-0.0111944886144989,left,0.0022140741348266,-0.6973359526155035,-0.4930020918419584,-7.501161227041482,-0.3416295429924066,-0.0281125120818614,0.0085658505558967,6.297611366954445,0.0010271072387695
2025-04-30 01:07:00.048864800,3.79686474609375,-0.0676921779608461,-0.0294784028083086,-0.0296257635666795,-0.032410018146038,0.0056364809691653,0.939077440135364,-0.0126714697860694,left,0.0015074014663696,-0.6989017622939464,-0.5078090907536447,-7.490280936586856,-0.3423803633147038,-0.0456968992948532,0.0076533667743206,6.309374869984388,-0.0015060305595397
2025-04-30 01:07:00.088864800,3.83686474609375,-0.0697684608171506,-0.0336531922221183,-0.030289092010702,-0.0205344669520854,0.0052165424707173,0.9387379651879832,-0.0143914579211636,left,-0.00227552652359,-0.7007297433416765,-0.5225549705952406,-7.477692088648676,-0.3432585393261699,-0.0438691340386867,0.0071154087781906,6.323087753516435,-0.0026175379753112
2025-04-30 01:07:00.128864800,3.87686474609375,-0.0704615156244403,-0.0154496673494577,-0.0304422546468417,-0.0060586966574192,0.0049339698021354,0.938461286596675,-0.0153064428565063,left,-0.0018880367279052,-0.7022948642022825,-0.5270399339895695,-7.467447173488139,-0.3440050246028313,-0.0355572178959846,0.0047600157558918,6.334812093579769,0.0001084804534912
2025-04-30 01:07:00.168864800,3.91686474609375,-0.0711574007381521,0.0027538575232028,-0.0305953763994292,0.0084170745685696,0.004651300406215,0.938183886896353,-0.0162242739297834,left,-0.0015023946762084,-0.7038593845035966,-0.531530998331122,-7.457184138149023,-0.3447512234543124,-0.0272453054785728,0.0024052448570728,6.346515975376963,0.0028365850448608
2025-04-30 01:07:00.208865000,3.956864990234375,-0.0706041764889992,0.0125787453725934,-0.0303709422837378,0.0088886125013232,0.0047018290880515,0.9379973768340372,-0.0159564162287036,left,0.0005804300308227,-0.7049877337672561,-0.5268999044643715,-7.450328865426778,-0.3452775590955546,-0.0209102816879749,0.0011419206857681,6.354947703635692,0.0027286410331726
2025-04-30 01:07:00.248864800,3.99686474609375,-0.0697625913424303,0.0136512108147144,-0.0301113085051725,0.0014670649543404,0.0049574038491261,0.937874226333698,-0.0151309538317105,left,0.0006980895996093,-0.705764315700073,-0.5202854912932962,-7.445844413489103,-0.3456312082285289,-0.0123507874086499,-0.0021718591451644,6.360746160781384,0.002634584903717
2025-04-30 01:07:00.288864800,4.03686474609375,-0.0697625913424303,0.0165979582816362,-0.0301113085051725,9.66342631727e-05,0.0049574038491261,0.937874226333698,-0.0151309538317105,left,0.0007345080375671,-0.705764315700073,-0.5202854912932962,-7.445844413489103,-0.3456312082285289,-0.0056977211497724,-0.0011522434651851,6.360746160781384,0.0029646754264831
2025-04-30 01:07:00.328864800,4.07686474609375,-0.0685524721617468,0.0243201907724142,-0.029816797810255,0.0085842385888099,0.0055177385167336,0.9377697112600196,-0.0135153304594492,left,0.0028186440467834,-0.7064499189698853,-0.5109759207541122,-7.442116332876682,-0.3459316144668202,-0.0020788654219359,-0.0037036202847957,6.36586189635992,-0.0012096166610717
2025-04-30 01:07:00.368864800,4.11686474609375,-0.0672901770767458,0.0230659525841474,-0.0294663331152316,0.0182869080454111,0.0059633855734027,0.9377435535847508,-0.0121077487731328,left,-0.0043627619743347,-0.7066862670300212,-0.5014801799930632,-7.441254163089394,-0.3460251725235611,-0.0010557263158261,-0.0022260211408138,6.367624814379215,-0.0020325183868408
2025-04-30 01:07:00.408864800,4.15686474609375,-0.0659403853318223,0.0098830619826912,-0.0289859277040164,0.0196835454553365,0.0061583913522562,0.9376926885190676,-0.0112075383371544,left,-0.000573456287384,-0.7070784657133424,-0.4912709937330335,-7.439431039315462,-0.3461999899916557,-0.0125499442219734,-0.0030647180974483,6.3705491773933165,-0.0008030533790588
2025-04-30 01:07:00.448864800,4.19686474609375,-0.0651793989599728,-0.0032496033236384,-0.0286533124265415,0.0121841412037611,0.0061088320062981,0.9376282927059988,-0.0110472850674094,left,0.0022891759872436,-0.7075116513269423,-0.4854297568915411,-7.437048528093099,-0.3464030547464656,-0.007773257791996,-0.0020220503211021,6.373778660833835,-0.0024601221084594
2025-04-30 01:07:00.488865000,4.236864990234375,-0.0646110264793121,-0.0083412639796733,-0.0283377569379607,0.019387574866414,0.0058858051576975,0.9375998762732062,-0.0113204486622285,left,-0.0010488629341125,-0.7077274584847182,-0.481113866453804,-7.435950795984268,-0.3465098043900768,-0.0060878354124724,-0.0015005581080913,6.375386680552363,0.0001441240310668
2025-04-30 01:07:00.528864800,4.27686474609375,-0.0641723361479724,-0.0119579909369349,-0.0280419498415926,0.0161120034754276,0.0055776786178586,0.9375545264061728,-0.0118260685658419,left,0.001016616821289,-0.7080332235252724,-0.4777266717009246,-7.434215350493789,-0.3466615256476127,-0.0085072228685021,0.0013936161994934,6.377664562356472,-0.0005673170089721
2025-04-30 01:07:00.568864800,4.31686474609375,-0.0642020661656829,-0.0187120307236909,-0.0279185399339178,0.0042138770222663,0.0052209740375462,0.9375138746831309,-0.0126064139513339,left,0.0013777017593383,-0.7082780297235772,-0.4778475216016173,-7.4326429866105315,-0.3467870835141479,-0.0044073783792555,0.0012134835124015,6.379488270652294,0.0006074905395507
2025-04-30 01:07:00.608864800,4.35686474609375,-0.0642020661656829,-0.0143313556909561,-0.0279185399339178,-0.0016121291555464,0.0052209740375462,0.9375138746831309,-0.0126064139513339,left,-0.000222623348236,-0.7082780297235772,-0.4778475216016173,-7.4326429866105315,-0.3467870835141479,-0.0021533230319619,0.0015886574983596,6.379488270652294,0.0007436871528625
2025-04-30 01:07:00.648864800,4.39686474609375,-0.0652243851408098,-0.0087433345615863,-0.0281661250483323,-0.0020752316340804,0.0047737462953622,0.9374956327810994,-0.0139401234784462,left,-0.0020074248313903,-0.7083195474232828,-0.4854285147825256,-7.431886030763387,-0.3468227058776582,0.0011264239437878,0.0016894713044166,6.379797482731938,0.0029223561286926
2025-04-30 01:07:00.688864800,4.43686474609375,-0.0656392452201714,-0.0004287455230951,-0.0282851219742299,-0.0055270991288125,0.0046374603435332,0.9375087259065932,-0.0143806857858171,left,-9.01222229003e-05,-0.7082165134116403,-0.4885548301095143,-7.432340204271673,-0.3467796333990323,0.0057608806528151,0.0002539940178394,6.37903000549078,0.0003949403762817
2025-04-30 01:07:00.728865000,4.476864990234375,-0.0656392452201714,0.0004447363899089,-0.0282851219742299,-0.0039999303407967,0.0046374603435332,0.9375087259065932,-0.0143806857858171,left,-0.0004715919494628,-0.7082165134116403,-0.4885548301095143,-7.432340204271673,-0.3467796333990323,0.0038580447435379,0.0003202185034751,6.37903000549078,-0.0004279613494873
2025-04-30 01:07:00.768864800,4.51686474609375,-0.0656392452201714,0.0013182184193283,-0.0282851219742299,-0.0024727613199502,0.0046374603435332,0.9375087259065932,-0.0143806857858171,left,-0.0008530616760253,-0.7082165134116403,-0.4885548301095143,-7.432340204271673,-0.3467796333990323,0.0019552088342607,0.0003864467144012,6.37903000549078,-0.0012508630752563
2025-04-30 01:07:00.808864800,4.55686474609375,-0.0656392452201714,0.0030671856366097,-0.0282851219742299,0.0007923755329102,0.0046374603435332,0.9375087259065932,-0.0143806857858171,left,-0.001563549041748,-0.7082165134116403,-0.4885548301095143,-7.432340204271673,-0.3467796333990323,-0.0008680447936058,0.0002902522683143,6.37903000549078,9.07778739929e-05
2025-04-30 01:07:00.848864800,4.59686474609375,-0.0656392452201714,0.0060314107686281,-0.0282851219742299,0.0018187013920396,0.0046374603435332,0.9375087259065932,-0.0143806857858171,left,0.0010050535202026,-0.7082165134116403,-0.4885548301095143,-7.432340204271673,-0.3467796333990323,-0.0050346450880169,-0.0018386505544185,6.37903000549078,-0.0006688833236694
2025-04-30 01:07:00.888864800,4.63686474609375,-0.0655357342213685,0.0106669384986162,-0.0283971666400258,-0.0022520192433148,0.0050424551473648,0.9375557194973408,-0.0134686900435816,left,0.0018950700759887,-0.7079406595032302,-0.4879007135823369,-7.434146376910805,-0.346637681490686,-0.0024365747813135,-0.002466507256031,6.376975411048531,0.0014775395393371
2025-04-30 01:07:00.928864800,4.67686474609375,-0.0655357342213685,0.0036481441929936,-0.0283971666400258,0.0011789060663431,0.0050424551473648,0.9375557194973408,-0.0134686900435816,left,0.0005058050155639,-0.7079406595032302,-0.4879007135823369,-7.434146376910805,-0.346637681490686,-0.0031393058598041,-0.0039156638085842,6.376975411048531,0.0011164546012878
2025-04-30 01:07:00.968865000,4.716864990234375,-0.0655357342213685,-0.0025601335801184,-0.0283971666400258,-0.0002769132843241,0.0050424551473648,0.9375557194973408,-0.0134686900435816,left,0.0002388358116149,-0.7079406595032302,-0.4879007135823369,-7.434146376910805,-0.346637681490686,0.0009608883410692,-0.0039913207292556,6.376975411048531,-9.35792922973e-05
2025-04-30 01:07:01.008864800,4.75686474609375,-0.0655357342213685,-0.0121935997158288,-0.0283971666400258,0.0131250200793147,0.0050424551473648,0.9375557194973408,-0.0134686900435816,left,-0.0028179287910461,-0.7079406595032302,-0.4879007135823369,-7.434146376910805,-0.346637681490686,0.0007546229753643,-0.0012268163263797,6.376975411048531,-0.002011239528656
2025-04-30 01:07:01.048864800,4.79686474609375,-0.0655357342213685,-0.0081714326515793,-0.0283971666400258,0.0152067281305789,0.0050424551473648,0.9375557194973408,-0.0134686900435816,left,0.0001448988914489,-0.7079406595032302,-0.4879007135823369,-7.434146376910805,-0.346637681490686,0.0062497844919562,0.0006374157965183,6.376975411048531,6.74724578857e-05
2025-04-30 01:07:01.088864800,4.83686474609375,-0.0648215642322404,-0.0023798029869794,-0.0279800924038232,0.0203726794570684,0.0046970632688685,0.9375628226203818,-0.0139422537734143,left,-0.0013933777809143,-0.7079640952168741,-0.4825816374514252,-7.434343360787629,-0.3466571009487117,-0.0119282780215144,0.0008710697293281,6.377149598571658,0.0013304352760314
2025-04-30 01:07:01.128864800,4.87686474609375,-0.06435348435733,-0.0092137604951858,-0.027673460086285,0.0121952472254633,0.0044123621967621,0.9374324727949228,-0.0144042434895065,left,0.0009093880653381,-0.7087601465524259,-0.4787750847753137,-7.429500012409687,-0.3470376911877853,-0.0249592624604702,-0.0013709776103496,6.3830784040987485,-0.001618206501007
2025-04-30 01:07:01.168864800,4.91686474609375,-0.0643232515928972,-0.0110691953450441,-0.0274925905857417,0.0206359606236219,0.0040072306707541,0.937222521077794,-0.0153002325235135,left,-0.0033334493637084,-0.7099842751144375,-0.4780478664793073,-7.421711258229613,-0.3476236927882779,-0.0369362346827983,0.0017668716609477,6.392187008705735,-0.0001835227012634
2025-04-30 01:07:01.208865000,4.956864990234375,-0.0639926380076194,-0.0163092277944087,-0.0271596885334712,0.028343653306365,0.0035313116268886,0.9369729006702364,-0.0162447607314499,left,-0.0029477477073669,-0.7114569583330256,-0.4749916207138449,-7.41246646002233,-0.3483271294921889,-0.0438213273882865,0.00391661003232,6.403132765612006,0.0003468394279479
2025-04-30 01:07:01.248864800,4.99686474609375,-0.063987525052653,-0.0327459499239921,-0.0269182592476597,0.0114293843507766,0.0029511895938716,0.9367143730381494,-0.0175339455888358,left,0.000869333744049,-0.7129544674992623,-0.4743400249373167,-7.402891406947374,-0.3490458860455255,-0.0278853233903646,0.0024175755679607,6.414248618388176,-0.0018398165702819
2025-04-30 01:07:01.288864800,5.03686474609375,-0.0666702305346138,-0.0650797337293624,-0.0276435916909188,-0.0387299358844757,0.0020197164273995,0.936584610607786,-0.0205431664858835,left,0.0085785388946533,-0.7135101196944665,-0.4939605250779539,-7.398034614565968,-0.3493437854249003,-0.0189204290509223,0.0018318779766559,6.418369497710466,0.0026238560676574
2025-04-30 01:07:01.328864800,5.07686474609375,-0.0695745469661274,-0.0355425365269184,-0.0286290419981014,-0.0330693796277046,0.0015527571090605,0.9364386244164908,-0.0226476491732377,left,0.0057445168495178,-0.71412380780306,-0.515170742095448,-7.392638308480381,-0.3496580733329157,-0.0073438361287117,0.0012065209448337,6.422918247056007,-0.000292420387268
2025-04-30 01:07:01.368864800,5.11686474609375,-0.0724821151031485,-0.0060053374618291,-0.0296144474245768,-0.0274088233709335,0.0010857658135375,0.936291371416528,-0.0247556680284139,left,0.0029069185256958,-0.714732862991887,-0.5363797170039266,-7.387206346559524,-0.3499719164646367,0.0042327577248215,0.0005810633301734,6.427430756044387,-0.0032049417495727
2025-04-30 01:07:01.408864800,5.15686474609375,-0.0727708960357745,0.0364609658718109,-0.0298897643050075,-0.0216109063476324,0.0015298293698746,0.9362229231883146,-0.0239299410313532,left,0.0034176707267761,-0.715097404347557,-0.5383426145747303,-7.3847139452219,-0.3501300247168561,-0.0198113657534122,0.00087171792984,6.4301300781309605,0.0089154243469238
2025-04-30 01:07:01.448864800,5.19686474609375,-0.0712321029398476,0.0605427622795105,-0.0296174098253354,-0.0024775229394435,0.0025152620367415,0.9360383345707896,-0.0212957932143102,left,0.0001411437988281,-0.7162688778292092,-0.526441931563802,-7.378014739844202,-0.3506405637393163,-0.0246727708727121,-0.0014425255358219,6.438799706798791,0.0058217048645019
2025-04-30 01:07:01.488865000,5.236864990234375,-0.0690464499523936,0.0617784522473812,-0.0291520067023488,0.0021043103188276,0.0036814946956242,0.935829163905288,-0.0180364259159557,left,0.0006678700447082,-0.7176176043762914,-0.5097153262337669,-7.370477330076694,-0.351227063205441,-0.0284277088940143,-0.0018832720816135,6.448769896671176,0.0042822360992431
2025-04-30 01:07:01.528864800,5.27686474609375,-0.0670728645377177,0.0461614467203617,-0.0287096607967473,0.0051575796678662,0.0046700481663686,0.935631332375533,-0.0152288621399924,left,0.0020906925201416,-0.7188745948969018,-0.4946244323467835,-7.363375389117002,-0.3517785236572471,-0.0133000118657946,-0.0017764903604984,6.458051519757509,-0.0013133287429809
2025-04-30 01:07:01.568864800,5.31686474609375,-0.0654673582291085,0.0333106741309165,-0.0283130230623044,0.0075462493114173,0.0053487959770412,0.935568497723268,-0.0131905357982469,left,0.0036261081695556,-0.7193333510206864,-0.4826079774690792,-7.361203305774927,-0.3519680576031807,-0.0039138533174991,-0.0021964572370052,6.461436486020684,0.0026597380638122
2025-04-30 01:07:01.608864800,5.35686474609375,-0.063865297447469,0.0386397279798984,-0.0279242161661835,0.0063806963153183,0.0060381181768813,0.9355263903385648,-0.0111256609236032,left,0.000331163406372,-0.7196680030908907,-0.4706762782653793,-7.359809221068025,-0.3521000721238703,-0.0104470560327172,-0.0014450065791606,6.463904921960831,0.0045992136001586
2025-04-30 01:07:01.648864800,5.39686474609375,-0.062390448839627,0.0347193367779254,-0.027568517083378,0.0065677207894623,0.0066931339027232,0.9354090863574236,-0.0091949152958691,left,-0.0017802715301513,-0.7204154116764071,-0.4595197646852582,-7.3556708060890434,-0.3524275603103272,-0.017090830951929,-0.0004603192210197,6.469415209814906,0.0004270672798156
2025-04-30 01:07:01.688864800,5.43686474609375,-0.0610954517157006,0.025531206279993,-0.0272477764948149,0.0023848335258662,0.0072408821514356,0.9353192366134804,-0.0075543861961027,left,0.0007432699203491,-0.7209938679930826,-0.4497652633901685,-7.352523155713081,-0.3526800904630479,-0.0033942442387342,-0.0023449100553989,6.4736775434345,-0.0036498308181762
2025-04-30 01:07:01.728865000,5.476864990234375,-0.0604494564597612,0.0167569797486066,-0.0271370313015819,0.0022032081615179,0.0076325040973053,0.935334630572895,-0.0064715070245371,left,-0.0024785995483398,-0.7209337862105297,-0.4450390020532533,-7.353200616583227,-0.3526396551818338,0.006544561125338,-0.0002710856497287,6.473234475842118,-0.0032917261123657
2025-04-30 01:07:01.768864800,5.51686474609375,-0.0599230915037741,-0.0077080354094505,-0.0269061479648874,0.0242122765630483,0.0075513013032166,0.9354978526516312,-0.0064190068369846,left,-0.0106078386306762,-0.7200457486122139,-0.441512508427538,-7.359168585076928,-0.3522256681946785,0.0187747813761234,-0.0018869526684284,6.4666901687651865,-0.0066969990730285
2025-04-30 01:07:01.808864800,5.55686474609375,-0.0593972647776537,-0.0321730487048625,-0.0266752663696783,0.0462213456630706,0.0074700616227238,0.9356609466563132,-0.0063672654826951,left,-0.0187379121780395,-0.7191579155306687,-0.4379834575185552,-7.3651283702641726,-0.351811639096659,0.031004998832941,-0.0035030916333198,6.460142354556917,-0.0101017355918884
2025-04-30 01:07:01.848864800,5.59686474609375,-0.0586851634381414,-0.0661635398864746,-0.0259490445724614,0.0748712196946144,0.0062566121364819,0.935902079722876,-0.0086537745659483,left,-0.0125530958175659,-0.717883373102165,-0.4332212115528062,-7.373652452981472,-0.3512478558945528,0.0265637040138244,-0.0034195147454738,6.450733305698633,-0.0113765597343444
2025-04-30 01:07:01.888864800,5.63686474609375,-0.0586429527811061,-0.0874546617269516,-0.0251566586444258,0.0841195955872535,0.0041476320262541,0.9361194659394766,-0.0131075262665183,left,-0.0033305883407592,-0.7167125845957931,-0.4333522905865684,-7.381205060318112,-0.3507570125614809,0.0184914693236351,0.0002850852906703,6.442081212687492,-0.0120173692703247
2025-04-30 01:07:01.928864800,5.67686474609375,-0.0577548681131321,-0.0788792893290519,-0.0240033623460414,0.0721203759312629,0.0020260178182248,0.9361252043551472,-0.0173096188205888,left,0.004473865032196,-0.716778844010949,-0.4267723276743665,-7.381160052132606,-0.3508410553752935,-0.0092004872858524,-0.0012537240982055,6.442571042031049,-0.0043115615844726
2025-04-30 01:07:01.968865000,5.716864990234375,-0.0568671641666755,-0.0703039169311523,-0.0228499373431002,0.0601211562752723,-9.56261449464e-05,0.9361255421322662,-0.0215119403008171,left,0.0122758150100708,-0.7168481258602755,-0.4201945201866328,-7.381091078549623,-0.3509231102711098,-0.0368924438953399,-0.0027923211455345,6.443083083206415,0.0033919811248779
2025-04-30 01:07:02.008864800,5.75686474609375,-0.0565975066115622,-0.0269304178655147,-0.0222082604766552,0.035551231354475,-0.0014477874609679,0.9358468138418652,-0.0243522851324441,left,0.0068549513816833,-0.7184483108008294,-0.4176203588496893,-7.370900523924827,-0.3517037220955339,-0.0609413608908653,-0.0001310557126998,6.454905038425326,0.0112442970275878
2025-04-30 01:07:02.048864800,5.79686474609375,-0.0555308508633431,0.0250838361680507,-0.0216756406398208,0.0147619843482971,-0.0016185855610152,0.9354285939810376,-0.0243955294791587,left,0.0067738890647888,-0.7208931944776488,-0.408880770218186,-7.355562085017562,-0.3528468605652319,-0.0595422461628913,-0.0017075985670089,6.472935785156488,0.0115713477134704
2025-04-30 01:07:02.088864800,5.83686474609375,-0.0538090070971061,0.05490293353796,-0.0212239153207111,0.0045393193140625,-0.0008925651950432,0.9350509208323028,-0.022263917047253,left,0.0019043087959289,-0.7231469808892375,-0.3954294602317735,-7.34166975326538,-0.3538765611256207,-0.0483682639896869,-0.0018494725227355,6.489522762820124,0.014531672000885
2025-04-30 01:07:02.128864800,5.87686474609375,-0.0517098008549449,0.0654877424240112,-0.0207973317076533,-0.0025801523588597,0.0002784951889151,0.9347148106107628,-0.0190244498294668,left,-1.25765800476e-05,-0.7251743985836548,-0.3793361113039776,-7.329329327130317,-0.3547897061083942,-0.0391807071864604,-0.0019443370401859,6.504415796047449,0.0130230784416198
2025-04-30 01:07:02.168864800,5.91686474609375,-0.0494605737336331,0.0599919073283672,-0.020334114306808,0.0036964146420359,0.0014784320876937,0.9344780963198892,-0.0156436523157647,left,0.0013861656188964,-0.7266312020870968,-0.3623809579150751,-7.320691847166419,-0.3554365752933343,-0.0233796052634716,-9.710714221e-05,6.51510027166903,0.00648033618927
2025-04-30 01:07:02.208865000,5.956864990234375,-0.047306098703392,0.0388454720377922,-0.0198038221115792,0.0127324033528566,0.0023759698179047,0.9343380456811732,-0.0129266738679743,left,0.0022943615913391,-0.7275263425413075,-0.3463319595856592,-7.315627549514174,-0.3558295559573552,-0.0126596745103597,-0.0003146529197692,6.521658607271314,0.0021827220916748
2025-04-30 01:07:02.248864800,5.99686474609375,-0.0458858928217325,0.0204566307365894,-0.0194082344777266,0.0097909104079008,0.0028427152836701,0.934253577943322,-0.0114003510137635,left,0.0034697651863098,-0.7280685259944986,-0.3357796955090016,-7.312578683337569,-0.3560696895039802,-0.0063676792196929,0.0021661445498466,6.525628679946065,0.0004382729530334
2025-04-30 01:07:02.288864800,6.03686474609375,-0.0450135078169987,0.0103250779211521,-0.0191475730004213,0.0051310057751834,0.0030815587917985,0.9342055381653268,-0.0105641780158971,left,0.0025104880332946,-0.7283791346834517,-0.3293089651249349,-7.310843822368979,-0.3562079736494682,-0.0020417538471519,0.0012288838624954,6.527901885575056,0.0024232864379882
2025-04-30 01:07:02.328864800,6.07686474609375,-0.0450135078169987,0.015732754021883,-0.0191475730004213,-0.0012090532109141,0.0030815587917985,0.9342055381653268,-0.0105641780158971,left,0.0018958449363708,-0.7283791346834517,-0.3293089651249349,-7.310843822368979,-0.3562079736494682,-0.0009171903366222,0.0024834387004375,6.527901885575056,0.0042401552200317
2025-04-30 01:07:02.368864800,6.11686474609375,-0.044080795952393,0.0286361873149871,-0.0190141187029433,-0.0092352787032723,0.0037090531825977,0.9342049550163732,-0.0088660488427178,left,0.0023127198219299,-0.7284157279171314,-0.3224793748332187,-7.310908704298734,-0.3562104799768034,0.0025854627601802,0.002888698130846,6.528170181122422,0.0021590590476989
2025-04-30 01:07:02.408864800,6.15686474609375,-0.0435402788892849,0.0250009726732969,-0.0190642557379291,-0.0157283265143632,0.0044019694491043,0.9342381239735804,-0.0071724353530587,left,0.0006103515625,-0.7282392364271281,-0.3185778008174151,-7.312233230900764,-0.3561130018019502,0.0065734260715544,0.0024202410131692,6.526878387746215,-0.0012548565864562
2025-04-30 01:07:02.448864800,6.19686474609375,-0.0434050195533744,0.0186040662229061,-0.0192410904156351,-0.0177280921489,0.0050034223660076,0.934266455912756,-0.0058294220117568,left,-0.0001977682113647,-0.7280693022595506,-0.3176368667054921,-7.313384154501555,-0.3560211006394975,0.0045996778644621,0.0028323177248239,6.5256345251649615,-0.0050039887428283
2025-04-30 01:07:02.488865000,6.236864990234375,-0.0433071677093216,0.0144885694608092,-0.0193559357459028,-0.0039995098486542,0.0054014693589432,0.934309070438544,-0.0049344359819002,left,-0.0001065135002136,-0.72782177014031,-0.3169911526804789,-7.315028414577245,-0.3558971079082513,0.0076987068168818,0.0030165910720825,6.523821922785043,-0.0038070082664489
2025-04-30 01:07:02.528864800,6.27686474609375,-0.0430752016435158,0.0128088789060711,-0.019352171358855,0.0025136731564998,0.0056237997019675,0.9343941096789486,-0.0043595413044077,left,-0.0023722648620605,-0.7273475977323663,-0.3154275200929493,-7.318191847044229,-0.3556706516547634,0.0038758001755923,0.0021103173494338,6.520349862760305,-4.4047832489e-05
2025-04-30 01:07:02.568864800,6.31686474609375,-0.0428437298167568,0.0111291883513331,-0.0193484179348919,0.0090268570929765,0.0058461335279611,0.9344790646976388,-0.0037850399310412,left,-0.004638135433197,-0.7268734128037025,-0.3138659333320334,-7.321352941423654,-0.3554441853089281,5.28937671333e-05,0.0012042894959449,6.516875464648008,0.0037190914154052
2025-04-30 01:07:02.608864800,6.35686474609375,-0.0421577540082759,0.0191757436841726,-0.0191744444382063,-0.0006114970892667,0.0061106215461586,0.9344739308605804,-0.0029591828470661,left,0.0035139918327331,-0.7269253480225235,-0.3088293274043128,-7.3212284382611506,-0.3554625640476235,-0.003821296384558,-0.0025925859808921,6.517255988398194,0.0031976103782653
2025-04-30 01:07:02.648864800,6.39686474609375,-0.0417690636493665,0.0194399356842041,-0.0191774683680185,-0.0116558531299233,0.0065259197834091,0.934482921942544,-0.0019214676503018,left,0.0016266703605651,-0.7268769789659433,-0.3059967708595097,-7.321662153503298,-0.3554312628628991,0.0010191283654421,-0.0010808259248733,6.516901768133044,0.0006537437438964
2025-04-30 01:07:02.688864800,6.43686474609375,-0.041659869710043,0.0161917563527822,-0.0192996458231122,-0.0098973410204052,0.0069616194838315,0.9344830968416156,-0.0009471613721494,left,9.04202461242e-05,-0.7268638333724038,-0.3052008712414651,-7.321781980490684,-0.3554160887967783,0.0008542010909877,-0.0004375390708446,6.516805322021246,-0.000239610671997
2025-04-30 01:07:02.728865000,6.476864990234375,-0.0415583746646271,0.0182426795363426,-0.0194041530374683,-0.0056334864348173,0.0073412012185352,0.9344979085139832,-9.41946225185e-05,left,-0.0013936161994934,-0.7267688888313527,-0.3044834619534202,-7.322430799788236,-0.3553638328889157,0.0042636012658476,-0.0033357478678226,6.516109740972518,1.80006027221e-05
2025-04-30 01:07:02.768864800,6.51686474609375,-0.0414553705479063,0.0119636114686727,-0.0195152387171407,-0.014603653922677,0.0077401088346626,0.9345095120298618,0.0008003312263302,left,-0.0001465678215026,-0.7266902357867638,-0.3037504532374441,-7.3229744051456445,-0.3553187670235796,-0.0010306653566658,-0.0078328046947717,6.515532817867398,0.0007951855659484
2025-04-30 01:07:02.808864800,6.55686474609375,-0.0414553705479063,0.0062542152591049,-0.0195152387171407,-0.0073834005743265,0.0077401088346626,0.9345095120298618,0.0008003312263302,left,-0.0029208660125732,-0.7266902357867638,-0.3037504532374441,-7.3229744051456445,-0.3553187670235796,0.0012190900743007,-0.0065615084022283,6.515532817867398,6.62803649902e-05
2025-04-30 01:07:02.848864800,6.59686474609375,-0.0414553705479063,0.0021306020207703,-0.0195152387171407,0.0079025765880942,0.0077401088346626,0.9345095120298618,0.0008003312263302,left,-0.0035315752029418,-0.7266902357867638,-0.3037504532374441,-7.3229744051456445,-0.3553187670235796,0.0038822432979941,-0.0038744416087865,6.515532817867398,-0.0019450783729553
2025-04-30 01:07:02.888864800,6.63686474609375,-0.0414553705479063,-0.0058570890687406,-0.0195152387171407,0.0080365259200334,0.0077401088346626,0.9345095120298618,0.0008003312263302,left,-0.0009962916374206,-0.7266902357867638,-0.3037504532374441,-7.3229744051456445,-0.3553187670235796,0.0083588529378175,-0.0024189595133066,6.515532817867398,-0.003942847251892
2025-04-30 01:07:02.928864800,6.67686474609375,-0.0414553705479063,0.0012788856402039,-0.0195152387171407,0.0096972687169909,0.0077401088346626,0.9345095120298618,0.0008003312263302,left,0.0010745525360107,-0.7266902357867638,-0.3037504532374441,-7.3229744051456445,-0.3553187670235796,-0.0036454200744628,-0.0010806526988744,6.515532817867398,0.0003596544265747
2025-04-30 01:07:02.968865000,6.716864990234375,-0.0414553705479063,0.0115728294476866,-0.0195152387171407,0.0032979240640997,0.0077401088346626,0.9345095120298618,0.0008003312263302,left,0.0011055469512939,-0.7266902357867638,-0.3037504532374441,-7.3229744051456445,-0.3553187670235796,-0.0127620426937937,-0.0003660265356302,6.515532817867398,0.0011876821517944
2025-04-30 01:07:03.008864800,6.75686474609375,-0.0405038028489571,0.0199780985713005,-0.0192511586784313,0.0031243674457073,0.008051874746325,0.934454617146601,0.0018226278607825,left,-0.0006167292594909,-0.7270283803004483,-0.2966927898108959,-7.321058342391252,-0.3554706086845762,-0.0132866343483328,0.0005611442029476,6.518011190679669,0.004010260105133
2025-04-30 01:07:03.048864800,6.79686474609375,-0.0395656890448038,0.017396755516529,-0.0190184934730148,0.0020085321739315,0.0084329238146834,0.9343809054506764,0.0029866239301289,left,0.0001348257064819,-0.7274660766946448,-0.2897117900834419,-7.3184817699015134,-0.3556678622407215,-0.0074084778316318,-0.0003336053341627,6.5212172932446,0.0020282864570617
2025-04-30 01:07:03.088864800,6.83686474609375,-0.03859660307618,0.0191309265792369,-0.0187470303060871,0.008710017427802,0.0087380994735671,0.9343711268098802,0.0040071941793966,left,0.0008413195610046,-0.7275479785673498,-0.2825987980067729,-7.318225164791941,-0.3557006432345985,0.0019981679506599,-0.0002785790711641,6.521817012703418,0.0026614665985107
2025-04-30 01:07:03.128864800,6.87686474609375,-0.0380093494977412,0.0108052818104624,-0.0185943214323147,0.0019387970678508,0.0089480714060755,0.9344367570411244,0.0046866239056409,left,0.0018320679664611,-0.7271928432591668,-0.2783891078898683,-7.320704122126102,-0.3555309748135439,0.0060017951764166,0.0007671117782592,6.519215890294313,0.0001428127288818
2025-04-30 01:07:03.168864800,6.91686474609375,-0.0374225709648935,0.0024796379730105,-0.0184416125585398,-0.0048324237577617,0.0091580871909256,0.9345023469029952,0.0053656698085211,left,0.0028226375579833,-0.7268375526788857,-0.2741800753600895,-7.323180741372704,-0.3553613063924875,0.0100054219365119,0.0018128715455532,6.516612429797649,-0.0023756027221679
2025-04-30 01:07:03.208865000,6.956864990234375,-0.0374225709648935,-0.0082062492147088,-0.0184416125585398,-0.0053994618356227,0.0091580871909256,0.9345023469029952,0.0053656698085211,left,-0.000129759311676,-0.7268375526788857,-0.2741800753600895,-7.323180741372704,-0.3553613063924875,0.0146706430241465,0.0034991297870874,6.516612429797649,-0.0046616792678833
2025-04-30 01:07:03.248864800,6.99686474609375,-0.0377381517296847,-0.0060795219615101,-0.018551718459365,-0.0036330763250589,0.0091027495035437,0.934667440099936,0.0051440644643875,left,0.0026823878288269,-0.725896563449869,-0.2767223254551179,-7.329217683449387,-0.354922233041387,0.0132261617109179,0.0025744549930095,6.509713902455568,-0.0063523650169372
2025-04-30 01:07:03.288864800,7.03686474609375,-0.0378769411433402,-0.0038896400947123,-0.0185765425156438,0.0020618746057152,0.0090145203208755,0.9347598418243136,0.0049119660528964,left,-0.0019092559814453,-0.72537507815867,-0.2778680796904489,-7.332571085530519,-0.3546799909918478,0.0060178767889738,0.0058994311839342,6.505888206687569,-0.0029281973838806
2025-04-30 01:07:03.328864800,7.07686474609375,-0.0378769411433402,0.0044479286298155,-0.0185765425156438,0.0009715786436572,0.0090145203208755,0.9347598418243136,0.0049119660528964,left,-0.0011717677116394,-0.72537507815867,-0.2778680796904489,-7.332571085530519,-0.3546799909918478,-0.0015184106305241,0.0049858149141073,6.505888206687569,-0.0010304450988769
2025-04-30 01:07:03.368864800,7.11686474609375,-0.0378769411433402,0.0117043107748031,-0.0185765425156438,-0.0042256289161741,0.0090145203208755,0.9347598418243136,0.0049119660528964,left,0.0016103386878967,-0.72537507815867,-0.2778680796904489,-7.332571085530519,-0.3546799909918478,-0.0010709590278565,0.0027236547321081,6.505888206687569,-0.0014533996582031
2025-04-30 01:07:03.408864800,7.15686474609375,-0.0371567131275788,0.0124703245237469,-0.0184502920402461,-0.0061303274706006,0.0094422116796394,0.9347476212377802,0.0060990115990948,left,0.0011079907417297,-0.7254501803415268,-0.2725687129070051,-7.332280578151344,-0.354707461665964,-0.0006427827756851,0.0013393871486186,6.506439410829544,-0.0011113882064819
2025-04-30 01:07:03.448864800,7.19686474609375,-0.036530604078524,0.0151943797245621,-0.0183295133607115,-0.0020231087692081,0.0097850555158805,0.9347337900315094,0.007068728496132,left,0.0002887845039367,-0.7255341991405003,-0.2679578763769939,-7.331902977010607,-0.3547408322208907,-0.0006689659203402,-0.0001217778772115,6.507056081423163,-0.0001931190490722
2025-04-30 01:07:03.488865000,7.236864990234375,-0.0355595659329537,0.0265327859669923,-0.0181268585658154,-0.0064425179734826,0.0102764531820406,0.934706023182862,0.0084859674664886,left,0.0017091631889343,-0.7257008414189491,-0.2607996569191105,-7.33107646305859,-0.3548106479901459,-0.005752183496952,-0.0026607494801282,6.508278316694498,0.0050443410873413
2025-04-30 01:07:03.528864800,7.27686474609375,-0.0345421792971839,0.0333697982132434,-0.0179859717895079,-0.0091085750609636,0.0109807795613237,0.9346377079793164,0.0103733974441469,left,0.000302255153656,-0.7260806943719713,-0.2532555799487978,-7.328866385793685,-0.3549765586883848,-0.0070481514558196,-0.0027140341699123,6.511064148020744,0.0023747086524963
2025-04-30 01:07:03.568864800,7.31686474609375,-0.0336503254091736,0.0288753751665353,-0.0178765606228243,-0.0048025967553257,0.0116327916908064,0.9346113948092524,0.0121053313846345,left,-0.0016560554504394,-0.7262194131973765,-0.24668884184435,-7.32818717135787,-0.3550308580410086,0.0021551810204982,-0.0012556221336126,6.512081800630688,-0.0009384751319885
2025-04-30 01:07:03.608864800,7.35686474609375,-0.0328573417294714,0.017545286566019,-0.0177339210424189,-0.0003112000413239,0.0120901324841047,0.934667639881898,0.0133896823568235,left,-0.0022096633911132,-0.7258985610114758,-0.2409462430717423,-7.330467391249537,-0.3548742398062065,0.0134394271299242,-0.0024352520704269,6.50972851550281,-0.001075804233551
2025-04-30 01:07:03.648864800,7.39686474609375,-0.0327768311453137,-0.0005305483937263,-0.0177663537248894,-0.0061673619784414,0.0122565439934206,0.9347869813533948,0.0137857315648294,left,-0.0017671585083007,-0.7252168690273809,-0.2405014401799999,-7.334920863527059,-0.3545525656859279,0.0173478070646524,-0.0018840432167053,6.504727346214652,-0.0019176006317138
2025-04-30 01:07:03.688864800,7.43686474609375,-0.0330130502833218,-0.0042445268481969,-0.0178545752750842,-0.0014492669142782,0.0122359126782229,0.9349084585066686,0.0136616361662152,left,-0.0017088055610656,-0.7245245125837663,-0.242382687349338,-7.339363814410567,-0.3542285480372045,0.0151806492358446,-0.0019950345158576,6.499644343861937,-0.0011781454086303
2025-04-30 01:07:03.728865000,7.476864990234375,-0.0331661868293971,-0.0028729517944157,-0.0178846824819189,-0.0008739790064282,0.0121509909624335,0.9349841238578332,0.0134279381590865,left,-0.0011009573936462,-0.7240977187796717,-0.2435985659451224,-7.342098207810521,-0.354030173201278,0.0109250219538807,-0.0015722047537565,6.496510137489437,-0.0005978941917419
2025-04-30 01:07:03.768864800,7.51686474609375,-0.0331661868293971,-0.0015013765078037,-0.0178846824819189,-0.0002986910985782,0.0121509909624335,0.9349841238578332,0.0134279381590865,left,-0.0007720589637756,-0.7240977187796717,-0.2435985659451224,-7.342098207810521,-0.354030173201278,0.0066693946719169,-0.0012733489274978,6.496510137489437,-0.0003372430801391
2025-04-30 01:07:03.808864800,7.55686474609375,-0.0333204780031167,-0.0009148253593593,-0.0179135583795354,-0.0001819997851271,0.0120621846292126,0.9350374403657704,0.0131838103306361,left,-0.0011239051818847,-0.7237971530127962,-0.2447964156938716,-7.344011932477355,-0.3538908983816625,0.004063825123012,-0.0012378674000501,6.4943018137902015,0.000518262386322
2025-04-30 01:07:03.848864800,7.59686474609375,-0.0333204780031167,-0.0003282742109149,-0.0179135583795354,-6.53084644e-05,0.0120621846292126,0.9350374403657704,0.0131838103306361,left,-0.0016708374023437,-0.7237971530127962,-0.2447964156938716,-7.344011932477355,-0.3538908983816625,0.0014582553412765,-0.0013245325535535,6.4943018137902015,0.0011485815048217
2025-04-30 01:07:03.991485000,7.73948486328125,-0.0340336688306375,-0.0007391050457954,-0.0180857075444328,2.10328726097e-05,0.0117569076418266,0.9351669720178676,0.0122717502099091,left,-0.00492490734905,-0.7230594686045748,-0.2501969778294675,-7.348620887577534,-0.3535499350251032,0.0043042725883424,0.0004737783456221,6.48887920421958,0.0020324969664216
2025-04-30 01:07:04.031485000,7.77948486328125,-0.0340336688306375,-0.0003067478246521,-0.0180857075444328,0.004532016813755,0.0117569076418266,0.9351669720178676,0.0122717502099091,left,-0.0043529272079467,-0.7230594686045748,-0.2501969778294675,-7.348620887577534,-0.3535499350251032,-0.0005084490403532,7.23581761121e-05,6.48887920421958,0.0021901130676269
2025-04-30 01:07:04.071485000,7.81948486328125,-0.0340336688306375,0.0001256093673873,-0.0180857075444328,0.0090430006384849,0.0117569076418266,0.9351669720178676,0.0122717502099091,left,-0.0037809610366821,-0.7230594686045748,-0.2501969778294675,-7.348620887577534,-0.3535499350251032,-0.0053211702033877,-0.0003290623426437,6.48887920421958,0.002347707748413
2025-04-30 01:07:04.111484700,7.859484619140625,-0.0340336688306375,-0.0012370663462206,-0.0180857075444328,0.0024806153960525,0.0117569076418266,0.9351669720178676,0.0122717502099091,left,0.0005281567573547,-0.7230594686045748,-0.2501969778294675,-7.348620887577534,-0.3535499350251032,-0.0073041738942265,-0.0013269465416669,6.48887920421958,0.0015252828598022
2025-04-30 01:07:04.272030500,8.020030517578125,-0.033718509876851,0.0013580571394413,-0.0180009559557964,-0.0038623062428086,0.0118680341224346,0.9351359652757804,0.0126259631397517,left,-0.0013616296928375,-0.723238749484544,-0.2478417564728297,-7.347536599472165,-0.3536324515730379,-0.001520444988273,0.0006463771569542,6.490197301080823,0.0012421181891113
2025-04-30 01:07:04.312030500,8.060030517578125,-0.0339026462235092,0.0048987562768161,-0.018109140360799,-0.0041373101994395,0.0119578986673845,0.9351621228954288,0.012750873480764,left,-0.0003733038902282,-0.7230774110447172,-0.2492301968902349,-7.348537300947308,-0.3535547743639469,0.0123568577691912,0.0017130523920059,6.489011306166648,-0.0012945532798767
2025-04-30 01:07:04.352030500,8.100030517578125,-0.0340648749500786,0.004939813632518,-0.0182096479821815,-0.0037385064642876,0.0120479746207269,0.9352586503046372,0.0128903428951724,left,-0.0007022023200988,-0.7225185693419554,-0.250545809533447,-7.352119835609197,-0.3532911855778896,0.0097186779603362,0.0012130104005336,6.484900948238373,-0.0008869767189025
2025-04-30 01:07:04.392030700,8.14003076171875,-0.0342271051032501,0.0049808709882199,-0.0183101463819621,-0.0033397029619663,0.0121380540570377,0.9353550934921324,0.0130298832323566,left,-0.0010313987731933,-0.7219597562855401,-0.2518625181552023,-7.355700032183527,-0.353027564773314,0.0070804986171424,0.0007130745798349,6.480789421266317,-0.0004791617393493
2025-04-30 01:07:04.432030700,8.18003076171875,-0.0342271051032501,0.0050219288095831,-0.0183101463819621,-0.0029408992268145,0.0121380540570377,0.9353550934921324,0.0130298832323566,left,-0.0017256140708923,-0.7219597562855401,-0.2518625181552023,-7.355700032183527,-0.353027564773314,0.0044423192739486,7.88755714893e-05,6.480789421266317,-0.000490665435791
2025-04-30 01:07:04.472030700,8.22003076171875,-0.0341429074942033,0.0067944610491395,-0.0183750044354229,-0.0035841392818838,0.0123949469230785,0.9354754770944482,0.0136210842662135,left,0.0011776685714721,-0.7212613703792758,-0.2513976223235018,-7.360242351788282,-0.3526960109522287,-0.0022922405041754,-0.0015450529754161,6.4756473822027445,-0.0009325742721557
2025-04-30 01:07:04.512030700,8.26003076171875,-0.0348856794755329,-0.0087183350697159,-0.0186278360817191,-0.0083219781517982,0.0122765950549579,0.9354333351945096,0.0130847340591197,left,0.0009309649467468,-0.7214804210103639,-0.2568150625286624,-7.358636670157312,-0.3527988261479285,-0.0054070372134447,-0.0009382758289575,6.477260662618279,-0.0007780790328979
2025-04-30 01:07:04.552030500,8.300030517578126,-0.0348856794755329,-0.0242311339825391,-0.0186278360817191,-0.0130598153918981,0.0122765950549579,0.9354333351945096,0.0130847340591197,left,0.000848114490509,-0.7214804210103639,-0.2568150625286624,-7.358636670157312,-0.3527988261479285,-0.0085218343883752,-0.0008839182555675,6.477260662618279,-0.0004591345787048
2025-04-30 01:07:04.592030500,8.340030517578125,-0.0368369685122133,-0.015768164768815,-0.0192473410566421,-0.0113442512229084,0.0118482077759023,0.935334881299486,0.0114245959690502,left,-0.0004466772079467,-0.7219894456884622,-0.2710518968695774,-7.354825002914667,-0.353040907046483,-0.0053380783647298,-0.0027148444205522,6.48100803245306,0.0008947253227233
2025-04-30 01:07:04.632030500,8.380030517578126,-0.0374174784104631,-0.0123787596821784,-0.0194081814863102,-0.0072159357368946,0.011657345059156,0.9353365637297244,0.0107977045780657,left,-0.0002254843711853,-0.7219692476011395,-0.2753263045194559,-7.354797530385851,-0.3530340916788687,-0.0003743679262697,-0.0013705790042877,6.48085897937119,0.0004515051841735
2025-04-30 01:07:04.672030700,8.42003076171875,-0.0374174784104631,-0.0089893545955419,-0.0194081814863102,-0.0030876197852194,0.011657345059156,0.9353365637297244,0.0107977045780657,left,-1.4305114746e-06,-0.7219692476011395,-0.2753263045194559,-7.354797530385851,-0.3530340916788687,0.0045893429778516,-0.0004621613770723,6.48085897937119,-6.8545341491e-06
2025-04-30 01:07:04.712030700,8.46003076171875,-0.0383142705699561,-0.0016431380063295,-0.0196785134052588,-0.0051539298146963,0.0114183620979959,0.9353706352065329,0.0099519213044277,left,-1.1920928955078125e-07,-0.721754196039483,-0.2819752958135679,-7.355939686158299,-0.3529366081010102,0.0068126572296023,-9.7472220659e-06,6.479276094093918,-1.1920928955078125e-07
2025-04-30 01:07:04.752030700,8.50003076171875,-0.0382745952542847,0.0002547866897657,-0.0196716311481944,-0.0003550169058144,0.0114366526504782,0.9354628440957514,0.0100150100076576,left,-0.0027025938034057,-0.7212320048666677,-0.2818128717934712,-7.35933108216226,-0.3526919580906735,0.005365421064198,0.0002640038728713,6.47543110910356,-0.0005677938461303
2025-04-30 01:07:04.792030500,8.540030517578124,-0.0382349889861583,0.0021527116186916,-0.0196647488911301,0.0044438964687287,0.0114549432029607,0.93555505298497,0.0100780440303465,left,-0.005405306816101,-0.7207099325707714,-0.2816506121701561,-7.362720140078664,-0.3524473080803368,0.0039181844331324,0.0005377493798732,6.471585539591312,-0.0011352896690368
2025-04-30 01:07:04.832030500,8.580030517578125,-0.0382349889861583,0.0040506361983716,-0.0196647488911301,0.0092428103089332,0.0114549432029607,0.93555505298497,0.0100780440303465,left,-0.0084536075592041,-0.7207099325707714,-0.2816506121701561,-7.362720140078664,-0.3524473080803368,0.0024709478020668,0.0008280519396066,6.471585539591312,-0.0020949840545654
2025-04-30 01:07:04.872030500,8.620030517578124,-0.0382349889861583,0.0047364360652863,-0.0196647488911301,0.0071843769401311,0.0114549432029607,0.93555505298497,0.0100780440303465,left,-0.0007815361022949,-0.7207099325707714,-0.2816506121701561,-7.362720140078664,-0.3524473080803368,-0.0206930767744779,-0.0022383891046047,6.471585539591312,0.000748872756958
2025-04-30 01:07:04.912030700,8.66003076171875,-0.0382349889861583,0.0027121882885694,-0.0196647488911301,0.0032693315297365,0.0114549432029607,0.93555505298497,0.0100780440303465,left,0.0023807883262634,-0.7207099325707714,-0.2816506121701561,-7.362720140078664,-0.3524473080803368,-0.0182486027479171,-0.0006931480020284,6.471585539591312,-0.0025381445884704
2025-04-30 01:07:04.952030700,8.70003076171875,-0.0375112725839259,0.0003090477548539,-0.0194188116357777,0.0037628633435815,0.0115820708574026,0.9354033478177436,0.0106076634988437,left,-0.0008026361465454,-0.7215925076727676,-0.2761077006881125,-7.357211021268367,-0.3528591559815927,-0.0155727975070476,-0.0011176262050867,6.4780860075265165,-0.0046101808547973
2025-04-30 01:07:04.992030700,8.74003076171875,-0.0367864001922521,-0.0020940927788615,-0.0191728576787089,0.0042563951574265,0.0117091282220043,0.935251302280695,0.0111383868898543,left,-0.0039868354797363,-0.7224746794679928,-0.2705642777494155,-7.351694888195395,-0.3532708977349451,-0.0128969922661781,-0.001542180776596,6.484578292155265,-0.0066813826560974
2025-04-30 01:07:05.032030500,8.780030517578124,-0.0370248857692846,-0.0168280415236949,-0.0191935524849221,0.0015086508356034,0.0115185707554286,0.9351119799616074,0.0106277320059673,left,-0.0048998594284057,-0.7232670243496978,-0.2721272892824374,-7.346493812420964,-0.353644892730965,-0.0212896950542926,-0.0017053391784429,6.490405390873551,-0.0045956373214721
2025-04-30 01:07:05.072030500,8.820030517578125,-0.037418451807381,-0.0150312772020697,-0.0192337068280825,0.0021285836119204,0.0112167405811056,0.9349623191137724,0.0098190200130273,left,-0.0001933574676513,-0.7241164958270354,-0.2748122175174765,-7.340873634451627,-0.354047638625346,-0.0237531960010528,-0.0021670758724212,6.496648084655404,-0.0064767599105834
2025-04-30 01:07:05.112030500,8.860030517578124,-0.0384669117291977,-0.0276619382202625,-0.0194701783752658,-0.0080014364793896,0.0107454957957673,0.9347689952390238,0.0083949200235713,left,-0.0003694891929626,-0.7251945166034698,-0.2822391891804524,-7.333578801268339,-0.3545595733376968,-0.0310842152684927,0.000302355736494,6.5045630955636495,-0.0052792429924011
2025-04-30 01:07:05.152030700,8.90003076171875,-0.0389697137515692,0.0042350254952907,-0.0195823335767184,0.0051176603883504,0.0105271946817208,0.9345396040728012,0.0077139763871037,left,-0.0016190409660339,-0.7264796536131481,-0.2856005736386403,-7.325077514904737,-0.3551641574304024,-0.0343733429908752,-0.0011212788522243,6.513989680078625,0.0015581846237182
2025-04-30 01:07:05.192030700,8.94003076171875,-0.0387056433502647,0.0060568316839635,-0.0195130739638582,-0.002658424898982,0.0106439916163009,0.934236836609608,0.0080338574085136,left,-0.0026199221611022,-0.7281870917958037,-0.2832354336761869,-7.314027713102102,-0.3559601736000031,-0.0513426288962364,-0.0026207957416772,6.526496694952249,0.0030184388160705
2025-04-30 01:07:05.232030700,8.98003076171875,-0.0392427883897851,0.0010203905403614,-0.019700295594155,-0.004276362247765,0.0106013229455466,0.933835473617305,0.0076973473902509,left,0.0007813572883605,-0.7304185564087833,-0.286592014095094,-7.299304191222786,-0.357002809674748,-0.0452268831431865,0.0014008600264787,6.54281362350285,0.0016915798187255
2025-04-30 01:07:05.272030500,9.020030517578125,-0.0397819075901368,-0.004016051068902,-0.0198874740852247,-0.005894299596548,0.0105587065193236,0.9334328472993048,0.0073587322679813,left,0.0041788220405578,-0.7326497572178116,-0.2899458363013342,-7.284543259942531,-0.3580449588623418,-0.0391111373901367,0.0054222289472818,6.55909606526196,0.0003681778907775
2025-04-30 01:07:05.312030500,9.060030517578124,-0.0403108970070999,0.0119847189635038,-0.0201332029018855,-0.0092202266678214,0.0106681316068635,0.9331951162573172,0.0073659802021461,left,0.0031606554985046,-0.7339464361479842,-0.2934562373087741,-7.275884737190604,-0.3586472103014154,-0.0208425763994455,0.0007274076342582,6.568543692564964,0.0088637471199035
2025-04-30 01:07:05.352030500,9.100030517578125,-0.040652661400227,0.0090463235974311,-0.0203779721908663,-0.020004691556096,0.0109621764418864,0.9330454628771058,0.0078497740718839,left,0.0018131732940673,-0.7347460596341375,-0.2957292968072928,-7.270533439290523,-0.3590135776053982,-0.012969016097486,-0.0001309011131525,6.574364361542463,0.0067211389541625
2025-04-30 01:07:05.392030700,9.14003076171875,-0.0410487667609705,0.0030348855070769,-0.0206500128265475,-0.0158148258924484,0.0112654966550852,0.932965288637995,0.0083398043275919,left,0.0018897056579589,-0.7351549879277531,-0.298498834585864,-7.267729487785696,-0.3591971026446707,-0.0060427263379096,-0.0001356359571218,6.577339577960967,0.0038403272628784
2025-04-30 01:07:05.432030700,9.18003076171875,-0.0419199753338431,0.0032018658239394,-0.0210477038243112,-0.0178886428475379,0.0113994131809245,0.9329554299704668,0.0082913521638328,left,-0.0021224617958068,-0.7351605446676904,-0.3048288778576068,-7.267429628056287,-0.359195283875209,0.0053126476705074,6.6235661506e-06,6.577379909971356,0.005026638507843
2025-04-30 01:07:05.472030700,9.22003076171875,-0.0424689851075207,0.0012333039194345,-0.0213242887356346,-0.0118568474426865,0.0115453172565436,0.9330249490346368,0.0084010549532147,left,-0.0023409128189086,-0.7347378794588282,-0.3089367333015427,-7.270038349249958,-0.3589937722781089,0.0122486213222146,-0.0008113607764244,6.574304740309715,0.0026151537895202
2025-04-30 01:07:05.512030700,9.26003076171875,-0.042770200522586,0.0116049470379948,-0.021509565103218,-0.0028359936550259,0.0117057119803129,0.9331490192623434,0.0086431213057169,left,-0.0002789497375488,-0.7340209024961013,-0.3113280123522505,-7.274652565047145,-0.3586549020183108,0.0235810168087482,-0.0004964880645275,6.569086128878593,0.0016724467277526
2025-04-30 01:07:05.552030500,9.300030517578126,-0.0426937421043951,0.0083427047356963,-0.0215875594741667,-0.00621167011559,0.0119745034677549,0.933322370433791,0.0092678446076863,left,-0.0022398233413696,-0.7330376470028642,-0.3110473322473466,-7.281125560453534,-0.3581898131776554,0.0235850717872381,-0.0028944611549377,6.561923397642373,-0.0037380456924438
2025-04-30 01:07:05.592030500,9.340030517578125,-0.0426951190042734,0.0025560571812093,-0.0216221457442619,-0.0019300766289234,0.012051755001671,0.9334750191024408,0.0094496312745135,left,-0.0053483843803405,-0.7321794027003085,-0.3112976172139868,-7.286749245554208,-0.3577872475430468,0.0142776872962713,-0.0035770237445831,6.555666090813279,0.0015988945960998
2025-04-30 01:07:05.632030500,9.380030517578126,-0.0426951190042734,0.0044671678915619,-0.0216221457442619,-0.0034276018850505,0.012051755001671,0.9334750191024408,0.0094496312745135,left,0.0011742115020751,-0.7321794027003085,-0.3112976172139868,-7.286749245554208,-0.3577872475430468,0.010787378065288,-0.0053843557834625,6.555666090813279,7.37905502319e-05
2025-04-30 01:07:05.672030700,9.42003076171875,-0.0424567579424977,0.0081212623044848,-0.021638064352281,-0.003984757233411,0.0123292126303509,0.9336377189284288,0.0101531810809894,left,0.0007636547088623,-0.7312604065129179,-0.3098163291476666,-7.292839379122853,-0.3573520829340302,0.0078614456579089,-0.0051915757358074,6.548961040216684,-0.0024671554565429
2025-04-30 01:07:05.712030700,9.46003076171875,-0.0424567579424977,0.0080576790496706,-0.021638064352281,-0.0083454716950654,0.0123292126303509,0.9336377189284288,0.0101531810809894,left,-8.79764556884e-05,-0.7312604065129179,-0.3098163291476666,-7.292839379122853,-0.3573520829340302,0.0043325768783688,-0.005221527069807,6.548961040216684,-0.0034794807434082
2025-04-30 01:07:05.752030700,9.50003076171875,-0.0426377202412093,0.0005508209578692,-0.0218163939534943,0.0043228846043348,0.0126035057849863,0.9336790542855096,0.0106765238754181,left,-0.0072960257530212,-0.7309995879654355,-0.3112088429519906,-7.294489484417438,-0.3572235233979742,0.0019226705189794,-0.0028183050453662,6.547056667900085,-0.0055115818977355
2025-04-30 01:07:05.792030500,9.540030517578124,-0.0426126372812484,-0.0023880798835307,-0.021773479335893,0.0037284998688846,0.0125192443594228,0.9336551109766024,0.0105028940197899,left,-0.0014318823814392,-0.7311412561481933,-0.3109863593077286,-7.293570616006851,-0.3572917089723437,-0.0060745701193809,-0.0024101510643959,6.548091271644831,-0.0016740560531616
2025-04-30 01:07:05.832030500,9.580030517578123,-0.0423831942345628,-0.0003727942239493,-0.0216352579769203,0.0079171089455485,0.0123974060818104,0.9336523924424158,0.0103290275028101,left,-0.0014746189117431,-0.7311767263736787,-0.3093030458632856,-7.293409872487187,-0.3573115662288318,-0.004313922021538,-0.0018010921776294,6.548350214841961,-0.0013852715492248
2025-04-30 01:07:05.872030500,9.620030517578124,-0.0423831942345628,0.0016424914356321,-0.0216352579769203,0.0121057173237204,0.0123974060818104,0.9336523924424158,0.0103290275028101,left,-0.0015009641647338,-0.7311767263736787,-0.3093030458632856,-7.293409872487187,-0.3573115662288318,-0.002553273923695,-0.0010203830897808,6.548350214841961,-0.0010701417922973
2025-04-30 01:07:05.912030700,9.66003076171875,-0.0423831942345628,0.0001271192450076,-0.0216352579769203,0.0009369114413857,0.0123974060818104,0.9336523924424158,0.0103290275028101,left,-0.0019673109054565,-0.7311767263736787,-0.3093030458632856,-7.293409872487187,-0.3573115662288318,-0.0001976084895431,-0.0001113526523113,6.548350214841961,-0.0019341111183166
2025-04-30 01:07:05.952030700,9.70003076171875,-0.0423831942345628,-0.0014197814743965,-0.0216352579769203,0.0052980566397309,0.0123974060818104,0.9336523924424158,0.0103290275028101,left,-0.0013208389282226,-0.7311767263736787,-0.3093030458632856,-7.293409872487187,-0.3573115662288318,-0.007631704211235,0.0005834102630615,6.548350214841961,-9.62018966674e-05
2025-04-30 01:07:05.992030700,9.74003076171875,-0.0416279670475658,-0.0029723620973527,-0.0211946481455651,0.0084482710808515,0.0120399926425665,0.933555439442303,0.0098410041324617,left,-0.0002499222755432,-0.731780456937993,-0.3036301878586411,-7.289689390659332,-0.3576032730438218,-0.0166237540543079,-0.0007932893931865,6.552756340846419,0.0002727508544921
2025-04-30 01:07:06.032030500,9.780030517578124,-0.0414230298873086,-0.0279882661998271,-0.0209433231419368,0.0205741934478282,0.0116058314024635,0.9334415609344022,0.0089765277065744,left,-0.0017580986022949,-0.7324576333266719,-0.3019524456384591,-7.285316582402586,-0.3579296676319863,-0.0168041195720434,5.90607523918e-05,6.557695550814271,-0.0033555626869201
2025-04-30 01:07:06.072030500,9.820030517578124,-0.04175326146411,-0.0561841875314712,-0.0206671750909267,0.0589079372584819,0.0105533093906821,0.9333256904927608,0.0065810002402979,left,-0.0101865530014038,-0.7331593080912322,-0.3041661213662475,-7.280617610931396,-0.3582802504777201,-0.0247343238443136,0.0055833030492067,6.562810117349028,-0.0001311302185058
2025-04-30 01:07:06.112030500,9.860030517578124,-0.0415392288485768,-0.0767752602696418,-0.0198809327962101,0.0673744454979896,0.008740207122049,0.9332113956325382,0.0027627301855519,left,0.0004147887229919,-0.7339116552326594,-0.3024026918902993,-7.275746790024637,-0.3586710723944206,-0.0091188549995422,-0.0049457028508186,6.568290594586729,-0.0041896104812622
2025-04-30 01:07:06.152030700,9.90003076171875,-0.0420253338671364,-0.0662752613425254,-0.019385865098424,0.0470589622855186,0.0069417414581822,0.9332878664950172,-0.0012706840802641,left,0.0012816786766052,-0.7335466453003795,-0.3060401350772008,-7.277994276690483,-0.3585384452557811,0.0154510419815778,-0.0002270843833684,6.565632189032435,0.0008885860443115
2025-04-30 01:07:06.192030700,9.94003076171875,-0.0426028314851863,-0.0521855503320694,-0.01907106320799,0.0302710384130477,0.0055135312466493,0.9333772025769308,-0.0045426643549598,left,-0.0017429590225219,-0.7330745070443471,-0.3103750955415889,-7.280912794485688,-0.3583477418719789,-0.001035513356328,0.0012602619826793,6.562192277711629,0.0029683113098144
2025-04-30 01:07:06.232030700,9.98003076171875,-0.0435364820856924,-0.0374279469251632,-0.0190808719209623,0.0105021335184574,0.0045719181819365,0.9333712494034948,-0.0069191723721858,left,0.0001780986785888,-0.7330915913869732,-0.317167934019491,-7.280507720816135,-0.3583760198358218,-0.0033247487153857,-0.0014431998133659,6.5623167808741325,0.0014519691467285
2025-04-30 01:07:06.272030500,10.020030517578125,-0.0453667320385163,-0.0803210958838462,-0.019436485563524,-0.0211466029286384,0.0036153160134573,0.9332707772627032,-0.0096838479776601,left,0.0094193816184997,-0.7335850828260172,-0.330345614696294,-7.276678517916798,-0.3586292070286458,-0.0286668166518211,-0.0037015788257122,6.565912175017595,-0.0085905790328979
2025-04-30 01:07:06.312030500,10.060030517578124,-0.0527846061674087,-0.175862967967987,-0.0215667034967104,-0.087228275835514,0.0015483003523749,0.9328783736577186,-0.0170183164012575,left,0.007362425327301,-0.7354012629031675,-0.3836836755216121,-7.262107556250691,-0.3595420401407578,-0.0705015659332275,0.0036448501050472,6.579130553030967,-0.0166543722152709
2025-04-30 01:07:06.352030500,10.100030517578125,-0.0622637644521871,-0.1564768701791763,-0.0241751649727063,-0.0444690249860286,-0.001318122546821,0.9322748146277426,-0.0269182543159103,left,-0.0082414746284484,-0.7381584396231855,-0.4513736484348774,-7.240012628820538,-0.3609400123703262,-0.0874342918395996,0.0044094622135162,6.59915627297163,0.0003365278244018
2025-04-30 01:07:06.392030700,10.14003076171875,-0.0699821718592019,-0.1308322846889495,-0.0260766862192585,-0.016206681728363,-0.0041145092844091,0.931568947825942,-0.0360453579271153,left,-0.0084517002105712,-0.7414647296652729,-0.5057125568658113,-7.214508185207843,-0.362605168322936,-0.0906950309872627,0.0034627616405487,6.623104134792089,0.010846197605133
2025-04-30 01:07:06.432030700,10.18003076171875,-0.0802515710425352,-0.1552211344242096,-0.0287524922105265,-0.0406383052468299,-0.0074428648484303,0.9308243349738232,-0.0473460131305818,left,-0.0049368739128112,-0.7446203883102479,-0.5780948157811537,-7.188065583962202,-0.3642581580649852,-0.0813106596469879,0.0021618381142616,6.64589347422719,0.0034933686256408
2025-04-30 01:07:06.472030700,10.22003076171875,-0.0905985837915896,-0.1796099841594696,-0.0314276720112275,-0.0650699287652969,-0.0107711125749138,0.9300597740813186,-0.0587229625486105,left,-0.0014501214027404,-0.74769025958914,-0.6505886453121901,-7.161347088384628,-0.3659033391694251,-0.0719262883067131,0.0008722841739654,6.668000092095136,-0.0037898421287536
2025-04-30 01:07:06.512030700,10.26003076171875,-0.0974187835706894,-0.1055683866143226,-0.033081036048897,-0.0064723677933216,-0.0132467192798266,0.92963389542916,-0.0668218937242595,left,-0.0082270503044128,-0.749160655719337,-0.698460549686104,-7.146978371292352,-0.3667577176725835,-0.0430345833301544,0.0026454851031303,6.678565909773111,0.0059458017349243
2025-04-30 01:07:06.552030500,10.300030517578126,-0.101584133907859,-0.0864969715476036,-0.0339730716542082,-0.0205630250275135,-0.0149842602856689,0.9292530924066602,-0.0723011729289588,left,-0.0005308389663696,-0.7506568909625544,-0.7272098935041577,-7.134057514920831,-0.3675733667219296,-0.061791568994522,-0.001257762312889,6.689302992364764,0.0017862915992736
2025-04-30 01:07:06.592030500,10.340030517578125,-0.1061219568240962,-0.0887906327843666,-0.0350790612409955,-0.026633508503437,-0.0164426589271333,0.9287035436144464,-0.0773972375286747,left,-0.0007261037826538,-0.7530226785082682,-0.7578970004517585,-7.114928451558948,-0.368794161355388,-0.0850567817687988,0.0013684257864952,6.7062494509905575,-0.006814420223236
2025-04-30 01:07:06.632030500,10.380030517578126,-0.1127203410436513,-0.1727034598588943,-0.0365995608716428,-0.0399037487804889,-0.0186338020721993,0.927724220460002,-0.0850553242740745,left,-1.7881393432e-06,-0.7573634011836518,-0.8015452227160335,-7.080780098241568,-0.3710003003865565,-0.1816451549530029,0.0017849504947662,6.737244893234968,-0.0097247958183288
2025-04-30 01:07:06.672030700,10.42003076171875,-0.1257273204302134,-0.3474006056785583,-0.0393540267580083,-0.0725063309073448,-0.023190077464057,0.9255295789311502,-0.1008884939690521,left,-1.03116035461e-05,-0.7670395552236681,-0.8853579167820512,-7.004748997962475,-0.3759102453312206,-0.3970537185668945,-0.0036961808800697,6.805880622565746,-0.0127399563789367
2025-04-30 01:07:06.712030700,10.46003076171875,-0.1507110944108243,-0.6068743467330933,-0.0442474316322938,-0.0997895300388336,-0.0317386385785128,0.92086171667415,-0.1315694188834512,left,-0.0073731541633605,-0.7869772714327398,-1.0394859638288616,-6.8449126562714575,-0.3860683915482123,-0.7712498307228088,0.0015509501099586,6.945288508734107,-0.0215135216712951
2025-04-30 01:07:06.752030700,10.50003076171875,-0.1920850873401937,-0.8639452457427979,-0.0512148767698495,-0.0967753082513809,-0.0454744451775804,0.912439560701466,-0.1833602779469126,left,-0.0054492354393005,-0.8206220291843488,-1.2763676974080502,-6.5628808444976805,-0.4034393167910001,-1.190077781677246,0.0054215863347053,7.174249824577569,-0.0417478680610656
2025-04-30 01:07:06.792030500,10.540030517578124,-0.2515518472815427,-1.0366774797439575,-0.0593677106833247,-0.0912675485014915,-0.0639300954032796,0.9000271074143406,-0.2584278549683333,left,0.0018693208694458,-0.8649379550762244,-1.5834107624500988,-6.161239487481117,-0.4270125743011493,-1.534324288368225,-0.0066525042057037,7.46339877488017,-0.0502967834472656
2025-04-30 01:07:06.832030500,10.580030517578123,-0.3440039164925047,-1.2626721858978271,-0.0717580784266172,-0.1833614110946655,-0.0864942365199544,0.8828645314825496,-0.3660162408316258,left,-0.0027381181716918,-0.91527102374078,-2.0160997302897274,-5.627663941177725,-0.4559822697546528,-1.715259671211243,0.0050344467163085,7.774002601143717,-0.037152349948883
2025-04-30 01:07:06.872030500,10.620030517578124,-0.449392633693658,-1.1809078454971311,-0.0834724503254206,-0.206687793135643,-0.1088132417107782,0.8642522281666405,-0.4869786758014706,left,0.0125525593757629,-0.9586874287408612,-2.447883419852704,-5.075374926576018,-0.4840044755217167,-1.5989214181900024,0.0099063515663146,8.026134364694357,-0.0336119532585144
2025-04-30 01:07:06.912030700,10.66003076171875,-0.5501814859397586,-0.8813304901123047,-0.0934681778761085,-0.1402018964290619,-0.1276596061447052,0.8475264896174146,-0.6006695578424736,left,0.0229343175888061,-0.9879265897107165,-2.822194140742719,-4.601244087409973,-0.5066217724359138,-1.2012040615081787,-0.0174393057823181,8.187438440850377,-0.0077189803123474
2025-04-30 01:07:06.952030700,10.70003076171875,-0.6327570690844095,-0.5450912714004517,-0.1025273571781491,-0.2143420875072479,-0.1395390461957062,0.8346860116375292,-0.6872734592550352,left,-0.0289646387100219,-1.0049385401571471,-3.109270376424491,-4.239843555366993,-0.5227966830130742,-0.8252670764923096,0.0011759400367736,8.278076158630848,0.0529847741127014
2025-04-30 01:07:06.992030700,10.74003076171875,-0.6858369807751491,-0.2659149467945099,-0.107960172037197,-0.2113695442676544,-0.1452515743058629,0.8261911651623177,-0.7406747601497774,left,0.0076310038566589,-1.016428774147373,-3.2693770594894884,-3.9950317594408986,-0.5335304595609625,-0.5329850316047668,-0.0141671597957611,8.337941137006878,0.0597379803657531
2025-04-30 01:07:07.032030500,10.780030517578124,-0.7118767403659536,-0.0965507924556732,-0.1106870496254748,-0.1899562180042266,-0.1446729040768578,0.8216121423146278,-0.7617805803156904,left,-0.0121992230415344,-1.0266613030628555,-3.3163764188125726,-3.843752233693004,-0.5401589011933577,-0.3848288357257843,-0.0037288963794708,8.39032715780437,0.0433940291404724
2025-04-30 01:07:07.072030500,10.820030517578124,-0.7387773308735712,0.072813332080841,-0.1134058912165261,-0.1685428917407989,-0.1440837494284238,0.8169734002683559,-0.7837611288169708,left,-0.0321453511714935,-1.036598585822393,-3.3622505734980104,-3.691335520608723,-0.5467480757014632,-0.2366726249456405,0.0065946877002716,8.440360477995872,0.0272899270057678
2025-04-30 01:07:07.112030500,10.860030517578124,-0.7482455610782065,0.1246243193745613,-0.1142155296615195,-0.1457560658454895,-0.1411009911092862,0.8148729966437664,-0.7876229326756466,left,-0.0155657827854156,-1.0449701681160506,-3.348858884744346,-3.607424480734765,-0.5504792878483477,-0.1147076413035392,0.0020066201686859,8.481863870251178,-0.0071287155151367
2025-04-30 01:07:07.152030700,10.90003076171875,-0.750501742079498,0.1097624003887176,-0.1146110520636219,-0.0881865471601486,-0.138068247452519,0.8141037583108526,-0.7848325508522004,left,-0.0151812434196472,-1.0503807921219288,-3.325641090764105,-3.566243452301621,-0.5523011771222568,-0.0538287535309791,0.0069274604320526,8.508371937948464,-0.0094688534736633
2025-04-30 01:07:07.192030700,10.94003076171875,-0.7531557151984959,0.0740869492292404,-0.1146666205258507,-0.070067286491394,-0.136274432935448,0.8132788551722809,-0.7847613237773045,left,-0.0067097544670104,-1.0547490702534013,-3.3096438956871626,-3.5302579466849564,-0.5539481854544103,-0.0759181603789329,0.0033543109893798,8.529591836109757,-0.0083417296409606
2025-04-30 01:07:07.232030700,10.98003076171875,-0.7558292885146505,0.0384115055203437,-0.1147214157997561,-0.05194803327322,-0.13447971476874,0.812448421264477,-0.7847128443774238,left,0.0017596185207366,-1.0591168316405208,-3.293484495785832,-3.494251106019318,-0.5555914497181792,-0.0980075672268867,-0.0002353191375732,8.550645730054377,-0.0071979165077209
2025-04-30 01:07:07.272030500,11.020030517578125,-0.761411258833164,0.0162400528788566,-0.1149570135719869,-0.0313317812979221,-0.1338067274983648,0.8112916728709781,-0.7889538044537924,left,0.0033890008926391,-1.0626583658298343,-3.29202406784445,-3.4538708725750444,-0.5573926573182448,-0.106289692223072,-0.0003013312816619,8.567598033899069,0.0079827308654785
2025-04-30 01:07:07.312030500,11.060030517578124,-0.766629215922243,0.0108907967805862,-0.1149355096117069,-0.0047972798347473,-0.1335885149381233,0.8101716722351365,-0.7938731637473896,left,0.0120721161365509,-1.0658220502407303,-3.291182064062357,-3.417106783801317,-0.5590759825737192,-0.091784693300724,-0.0012080669403076,8.582650057080388,0.019732117652893
2025-04-30 01:07:07.352030500,11.100030517578125,-0.7708457193811434,-0.0075367596000432,-0.1147764402761617,0.0021444847807288,-0.1337230105613602,0.8092571113386154,-0.7985101197441835,left,0.0171306431293487,-1.0681648173805456,-3.291541545024514,-3.388765655457973,-0.5603994092432838,-0.0622431337833404,-0.0086906552314758,8.59374135993719,0.0174497961997985
2025-04-30 01:07:07.392030700,11.14003076171875,-0.7740298637924024,-0.0504242554306983,-0.1148361982103239,0.0195662342011928,-0.1343408478787121,0.8087385695223468,-0.8025075773988319,left,0.0139519870281219,-1.068606484979815,-3.299663184420764,-3.3755548762291667,-0.5609878217266135,-0.0170644409954547,-0.0091844201087951,8.595827518561482,0.0113186240196228
2025-04-30 01:07:07.432030700,11.18003076171875,-0.7768043611544685,-0.0807471349835395,-0.1151135762848078,0.0428654178977012,-0.1358250646350735,0.8085409815939868,-0.8070510703971884,left,0.0105051696300506,-1.0668484446770197,-3.319602102860808,-3.377156758467853,-0.5608581697950773,0.0092299133539199,-0.01094850897789,8.587515617290139,0.0173300504684448
2025-04-30 01:07:07.472030700,11.22003076171875,-0.7780299486421735,-0.0750025287270546,-0.1153410378113071,0.0621607452630996,-0.1376770633841,0.8086838279879671,-0.8106620877058239,left,0.0049290060997009,-1.063815938839603,-3.3420021507173776,-3.3916204603672027,-0.5601535679508864,0.043457955121994,-0.0143359005451202,8.57311533601582,0.0142010450363159
2025-04-30 01:07:07.512030700,11.26003076171875,-0.7758050509691944,-0.0805869400501251,-0.1151619525151701,0.0923753753304481,-0.1396615545600515,0.8093529103825915,-0.8116171653466837,left,-0.0006751120090484,-1.0597922112157732,-3.358579191508889,-3.423646122442185,-0.5587310951776552,0.0782080441713333,-0.0171255469322204,8.55388690393269,0.0070404410362243
2025-04-30 01:07:07.552030500,11.300030517578126,-0.771756471844067,-0.0953411683440208,-0.1145424923093095,0.1220083013176918,-0.1420636855076019,0.8102496562772581,-0.8120102532977006,left,-0.0044705867767333,-1.0551877927791458,-3.3721222714319823,-3.46540582754612,-0.5569502481016091,0.0706888139247894,-0.0214543342590332,8.53171365056932,0.0061023235321044
2025-04-30 01:07:07.592030500,11.340030517578125,-0.7688274110803,-0.1384215801954269,-0.1131774392804898,0.1719518899917602,-0.1464975777641166,0.810850642231711,-0.8176007999546344,left,-0.0094194710254669,-1.049578640574843,-3.39517815284878,-3.5096085418879985,-0.5552033178964269,0.0574853718280792,-0.0284403562545776,8.504457979375124,0.0048662424087524
2025-04-30 01:07:07.632030500,11.380030517578126,-0.7658641531038847,-0.1815019845962524,-0.1118095649219674,0.2218954861164093,-0.1509278276409862,0.8114313833960431,-0.8231699036921476,left,-0.0143559575080871,-1.0439774669718156,-3.417727838309109,-3.5539322522610424,-0.553442498305799,0.0442819260060787,-0.0354779660701751,8.47697317560017,0.003653347492218
2025-04-30 01:07:07.672030700,11.42003076171875,-0.7628679551618784,-0.2245823889970779,-0.1104389043786553,0.2718390822410583,-0.1553542903624359,0.8119919490317273,-0.8287189262400428,left,-0.0192809104919433,-1.0383850214368142,-3.439769866508245,-3.598369944402575,-0.5516679595146439,0.0310784820467233,-0.0425674319267272,8.449266838029027,0.0024632811546325
2025-04-30 01:07:07.712030700,11.46003076171875,-0.7609582667320689,-0.2726690471172333,-0.1076427063385893,0.4146922528743744,-0.1630125157577092,0.8120105145782063,-0.842220661561467,left,-0.025659829378128,-1.031531193895736,-3.472745376653969,-3.646782969915866,-0.5499808635801905,-0.0126630831509828,-0.0377202332019805,8.414950142407417,-0.009587287902832
2025-04-30 01:07:07.752030700,11.50003076171875,-0.7584820128226778,-0.3446670174598694,-0.1032747127711036,0.5250816941261292,-0.1734051097631477,0.811611651537056,-0.8615359839745632,left,-0.0096859037876129,-1.0237724524183889,-3.508507302647829,-3.70265332569778,-0.5482258979405471,-0.0563354864716529,-0.0295402407646179,8.375626432278752,-0.0175955891609191
2025-04-30 01:07:07.792030500,11.540030517578124,-0.7554028041676009,-0.3202518820762634,-0.0980651582757305,0.5099035501480103,-0.1851825070755338,0.8109160270235979,-0.8835981179294822,left,0.0140318870544433,-1.0155666347034715,-3.5440903649434445,-3.763348032896221,-0.5463569946492276,-0.0338188707828521,-0.0172649323940277,8.333487664729356,-0.0024296641349792
2025-04-30 01:07:07.832030500,11.580030517578123,-0.7520256652936104,-0.2958367168903351,-0.0928389816723269,0.4947254061698913,-0.1969285443527404,0.810082770099333,-0.9054211573000912,left,0.037835270166397,-1.007398312180296,-3.5777442127421497,-3.824882698050141,-0.5443953187294416,-0.0113022588193416,-0.005186378955841,8.290984155520796,0.0127734541893005
2025-04-30 01:07:07.872030500,11.620030517578124,-0.7455138691927395,-0.2225504517555236,-0.0885077291414125,0.4004454016685486,-0.206069832653404,0.8100145677211532,-0.9190060285050105,left,0.0238774120807647,-0.9996841301560812,-3.59603974788934,-3.894974471408129,-0.541828417951942,0.0607586912810802,0.0075290203094482,8.250335918790102,0.0096368789672851
2025-04-30 01:07:07.912030700,11.66003076171875,-0.7369042900766677,-0.1699620336294174,-0.085384593232299,0.301779180765152,-0.212820265340662,0.8107503043045566,-0.9252287816261432,left,0.0135503709316253,-0.9918026347472536,-3.605958499835432,-3.973822382673621,-0.5386102515669354,0.1212598979473114,0.0117917656898498,8.208298858049512,0.0145423412322998
2025-04-30 01:07:07.952030700,11.70003076171875,-0.7262370978598639,-0.1961671113967895,-0.0831104308117458,0.3167645335197449,-0.2185322082510867,0.8122446831914845,-0.9266863421122236,left,-0.0134101510047912,-0.9823787672923942,-3.6145728911846873,-4.069717290329933,-0.5344107979241874,0.2239859998226165,0.0149034261703491,8.15736654319167,-0.0008276104927062
2025-04-30 01:07:07.992030700,11.74003076171875,-0.710782088118252,-0.302790880203247,-0.0810199748193515,0.417392373085022,-0.2257791230373834,0.8149166883977045,-0.925604225672396,left,-0.0273865163326263,-0.9672504660701956,-3.6313515920281407,-4.218142011168599,-0.527608243262679,0.4007630944252014,0.0108382999897003,8.074090878611802,-0.0218994617462158
2025-04-30 01:07:08.032030500,11.780030517578124,-0.6894319278987933,-0.4256794452667236,-0.0795267118428454,0.5169099569320679,-0.2359228302051149,0.8192673856787605,-0.9225298548481174,left,-0.0201110243797302,-0.9421933790619038,-3.668039108434319,-4.449446383006871,-0.5165432764645361,0.6148148775100708,0.0121493637561798,7.932105250909924,-0.0094451904296875
2025-04-30 01:07:08.072030500,11.820030517578124,-0.662355740130194,-0.4309469163417816,-0.0784825342811447,0.5623616576194763,-0.2477096078192543,0.8252109796645891,-0.916092294476268,left,-0.0035825073719024,-0.9088759663149968,-3.7067616377994415,-4.752952652224898,-0.5015051581719117,0.7910979986190796,0.0204301178455352,7.73561529508233,0.0270121097564697
2025-04-30 01:07:08.112030500,11.860030517578124,-0.6303227115019868,-0.310142457485199,-0.0772648933826486,0.5248895883560181,-0.2580377483814522,0.8323822853471889,-0.9031966796419598,left,0.0126324892044067,-0.8732802686454174,-3.712646019662917,-5.088544204750657,-0.4843414845663389,0.865963339805603,0.0244343876838684,7.516207989525794,0.0399067401885986
2025-04-30 01:07:08.152030700,11.90003076171875,-0.5958877135648905,-0.1402661502361297,-0.0758953439088755,0.4519485533237457,-0.2650010422283238,0.8403623966369892,-0.8832544114394341,left,0.0211362838745117,-0.8392821224382001,-3.676603523162007,-5.421788901889324,-0.4666965497040573,0.9139238595962524,0.0290835499763488,7.297752285605669,0.0309394598007202
2025-04-30 01:07:08.192030700,11.94003076171875,-0.5595408529351575,0.0086450278759002,-0.074421761656532,0.3873399794101715,-0.2685347505361722,0.8491918921056729,-0.8564876463274753,left,0.0242959856986999,-0.8065311477327904,-3.6021313427627084,-5.751356956341862,-0.4485798314859321,0.9480195045471193,0.0246087312698364,7.079331652998924,0.0251245498657226
2025-04-30 01:07:08.232030700,11.98003076171875,-0.5218766059879385,0.1059699654579162,-0.0728531237687935,0.3221453428268432,-0.2677033987966927,0.8588369667715442,-0.8218298867257743,left,0.0277782082557678,-0.7763008816343591,-3.4881311618342994,-6.065723934531212,-0.4306119476300551,0.9444826245307922,0.0163620710372924,6.870977656376361,0.0225932598114013
2025-04-30 01:07:08.272030500,12.020030517578125,-0.4867420997078294,0.2032949030399322,-0.0712539527789988,0.2569506764411926,-0.2667598018080193,0.8681220545412488,-0.7897406707052591,left,0.0302657485008239,-0.7452044853853671,-3.371247534424066,-6.370335242381692,-0.4124635976644891,0.9409457445144652,0.0078214406967163,6.650104954442382,0.0213385224342346
2025-04-30 01:07:08.312030500,12.060030517578124,-0.4551360698054232,0.2482806742191314,-0.0704505502525273,0.1997933685779571,-0.2633601989998044,0.8772400470526811,-0.7560729199455354,left,0.0210692286491394,-0.7156934708033184,-3.253133488436043,-6.647116878542303,-0.3951305223270478,0.9373877048492432,0.0076484084129333,6.434542633876204,0.0201113820075988
2025-04-30 01:07:08.352030500,12.100030517578125,-0.4263755343881154,0.2867253124713897,-0.0695348259911451,0.1933942884206771,-0.2589035074228824,0.8857427953593513,-0.7236398370099203,left,0.0101782083511352,-0.6883668948375973,-3.132208476680517,-6.895473215207457,-0.3789375608201997,0.8290768265724182,0.0015818178653717,6.229936007088423,0.0255545377731323
2025-04-30 01:07:08.392030700,12.14003076171875,-0.4005393861212045,0.311472475528717,-0.0682391369726467,0.1643360406160354,-0.2538634882680966,0.8933346202293772,-0.6935766311934148,left,0.0050380229949951,-0.6643781907834169,-3.010447598622739,-7.109687628296017,-0.3644863510872093,0.7463261485099792,0.0018088519573211,6.046482058444619,0.0260887145996093
2025-04-30 01:07:08.432030700,12.18003076171875,-0.3752409344248307,0.3858147859573364,-0.0660583628298913,0.1692175716161728,-0.2479108796295709,0.9003862162789867,-0.6637715562313233,left,0.0204285979270935,-0.643546705790461,-2.8751848494350907,-7.299189040410519,-0.3513990103387072,0.6803543567657471,-0.0044439733028411,5.884346207639575,0.0156557559967041
2025-04-30 01:07:08.472030700,12.22003076171875,-0.3517225138165223,0.4250037372112274,-0.0638463894074802,0.0953825041651725,-0.2407364914655978,0.906988619218278,-0.6336347816631842,left,0.0291454195976257,-0.6252767216134112,-2.739325011137128,-7.464474879679083,-0.339619461623983,0.605079174041748,-0.0095830559730529,5.740043535166978,0.0073863267898559
2025-04-30 01:07:08.512030700,12.26003076171875,-0.3323338516979442,0.4521459937095642,-0.0624234732116222,0.0498366542160511,-0.2323970956270891,0.9128229198209824,-0.6041922684661178,left,0.0134811401367187,-0.6105385687194665,-2.621410287113488,-7.59533004155755,-0.3299231803061136,0.4883449673652649,0.0073426067829132,5.622237239953876,0.0018143653869628
2025-04-30 01:07:08.552030500,12.300030517578126,-0.3152581550793494,0.4602782726287842,-0.0606652546604879,0.029499826952815,-0.223767041205819,0.917645926022546,-0.5767393609430188,left,0.0155624747276306,-0.6006875379349187,-2.508390641655028,-7.691267034789919,-0.3227604142946941,0.3431350886821747,0.0159747153520584,5.542812990105152,-0.0106025338172912
2025-04-30 01:07:08.592030500,12.340030517578125,-0.3004784416232661,0.4517664909362793,-0.058822097942667,-0.0193553585559129,-0.2149245324672415,0.9215585532337052,-0.5510419732186053,left,0.0224912166595459,-0.5952206817030122,-2.4033786538243294,-7.7563272437214845,-0.3179266905026302,0.2524822354316711,0.0274672955274581,5.49850389277935,-0.033436894416809
2025-04-30 01:07:08.632030500,12.380030517578126,-0.2902885526050293,0.401827335357666,-0.0580267944008804,-0.1157548129558563,-0.2064425985100469,0.9245132706558208,-0.5286086603778671,left,0.0302790999412536,-0.5927871872419691,-2.328042257811129,-7.793211744004488,-0.3151026973250153,0.1383650004863739,0.0237255245447158,5.478727179163694,-0.026083767414093
2025-04-30 01:07:08.672030700,12.42003076171875,-0.2867501377548454,0.3784759640693664,-0.0594341496561712,-0.2437015622854232,-0.1978483701683801,0.9265611020921204,-0.5089188253891863,left,0.0273070335388183,-0.5931652059258593,-2.2998661107711493,-7.7994135212540625,-0.3143377311512383,0.0780791565775871,0.0110550075769424,5.481801764303445,-0.0195384621620178
2025-04-30 01:07:08.712030700,12.46003076171875,-0.2888916364664998,0.2890888750553131,-0.0629103061363526,-0.3012320399284363,-0.1897551845990164,0.9279937296916696,-0.4923768536869299,left,0.0026630163192749,-0.5940158929690043,-2.3152339219033715,-7.789997458133101,-0.3144248669411494,0.0735404342412948,-0.0072648227214813,5.488716658258438,-0.0301692485809326
2025-04-30 01:07:08.752030700,12.50003076171875,-0.2942097980358372,0.116249606013298,-0.0671523543390096,-0.2167517691850662,-0.1842188362467915,0.9289226244839648,-0.4820141099629412,left,-0.0319660305976867,-0.5929404682712172,-2.3583397809192537,-7.783219342300295,-0.3140968960185867,0.0937140583992004,-0.0071475654840469,5.479973964354396,-0.0344406366348266
2025-04-30 01:07:08.792030500,12.540030517578124,-0.300174265873446,-0.0685793161392211,-0.0708875862430059,-0.1566031277179718,-0.1825353617738544,0.9294704292895464,-0.4794642910050102,left,-0.0137807726860046,-0.5887126138386825,-2.411549393059313,-7.791077654585242,-0.3126349073179106,0.1315096914768219,-0.0237346440553665,5.445541533398628,-0.0445175766944885
2025-04-30 01:07:08.832030500,12.580030517578123,-0.308138893284669,-0.0786051303148269,-0.0746989425309759,-0.1261234730482101,-0.1837151307192429,0.9294775325888476,-0.4834489816195179,left,-0.0167574882507324,-0.583258325610594,-2.482496614202857,-7.79981041161716,-0.3110312634025384,0.0841118320822715,-0.0340819060802459,5.400976415485143,-0.0306405425071716
2025-04-30 01:07:08.872030500,12.620030517578124,-0.3160489972523497,-0.0886309519410133,-0.0785089337064611,-0.0956438183784484,-0.1848914467088666,0.9294674415225382,-0.4873672981888706,left,-0.0197950005531311,-0.5777778550015973,-2.55327724660784,-7.807946956321596,-0.3094218683441542,0.0367139689624309,-0.0444462001323699,5.35603603451848,-0.0167251229286193
2025-04-30 01:07:08.912030700,12.66003076171875,-0.3228611426081823,-0.1107357069849968,-0.0811045077785275,-0.0635321289300918,-0.1863307634936012,0.9289083470929872,-0.4923826000691483,left,-0.032582938671112,-0.576265219733288,-2.6089742916494605,-7.798046909075975,-0.3095680264341508,-0.051112163811922,-0.0352914631366729,5.343603838446736,-0.0071824789047241
2025-04-30 01:07:08.952030700,12.70003076171875,-0.3271359904826924,-0.1181037575006485,-0.0819854042577272,0.0221956819295883,-0.1883579912287834,0.9280281409942898,-0.4984541259741447,left,-0.0259402394294738,-0.5774372254905388,-2.6402713471889494,-7.7808865154385565,-0.3107468733743554,-0.0845766216516494,-0.0248426496982574,5.35323792823255,-0.0023958086967468
2025-04-30 01:07:08.992030700,12.74003076171875,-0.3292039422134914,-0.1656913608312606,-0.0820002584661574,0.0538978762924671,-0.1918850426103029,0.927424638631432,-0.5062866972972098,left,-0.0144416093826293,-0.575495766361575,-2.659711083935201,-7.7852300976008175,-0.3103864127317395,-0.0038415789604187,-0.0124148428440094,5.3372752199471,0.0040561556816101
2025-04-30 01:07:09.032030500,12.780030517578124,-0.3312511138945386,-0.213278979063034,-0.0820140551590436,0.0856000632047653,-0.1954095746061721,0.9268091761548152,-0.5141045321988595,left,-0.0029382705688476,-0.5735408446220981,-2.6790315782159566,-7.7896210260361425,-0.310021943164886,0.076893463730812,7.748603820800781e-07,5.321182163280248,0.0105214715003967
2025-04-30 01:07:09.072030500,12.820030517578124,-0.3321967699525665,-0.1471549272537231,-0.0822921177134536,0.0717413797974586,-0.1989985162866823,0.9268015628949988,-0.5207141839764072,left,-0.0016054511070251,-0.5675448498655824,-2.6967534051284194,-7.8171052452892065,-0.3076793742151495,0.1384376734495163,0.0012970268726348,5.271694786533713,-0.0071244239807128
2025-04-30 01:07:09.112030500,12.860030517578124,-0.3320327526622553,-0.0860950127243995,-0.0829121405496462,0.0328456945717334,-0.2011687852264585,0.927399350811446,-0.523470770503507,left,-0.0109314322471618,-0.5598070181126464,-2.7086870040282607,-7.855877166754007,-0.3042817270878309,0.1888132691383361,0.0031264126300811,5.207552276968956,-0.0157787203788757
2025-04-30 01:07:09.152030700,12.90003076171875,-0.3296129756901385,0.011165477335453,-0.0833284414137123,0.066360205411911,-0.2017525588194809,0.9286500179107404,-0.5218004346343051,left,-0.0081698894500732,-0.550891612324986,-2.7045900901034474,-7.906022715148329,-0.2999357046526437,0.2564769685268402,0.0025315880775451,5.13326129835546,-0.0230076909065246
2025-04-30 01:07:09.192030700,12.94003076171875,-0.3264089738647949,-0.0358866117894649,-0.083528005190195,0.032216902822256,-0.201992979486231,0.930028567149302,-0.5191525603715211,left,0.0019430518150329,-0.5418727787772953,-2.693980725544691,-7.958177265277504,-0.2954132530989823,0.166014015674591,0.0017815232276916,5.0576937239348885,0.005986750125885
2025-04-30 01:07:09.232030700,12.98003076171875,-0.3238506798445801,0.0052862539887428,-0.0833672509660842,0.036196980625391,-0.2021658473233607,0.9308915667533528,-0.5174384793301158,left,-0.0041345953941345,-0.5364247329369627,-2.682341141155362,-7.99104726922214,-0.2926088364792448,0.1395246386528015,0.000686764717102,5.011845580473542,-0.0076012015342712
2025-04-30 01:07:09.272030500,13.020030517578125,-0.3202977698732983,0.0030195512808859,-0.0827808904629568,0.079276867210865,-0.20205560174342,0.9318182437471414,-0.5149399909764409,left,-0.006904661655426,-0.531463226112216,-2.6617294380202887,-8.024029501369595,-0.2898891335861914,0.1152099072933197,0.0068752169609069,4.969962833511829,-0.0043692588806152
2025-04-30 01:07:09.312030500,13.060030517578124,-0.3149814557610743,0.0224373433738946,-0.0809575423603381,0.1214807257056236,-0.2021831222177643,0.932511898350314,-0.5129664647220469,left,0.0109531283378601,-0.5288462909363508,-2.6230539626672864,-8.050405467119813,-0.2880789376296561,0.0550398342311382,0.0046108663082122,4.947822313374281,-0.0048749148845672
2025-04-30 01:07:09.352030500,13.100030517578125,-0.310520790416774,0.0120575707405805,-0.0792050317257238,0.032085433602333,-0.2022656835869038,0.9329272757003628,-0.5115649266545865,left,0.0196533799171447,-0.5279477395522069,-2.588475108978152,-8.066255947202444,-0.2871619829081996,0.0041605457663536,0.0025261640548706,4.940211838370561,0.0001775622367858
2025-04-30 01:07:09.392030700,13.14003076171875,-0.3121211813755445,-0.0293260309845209,-0.0799130917070742,-0.0188512131571769,-0.2001721700218043,0.9328064391563368,-0.5083723698000671,left,0.0103011727333068,-0.5315088327403642,-2.595962249863148,-8.045309605285524,-0.2888205570668363,0.000685449456796,-0.0050875544548034,4.970348033437133,-0.0183132290840148
2025-04-30 01:07:09.432030700,13.18003076171875,-0.3137116641293321,-0.0707096382975578,-0.0806205373239927,-0.069787859916687,-0.1980770935956922,0.9326784117894844,-0.505179604620197,left,0.0009387135505676,-0.5350742434809532,-2.6032696502670643,-8.02426272560358,-0.2904769017629531,-0.0027896468527615,-0.0127195715904235,5.000457340496778,-0.036801278591156
2025-04-30 01:07:09.472030700,13.22003076171875,-0.3152923521848759,-0.1120932400226593,-0.0813273777980862,-0.1207244992256164,-0.1959805454962194,0.9325433585602652,-0.5019868362927111,left,-0.0084339380264282,-0.5386441224243791,-2.6103981869727373,-8.0031158926785,-0.2921310490150719,-0.0062647424638271,-0.0203697979450225,5.030540928593278,-0.0552866756916046
2025-04-30 01:07:09.512030700,13.26003076171875,-0.3203076445055253,-0.1565391570329666,-0.083153679708977,0.0002118796110153,-0.1975254355469822,0.932009510559333,-0.5066047544028052,left,-0.0376583933830261,-0.537471088042586,-2.652359259867668,-7.995518277156353,-0.2922798574506519,0.0183651261031627,-0.0087127685546875,5.020663093179464,-0.0136246085166931
2025-04-30 01:07:09.552030500,13.300030517578126,-0.321635665375343,-0.1608903110027313,-0.0832340054046595,0.0784599930047988,-0.2008383254743075,0.9316222780277746,-0.5133899133418909,left,-0.0145397782325744,-0.5342589595316438,-2.66805951782465,-8.007247877916694,-0.2912320663458843,0.0304533150047063,-0.0061995387077331,4.9935781023770565,0.0151745676994323
2025-04-30 01:07:09.592030500,13.340030517578125,-0.321086547038957,-0.1022323071956634,-0.0827029419697595,0.0745253637433052,-0.2036300933981382,0.9314769175520458,-0.5184599774209221,left,0.0098876357078552,-0.5310064643109722,-2.668773803573847,-8.024080939295887,-0.2899068538120052,0.0635516867041587,-0.0113109648227691,4.96610031286478,0.0094228386878967
2025-04-30 01:07:09.632030500,13.380030517578126,-0.3206584664810046,-0.0601555369794368,-0.0824189026859174,0.0433758199214935,-0.205546411837497,0.9314461368523947,-0.5217965737112877,left,0.0144984722137451,-0.5282173283156331,-2.669694133289158,-8.038336843663453,-0.2887318091527979,0.0243902280926704,-0.0024750232696533,4.942495565393567,0.0180181264877319
2025-04-30 01:07:09.672030700,13.42003076171875,-0.3196786329687056,0.0157746039330959,-0.0819668053549906,0.0085632726550102,-0.2059410593833028,0.9314906440246956,-0.5222320646648058,left,0.0180796384811401,-0.5277484057670124,-2.6625445537954566,-8.043148043337464,-0.2884355494510636,0.0213430225849151,-0.0062553584575653,4.938523154631257,-0.0056133270263671
2025-04-30 01:07:09.712030700,13.46003076171875,-0.319641100737542,0.0198377836495637,-0.0822203238968613,-0.0202462971210479,-0.2055380496859545,0.9316876422078983,-0.5211659329422248,left,0.0104512572288513,-0.5269274058553786,-2.663515736915171,-8.047094150614738,-0.2880142919260547,0.0401519276201725,-0.0036812126636505,4.931565590578318,-0.0072906613349914
2025-04-30 01:07:09.752030700,13.50003076171875,-0.3202046254873121,0.0194016844034194,-0.0828665984534837,-0.0352972745895385,-0.2049085338041844,0.9319411257757776,-0.5197078108924523,left,-0.0151048898696899,-0.5257079827444419,-2.6699410937875507,-8.051293940392137,-0.2874568172762159,0.0399085581302642,7.3611736297e-06,4.921225982871651,-0.0007092952728271
2025-04-30 01:07:09.792030500,13.540030517578124,-0.320349777503211,0.0651763528585434,-0.0834306902585812,-0.0264897271990776,-0.2039172688347403,0.9322917838179888,-0.5173662858593459,left,-0.0070019364356994,-0.5245811945403898,-2.672854058624804,-8.056164176777004,-0.2868610903852526,0.0442182682454586,-0.0020200014114379,4.911664958322048,0.0016579031944274
2025-04-30 01:07:09.832030500,13.580030517578123,-0.3186294330890559,0.1578086912631988,-0.0835306308767566,-0.0255698543041944,-0.201600460112961,0.9330048147614622,-0.5117185176683984,left,-0.0017506480216979,-0.5239218908518317,-2.6600048061847685,-8.063824336141348,-0.2861504135352449,0.0648663192987442,-0.0053104162216186,4.906067576706409,0.0002890229225158
2025-04-30 01:07:09.872030500,13.620030517578124,-0.3156510554958703,0.2590810358524322,-0.0833037317765284,-0.051930584013462,-0.1974504059226966,0.9339295301422,-0.502230073351895,left,-0.0016304850578308,-0.5253150344813109,-2.633851251013577,-8.065205561366676,-0.286093479613749,0.0063054151833057,-0.0014594495296478,4.917892454534769,0.0131651163101196
2025-04-30 01:07:09.912030700,13.66003076171875,-0.3103417363779812,0.2749980092048645,-0.0821241696238963,0.008011981844902,-0.1918758690158817,0.934982545463065,-0.4895210016098061,left,-0.0143432021141052,-0.5291121959668993,-2.585272513544559,-8.061236073213815,-0.2867874025609752,-0.0143773648887872,0.0035276114940643,4.950073307171464,-0.00961634516716
2025-04-30 01:07:09.952030700,13.70003076171875,-0.3048829163093871,0.2327549010515213,-0.0805290252529973,-0.0010657431557774,-0.1872311339854838,0.935751140688706,-0.4788564479189561,left,-0.0036959648132324,-0.5334019791516298,-2.5348317815959454,-8.054898686885833,-0.2878012752746512,-0.0494155660271644,0.0021348893642425,4.986343474948406,-0.0105137228965759
2025-04-30 01:07:09.992030700,13.74003076171875,-0.302316637140993,0.1577943265438079,-0.0797678341733582,-0.0392817743122577,-0.1834756130271182,0.9360056212082613,-0.4711498024602392,left,-0.0027197003364562,-0.5385145844796917,-2.506529231697321,-8.036935160171986,-0.2895988354077734,-0.0937225222587585,-0.0014900863170623,5.029450795269012,-0.0141088962554931
2025-04-30 01:07:10.032030500,13.780030517578124,-0.3024046478285654,0.140402689576149,-0.0795151361332414,-0.057597704231739,-0.1813908508053008,0.9356445287018992,-0.4679762393542426,left,0.004004418849945,-0.5443083423521275,-2.4985163133725523,-8.008762374132871,-0.2921372010621793,-0.1388470530509948,-0.0046947002410888,5.078142053201795,-0.0085961818695068
2025-04-30 01:07:10.072030500,13.820030517578124,-0.3024714818054889,0.1230110377073288,-0.0792615782283909,-0.07591363042593,-0.1793041073010868,0.9352732676922754,-0.4647921511801944,left,0.010706603527069,-0.5501024442084336,-2.490245036372542,-7.980373899516463,-0.2946723885323191,-0.1839715987443924,-0.0079256892204284,5.126665553352236,-0.0030663013458251
2025-04-30 01:07:10.112030500,13.860030517578124,-0.3022084431068449,0.1964054256677627,-0.0784632475018834,-0.0275576114654541,-0.1765194563781178,0.9345105160312014,-0.4608677134467068,left,-0.0072572827339172,-0.5598444180126945,-2.473163260929286,-7.93296975878477,-0.2989559474520349,-0.2412899732589721,-5.61475753784e-05,5.207863242614269,-0.0052099227905273
2025-04-30 01:07:10.152030700,13.90003076171875,-0.3001022219435589,0.1953406333923339,-0.0768909923835554,-0.0345658883452415,-0.1728469011765107,0.9337406975862728,-0.4548583733277437,left,-0.0071623921394348,-0.5715072508089226,-2.4383270714782177,-7.879598818603157,-0.3038751187566204,-0.2302294671535492,-0.0049655586481094,5.304419244527817,-0.0140960812568664
2025-04-30 01:07:10.192030700,13.94003076171875,-0.2985824853819292,0.1522313207387924,-0.0758570087295888,-0.0191723890602588,-0.1697041905954274,0.9331724946598912,-0.4495637279962534,left,-0.0138644576072692,-0.5804434832251857,-2.4123088331244884,-7.837676908674836,-0.3076287330916443,-0.1379047334194183,-0.0001339465379714,5.377914688849449,-0.0136635899543762
2025-04-30 01:07:10.232030700,13.98003076171875,-0.2959387591363685,0.1192995235323906,-0.0747035208224276,0.0038179270923137,-0.1673407601021953,0.9330305083809552,-0.4447585347688348,left,-0.0041098594665527,-0.5857038041576209,-2.38329638139084,-7.816858577051758,-0.3096296949961878,-0.070912592113018,0.0009004026651382,5.420977585506439,-0.0152188539505004
2025-04-30 01:07:10.272030500,14.020030517578125,-0.2934761319748406,0.0848422050476074,-0.0738221646734134,-0.0052416650578379,-0.1655422052682857,0.9330997830123776,-0.4407053528089288,left,0.0014654397964477,-0.5885989518938745,-2.3594892432153225,-7.807648265635967,-0.3105978952125886,-0.0252137258648872,-0.0003481060266494,5.444614481681585,-0.0111925601959228
