time,seconds_elapsed,roll,rotationRateZ,quaternionY,rotationRateY,quaternionZ,quaternionW,yaw,devicelocation,accelerationZ,pitch,gravityX,gravityZ,quaternionX,rotationRateX,accelerationX,gravityY,accelerationY
2025-04-30 01:08:01.211028500,0.437028564453125,1.4465800643226174,-0.0254610329866409,0.6613764498570972,-0.0314680524170398,6.101619023318557e-18,0.7496005904041905,-0.0345269792778309,left,-0.578829824924469,0.0391049768143623,9.723650814273952,-1.2140853556919842,0.0260772280110822,-0.0583149194717407,-1.0059767961502075,-0.383391122315824,0.7494117021560669
2025-04-30 01:08:01.251028500,0.477028564453125,0.4887521889731723,-0.0110952481627464,0.2844965412399975,-0.0234193466603755,-0.249867683129359,0.8832380677722091,-0.3747058307557729,left,-0.0172709822654724,-0.682602874214737,3.572757071979344,-6.71840516820848,-0.2766195492958593,-0.0565209314227104,-0.378437876701355,6.186180451992154,0.0848027467727661
2025-04-30 01:08:01.291028500,0.517028564453125,0.150031032451384,-0.0026335855945944,0.1774383537735516,-0.0230252426117658,-0.2996528195222187,0.8739004714484908,-0.5994019200973831,left,0.0067499279975891,-0.7741441196579723,1.0480678411480038,-6.93317838422358,-0.3391487781432469,-0.0546129345893859,-0.1243444234132766,6.855872441703081,0.0201563239097595
2025-04-30 01:08:01.331028500,0.557028564453125,0.0037080747715664,-0.0032348905224353,0.1344721844175085,-0.0212380737066268,-0.3175103917310416,0.8658108429435419,-0.7014290252730366,left,0.0063182115554809,-0.7941552373628775,0.0254870951856719,-6.873311067759991,-0.3625960272380904,-0.0403459146618843,-0.0225037597119808,6.994807449662685,0.0089510083198547
2025-04-30 01:08:01.371028500,0.597028564453125,-0.0147278026279581,-0.0038396376185119,0.1292839442064066,-0.0184712149202823,-0.3194263873749483,0.8644670894660451,-0.7140940932699666,left,0.0039390325546264,-0.7971492174736602,-0.1009167178736999,-6.851642256787419,-0.3659905741583667,-0.0298505574464797,-0.0111522963270545,7.015354563128948,0.0074265599250793
2025-04-30 01:08:01.411028500,0.637028564453125,-0.0240165660193585,-0.0020128218457102,0.1268818839272007,-0.0051229028031229,-0.3202147584807541,0.8635507805002971,-0.7203416832940359,left,0.002029538154602,-0.7999872836736632,-0.1640759520221501,-6.830477303683757,-0.3682981603516503,-0.0214557461440563,-0.0041684415191411,7.034773549348116,0.0072623491287231
2025-04-30 01:08:01.451028500,0.677028564453125,-0.0274007322258716,-0.0094208065420389,0.1261237944873525,-0.0109898643568158,-0.3204037614735689,0.8630875480685216,-0.7225366753982492,left,0.0069934725761413,-0.8017942007211848,-0.1868418923153542,-6.817165402168035,-0.3694780977700367,-0.0056656971573829,-0.0032479986548423,7.047108130264282,0.0009555220603942
2025-04-30 01:08:01.491028500,0.717028564453125,-0.0285300754245364,-0.0085781347006559,0.1259346128319651,-0.0050495243631303,-0.3204423216623677,0.8628643565858254,-0.723279216008557,left,-0.0007065534591674,-0.8027672470064344,-0.1943449979544617,-6.810092687302827,-0.3700302006117332,-0.0113278338685631,-0.0007669515907764,7.053740700146555,0.0039616823196411
2025-04-30 01:08:01.531028500,0.757028564453125,-0.0302296781942037,-0.0020743403583765,0.1257179481986529,-0.0035582371056079,-0.320532110778061,0.862460085056471,-0.7245202268129065,left,-0.0047183036804199,-0.804496927590859,-0.2055500633840449,-6.797546509462594,-0.3709670738101038,-0.0185851398855447,-0.0001315660774707,7.065514140048623,0.005694568157196
2025-04-30 01:08:01.571028500,0.797028564453125,-0.0304553214177496,-0.0009433226659893,0.1257004186026352,-0.0019258352695032,-0.3204827338982418,0.8623897977760204,-0.7245764942497424,left,-0.0041689276695251,-0.8049152629262002,-0.2069938689841888,-6.794545574080944,-0.3711791826808001,-0.0092168673872947,0.0002116337418556,7.068358423563837,0.0026394128799438
2025-04-30 01:08:01.611028500,0.837028564453125,-0.030681096622227,0.000187695142813,0.1256828721543136,-0.0002934333169832,-0.3204333233138118,0.8623194332335087,-0.7246328346705891,left,-0.0036196708679199,-0.8053334924417228,-0.2084371996602974,-6.7915434696555135,-0.371391252920466,0.0001514051109552,0.0005548205226659,7.071200953513383,-0.000415563583374
2025-04-30 01:08:01.651028500,0.877028564453125,-0.030681096622227,-0.0094467205926775,0.1256828721543136,0.0023597665131092,-0.3204333233138118,0.8623194332335087,-0.7246328346705891,left,-0.0026736259460449,-0.8053334924417228,-0.2084371996602974,-6.7915434696555135,-0.371391252920466,0.0055177835747599,0.0024404935538768,7.071200953513383,2.0146369934e-05
2025-04-30 01:08:01.691028500,0.917028564453125,-0.0311935991139471,-0.0076273479498922,0.1255006302558186,-0.0029009585268795,-0.3205946047293415,0.862331707026377,-0.7251639244909223,left,-0.0022163391113281,-0.8049726899746484,-0.2119974128925241,-6.793985017588734,-0.3712852367175037,0.0089109260588884,0.0021171048283576,7.0687488841861486,0.0009137392044067
2025-04-30 01:08:01.731028500,0.957028564453125,-0.0313882769023285,0.000174218788743,0.1253169312007387,-0.0068751224316656,-0.3206145378905875,0.8624531882791215,-0.7251838887380343,left,-0.0016353130340576,-0.8043495911791619,-0.2134582426927052,-6.798344966363906,-0.3710478630186289,0.0117664206773042,0.0011171884834766,7.0645122695297,0.001136839389801
2025-04-30 01:08:01.771028500,0.997028564453125,-0.031111981091543,0.0079633593559265,0.125251082466503,0.0017055938951671,-0.3204588654057298,0.8626135695422881,-0.7246188149219696,left,-0.0006160736083984,-0.8038663117181377,-0.2116860453884117,-6.801815272822976,-0.3708316162022461,0.0036512352526187,0.0023008417338132,7.0612243339002125,0.0012844800949096
2025-04-30 01:08:01.811028500,1.037028564453125,-0.031111981091543,0.0142622049897909,0.125251082466503,-0.0082216933369636,-0.3204588654057298,0.8626135695422881,-0.7246188149219696,left,0.0036800503730773,-0.8038663117181377,-0.2116860453884117,-6.801815272822976,-0.3708316162022461,-0.0022080359049141,0.0008634123951196,7.0612243339002125,0.0019698739051818
2025-04-30 01:08:01.851028500,1.077028564453125,-0.0306846625327234,0.0172720681875944,0.1251469056939112,-0.0196956805884838,-0.3197715335881287,0.8628281116768953,-0.7228781527570939,left,0.0023018717765808,-0.8040733748038363,-0.2087346299706027,-6.800443984469771,-0.3709610493176603,0.0016922154463827,-0.001111339777708,7.062633031654357,0.0015429854393005
2025-04-30 01:08:01.891028500,1.117028564453125,-0.0306484436351382,0.0128258522599935,0.1249854370541971,-0.0192186087369918,-0.3192777924513704,0.8629709854650954,-0.7217519460964718,left,0.0008749365806579,-0.8042657661967609,-0.2084466798746958,-6.799092569860815,-0.3711083020012347,0.0006512630498036,-0.0024473834782838,7.063941776165366,0.0006899833679199
2025-04-30 01:08:01.931028500,1.157028564453125,-0.0310242611988109,0.0078535266220569,0.1247938022392042,-0.0136980712413787,-0.319051376439099,0.8630124162733919,-0.7214225113806336,left,0.0013810992240905,-0.8044574589605611,-0.2109598682720214,-6.797660491231084,-0.3712711513788603,-0.0006689447909593,-0.0018067564815282,7.0652458445012565,-0.0004166960716247
2025-04-30 01:08:01.971028500,1.197028564453125,-0.0314001223531028,0.0028812009841203,0.1246021396825446,-0.0081775346770882,-0.3188249267222172,0.8630537698196267,-0.721093188860293,left,0.001887023448944,-0.8046493316270648,-0.2134722894843667,-6.796226074513792,-0.3714339898671237,-0.0019891527481377,-0.0011662207543849,7.066550497359037,-0.0015234947204589
2025-04-30 01:08:02.011028500,1.237028564453125,-0.0314001223531028,-0.002075791824609,0.1246021396825446,-0.008150765672326,-0.3188249267222172,0.8630537698196267,-0.721093188860293,left,0.001325786113739,-0.8046493316270648,-0.2134722894843667,-6.796226074513792,-0.3714339898671237,-0.0018677923362702,-0.0011989157646894,7.066550497359037,-0.0034489035606384
2025-04-30 01:08:02.051028500,1.277028564453125,-0.0314001223531028,-0.0058888429775834,0.1246021396825446,0.0029450245201587,-0.3188249267222172,0.8630537698196267,-0.721093188860293,left,-0.002389371395111,-0.8046493316270648,-0.2134722894843667,-6.796226074513792,-0.3714339898671237,-0.0008411421440541,-0.0010101776570081,7.066550497359037,-0.0050687193870544
2025-04-30 01:08:02.091028500,1.317028564453125,-0.0314001223531028,-0.0084250699728727,0.1246021396825446,0.004240421578288,-0.3188249267222172,0.8630537698196267,-0.721093188860293,left,-0.0010780692100524,-0.8046493316270648,-0.2134722894843667,-6.796226074513792,-0.3714339898671237,-0.0018754416378214,-0.0009813159704208,7.066550497359037,-0.0022907257080078
2025-04-30 01:08:02.131028500,1.357028564453125,-0.0325161698828942,-0.008679230697453,0.1243095886844362,-0.003140945918858,-0.3191109315626573,0.8629654220220601,-0.7222156391867502,left,0.0004549026489257,-0.8045316609940572,-0.2210840796623379,-6.7968141035348175,-0.371491626010495,-0.0039343945682048,-0.0036778189241886,7.065750286892056,-0.0001564621925354
2025-04-30 01:08:02.171028500,1.397028564453125,-0.0328151454637537,-0.0041562519036233,0.1242844115783338,-0.000232599209994,-0.319142081897638,0.8628819854497549,-0.7224757616870274,left,0.001000165939331,-0.8048668144914345,-0.223038446866814,-6.794380154386162,-0.3716670201328145,-0.0076066441833972,-0.002172389999032,7.068029337739944,0.0017915964126586
2025-04-30 01:08:02.211028500,1.437028564453125,-0.0328151454637537,0.0003667268902063,0.1242844115783338,0.0026757472660392,-0.319142081897638,0.8628819854497549,-0.7224757616870274,left,0.0017935633659362,-0.8048668144914345,-0.223038446866814,-6.794380154386162,-0.3716670201328145,-0.0112788937985897,-0.0008662324398756,7.068029337739944,0.003972053527832
2025-04-30 01:08:02.251028500,1.477028564453125,-0.033213895401247,0.002487787976861,0.1242223568474572,-0.00692979991436,-0.3190870369609224,0.8627926968959101,-0.7226107026770499,left,0.0031817555427551,-0.8053794286923192,-0.225627349115163,-6.790669024908542,-0.3719422360448195,-0.0029677366837859,-0.0004556160420179,7.071513088202476,0.0042742490768432
2025-04-30 01:08:02.291028500,1.517028564453125,-0.033213895401247,0.0096223093569278,0.1242223568474572,-0.0106263626366853,-0.3190870369609224,0.8627926968959101,-0.7226107026770499,left,0.003550112247467,-0.8053794286923192,-0.225627349115163,-6.790669024908542,-0.3719422360448195,-0.0004592712502926,0.0006416793912649,7.071513088202476,0.0048238039016723
2025-04-30 01:08:02.331028500,1.557028564453125,-0.0334015408722115,0.0079648755490779,0.1240654928811778,-0.0102899791672825,-0.3187356535609114,0.8628575589050368,-0.7219310816243762,left,0.0027015209197998,-0.8056843558618458,-0.2268295462454669,-6.788470638081431,-0.3721452111980093,0.0019783114548772,0.0004722457379102,7.073584633779525,0.00326669216156
2025-04-30 01:08:02.472589000,1.698589111328125,-0.0353258949554055,0.0147376209497451,0.1232485053484094,-0.0213037822395563,-0.317972944662371,0.8629280881333373,-0.7211620459501705,left,-0.0053846556693315,-0.8066302216338824,-0.2396561301959678,-6.781332456764578,-0.3729049025576311,0.0070660524070262,-0.0005215078126639,7.080005606737733,0.0081886872649192
2025-04-30 01:08:02.512589000,1.738589111328125,-0.035103558133533,0.0113251963630318,0.1230672105774452,-0.0131028508767485,-0.317533191670135,0.8631645740283059,-0.7199847901118429,left,-0.0042340159416198,-0.8062808226144038,-0.2382351940147578,-6.783857006806135,-0.3727921505769331,0.0055617773905396,-0.0008821692317724,7.077634785953164,0.0025361776351928
2025-04-30 01:08:02.552589000,1.778589111328125,-0.0348819616129777,0.0079127717763185,0.1228858652495685,-0.0049019185826182,-0.3170933930474023,0.8634008499158154,-0.7188082586521116,left,-0.0030834078788757,-0.8059312797805351,-0.2368181850899942,-6.786382141369581,-0.3726792827031438,0.004057502374053,-0.0012424252927303,7.075261627081036,-0.0031161308288574
2025-04-30 01:08:02.592588800,1.8185888671875,-0.0346608723563169,0.0045003481209278,0.1227045020328704,0.0032990127801895,-0.3166534259016154,0.8636367394930187,-0.7176318282607064,left,-0.0019325613975524,-0.8055811826307931,-0.2354035690517164,-6.788908444976807,-0.3725662157112608,0.002553227590397,-0.0016024336218833,7.072883792033792,-0.0087680220603942
2025-04-30 01:08:02.632588800,1.8585888671875,-0.0351834509962891,-0.0034658284857869,0.1226150403819573,-0.0023798281326889,-0.3168809356522335,0.8635538610210033,-0.7183806729941254,left,-0.0008323192596435,-0.8055612026158218,-0.2389562565646134,-6.788925980633497,-0.3725944593086704,-0.0030343912076205,-0.0018651951104402,7.072747598433494,-0.004582405090332
2025-04-30 01:08:02.672588800,1.8985888671875,-0.0357060987706364,-0.0114320032298564,0.1225255341370731,-0.0080586690455675,-0.317108433476966,0.8634708498035902,-0.7191294658923957,left,0.0002679824829101,-0.8055407806622004,-0.2425095833983272,-6.788944685333967,-0.3726226533856867,-0.0086220102384686,-0.0021279286593198,7.072609066745638,-0.0003964900970458
2025-04-30 01:08:02.712589000,1.938589111328125,-0.0365203564978722,0.0050660879351198,0.122283908832654,-0.0193095784634351,-0.3170186542703503,0.8634105084306496,-0.7193477037054488,left,0.0004602670669555,-0.8059602909378298,-0.2479291424953378,-6.785780083823203,-0.3729184045437407,-0.0157819427549839,-0.0012204907834529,7.0754586109578606,-0.0004281401634216
2025-04-30 01:08:02.752589000,1.978589111328125,-0.0372296427947061,-0.0055774194188416,0.1221218277725608,-0.0152817834168672,-0.3168458269482808,0.8632986149070522,-0.7193989965196513,left,-0.0009920001029968,-0.8067742662062244,-0.2525276675330475,-6.779844264033437,-0.3733769969340954,-0.0155549841001629,-0.0008351653814315,7.080982927337288,-0.0029399394989013
2025-04-30 01:08:02.792589000,2.018589111328125,-0.0379396941900407,-0.0162209272384643,0.1219597298601663,-0.0112539883702993,-0.3166729757744411,0.8631864558926602,-0.7194514124005733,left,-0.002445101737976,-0.8075883912278901,-0.2571228863688186,-6.773900260937213,-0.3738355506934196,-0.015328025445342,-0.0004501901566982,7.086504321107268,-0.0054515600204467
2025-04-30 01:08:02.832588800,2.0585888671875,-0.0390291477403045,-0.0093521308153867,0.121776746052761,-0.0019061509519815,-0.3169085507183519,0.8629898846789952,-0.7205567486223151,left,-0.0025166869163513,-0.808074793978764,-0.2643680717241018,-6.770171011281013,-0.3741493577499269,-0.0171934254467487,0.0011041443794965,7.08980044004321,-0.0009886026382446
2025-04-30 01:08:02.872588800,2.0985888671875,-0.0392051160986391,-0.0038626845926046,0.1218071864098985,-0.0045751449652016,-0.3168065373218273,0.8628827360108383,-0.7205197841962664,left,-0.0007643699645996,-0.8087585985711949,-0.2653693029222078,-6.765277978542446,-0.3744726944310499,-0.0075031714513897,0.0002306941896677,7.094432191497087,0.0001757144927978
2025-04-30 01:08:02.912588800,2.1385888671875,-0.0393811915255107,0.0016267611645162,0.1218376099147308,-0.0072441389784216,-0.3167045239253021,0.8627755873426811,-0.7204831798571092,left,0.0009874105453491,-0.809442562508127,-0.2663694016091525,-6.760382023194432,-0.3747959924811422,0.0021870816126465,-0.0006428882479667,7.099061020341515,0.0013403892517089
2025-04-30 01:08:02.952589000,2.178589111328125,-0.0395573558145618,0.0071162073872983,0.1218680165672603,-0.0099131325259804,-0.3166024431195557,0.8626682841504012,-0.7204466211028799,left,0.0027389526367187,-0.8101264945128996,-0.2673682764533907,-6.755481976193189,-0.3751192519002048,0.0118773356080055,-0.001516617834568,7.103686926576494,0.0025053620338439
2025-04-30 01:08:02.992589000,2.218589111328125,-0.0396796137838292,0.0050157569348812,0.1216260692105338,-0.008798548951745,-0.3165039272267175,0.8628678773411138,-0.7201298528609322,left,0.0009716153144836,-0.8093426402342033,-0.2684150090273469,-6.761011553269625,-0.374821875546509,0.0333353132009506,-0.0007630009204149,7.098385313037038,0.0064767599105834
2025-04-30 01:08:03.032589000,2.258589111328125,-0.0398482315400859,0.0059740310534834,0.1212659726818767,-0.006339787505567,-0.3164674429540887,0.8631794155244578,-0.7198603563626472,left,-0.0008827447891235,-0.8079117604962647,-0.2699593706588261,-6.771107415348291,-0.3742514488483608,0.0246255993843078,-0.0015228167176246,7.088695693671703,0.0054132938385009
2025-04-30 01:08:03.190896400,2.416896484375,-0.0393295690528356,-0.0087958751246333,0.1208908236532982,0.0060536065138876,-0.3162182769226717,0.8637463280788845,-0.7186530623929007,left,0.0003641938092187,-0.8056544054374362,-0.267075887644384,-6.787218592193723,-0.37327411273196,-0.0006537004373967,-0.0034632380120456,7.073381220161915,-0.0039407988078892
2025-04-30 01:08:03.230896400,2.456896484375,-0.0395898323537681,-0.0066765015944838,0.1209321679874578,0.0101743582636117,-0.3165138576703786,0.8636308115966062,-0.7194545716303692,left,-0.0012437105178833,-0.8056796377968864,-0.2688352985323406,-6.786970754912495,-0.3732776311400905,-0.0008057795348577,-0.0025180280208587,7.073552485075592,-0.0001811385154724
2025-04-30 01:08:03.270896400,2.496896484375,-0.0395413769110275,-0.0060464041307568,0.1210468823391152,0.0128455413505434,-0.3167579496934883,0.8635498958453482,-0.7199919179870499,left,-0.0004259347915649,-0.8056405142301308,-0.2685173916895874,-6.78726067776978,-0.3732206565495237,0.0026820683851838,-0.0021113976836204,7.073286527615785,0.0005686283111572
2025-04-30 01:08:03.310896600,2.536896728515625,-0.0392864470663354,-0.0054207267239689,0.1211772944469436,0.013157601468265,-0.3169259545866986,0.8635235080993396,-0.7202423098918367,left,0.0006361603736877,-0.805481367690813,-0.2668313200324773,-6.78845368694663,-0.3730968151706195,0.0062739625573158,-0.00092688575387,7.072205746641755,0.0005213022232055
2025-04-30 01:08:03.350896600,2.576896728515625,-0.0392864470663354,-0.0047950493171811,0.1211772944469436,0.0134696615859866,-0.3169259545866986,0.8635235080993396,-0.7202423098918367,left,0.0015766024589538,-0.805481367690813,-0.2668313200324773,-6.78845368694663,-0.3730968151706195,0.0098658567294478,0.0004295483231544,7.072205746641755,0.0003637075424194
2025-04-30 01:08:03.390896600,2.616896728515625,-0.0392864470663354,0.0044116154313087,0.1211772944469436,-0.0009735720232129,-0.3169259545866986,0.8635235080993396,-0.7202423098918367,left,0.001624047756195,-0.805481367690813,-0.2668313200324773,-6.78845368694663,-0.3730968151706195,0.0042885858565568,-0.0011450350284576,7.072205746641755,0.0018922686576843
2025-04-30 01:08:03.430896600,2.656896728515625,-0.0392864470663354,0.0136182783171534,0.1211772944469436,-0.0154168047010898,-0.3169259545866986,0.8635235080993396,-0.7202423098918367,left,0.001671552658081,-0.805481367690813,-0.2668313200324773,-6.78845368694663,-0.3730968151706195,-0.001288685016334,-0.0027196183800697,7.072205746641755,0.0034207701683044
2025-04-30 01:08:03.470896400,2.696896484375,-0.0386942796023905,0.0063876826316118,0.1212671712181835,-0.0053054066374897,-0.3169025199262005,0.8636499293048018,-0.7198350444773389,left,-0.0001470446586608,-0.8049387069299313,-0.2629597940950654,-6.79244480240941,-0.3727948052755661,0.0075152413919568,-0.0015769470483064,7.068517998039722,0.0002623796463012
2025-04-30 01:08:03.510896400,2.736896484375,-0.0381027195539211,-0.0008429125882685,0.1213570311371197,0.0048059914261102,-0.3168789960777559,0.863776251469477,-0.7194283187847162,left,-0.0019659996032714,-0.8043958706406745,-0.2590877384346909,-6.796431826218963,-0.3724927567494832,0.016319166868925,-0.000434324145317,7.064826742306352,-0.0028956532478332
2025-04-30 01:08:03.550896400,2.776896484375,-0.0381027195539211,-0.0080735087394714,0.1213570311371197,0.0149173894897103,-0.3168789960777559,0.863776251469477,-0.7194283187847162,left,-0.0041915774345397,-0.8043958706406745,-0.2590877384346909,-6.796431826218963,-0.3724927567494832,0.0251230970025062,0.0011031292378902,7.064826742306352,-0.0064300298690795
2025-04-30 01:08:03.590896600,2.816896728515625,-0.0372646710126481,-0.0005131461657583,0.1215216831606245,0.0174245983362197,-0.317037554676065,0.8639324891526512,-0.7192561748472605,left,0.0008750557899475,-0.8033962141928549,-0.2536548814646899,-6.803700355917215,-0.3719412384706454,0.0205013304948806,-0.0007103718817234,7.058024076554179,-0.0042125582695007
2025-04-30 01:08:03.630896600,2.856896728515625,-0.0361482985267606,0.0022273769136518,0.1218731583343949,0.0166089460253715,-0.3171603630980019,0.8639946538151376,-0.7189756599126693,left,0.0002529025077819,-0.8029204058759838,-0.2461806000612676,-6.807334913027286,-0.3715769664551037,0.0062010688707232,0.0007216371595859,7.054784071719646,-0.0021003484725952
2025-04-30 01:08:03.792590300,3.01859033203125,-0.0345320559851632,-0.0027411223854869,0.1222845852984589,-0.010616703890264,-0.3168839685860704,0.8641485648900845,-0.7176063329957889,left,0.0003749112365767,-0.8027232766745287,-0.2352260022614151,-6.809113613137602,-0.3713196609628384,-0.0030775847844779,-0.0008410345762968,7.053440840417147,0.0039197658188641
2025-04-30 01:08:03.832590300,3.05859033203125,-0.0345320559851632,0.0018429739866405,0.1222845852984589,-0.0067289127036929,-0.3168839685860704,0.8641485648900845,-0.7176063329957889,left,-0.000274658203125,-0.8027232766745287,-0.2352260022614151,-6.809113613137602,-0.3713196609628384,0.0031402483582496,-0.002536391839385,7.053440840417147,0.0029983520507812
2025-04-30 01:08:03.872590300,3.09859033203125,-0.0348755623643536,-0.0023733514826744,0.1219979531145153,-0.0019733821973204,-0.3168922443506382,0.8643211141732661,-0.7176222244850451,left,-0.001368761062622,-0.801866532383038,-0.2377755588800646,-6.8150687221497295,-0.3710049687039666,0.0131806582212448,-0.0005410350859165,7.047601466739177,-0.0002502799034118
2025-04-30 01:08:03.912590300,3.13859033203125,-0.0349698165809629,0.0015218539629131,0.12187530310557,-0.0020598992705345,-0.3169280982259321,0.8644175330545886,-0.7176522700092322,left,-0.0008251667022705,-0.8013357792043149,-0.2385486621444113,-6.818783358758688,-0.3707899576216116,0.008810881525278,-0.0003262478858232,7.0439809381544585,-0.0001510977745056
2025-04-30 01:08:03.952590600,3.178590576171875,-0.035063974788305,0.0054170591756701,0.1217526669674587,-0.0021464165765792,-0.3169639521012261,0.8645139519359115,-0.717682358045195,left,-0.0002818703651428,-0.8008051984550225,-0.2393217106098309,-6.822495657280087,-0.370574951983938,0.00444110436365,-0.0001114774495363,7.04035982504785,-5.1736831665e-05
2025-04-30 01:08:03.992590300,3.21859033203125,-0.0345311269680238,0.0133422240614891,0.1217193194778843,5.36234583705e-05,-0.3164817871088226,0.8647097139009954,-0.7163254293201712,left,-0.0027645230293273,-0.8007302626855516,-0.2357045064933597,-6.823148568230867,-0.3705409877326265,-0.0010170578025281,0.0005668383091688,7.039848368394375,-0.0032445788383483
2025-04-30 01:08:04.032590300,3.25859033203125,-0.0339966964193458,0.0060154017992317,0.1218355980941027,0.0014310046099126,-0.3161712830943342,0.864763088395809,-0.7154323270395614,left,-0.0018456578254699,-0.8010388962735949,-0.231984134263359,-6.821102741616964,-0.3706435227754228,-0.0123962089419364,0.0001202002167701,7.0419549852848045,-0.0038719177246093
2025-04-30 01:08:04.072590300,3.29859033203125,-0.0340833366350578,0.0051068947650492,0.1218858973992675,-0.0025030239485204,-0.3160846883342093,0.8646696758140628,-0.7153741349311582,left,4.89950180053e-05,-0.8016388580377669,-0.2324311108458787,-6.81685911269784,-0.3709187546297775,-0.0138014499098062,-5.25079667568e-05,7.04604839207828,-0.0010424256324768
2025-04-30 01:08:04.112590300,3.33859033203125,-0.0341699466061947,0.0041983877308666,0.1219361937229633,-0.0064370529726147,-0.3159980261648634,0.8645761087081941,-0.715315811540447,left,0.0019434690475463,-0.8022387449035409,-0.2328770645150914,-6.812613145691156,-0.3711939532977837,-0.0152066918089985,-0.0002253130078315,7.050138876262307,0.0017873644828796
2025-04-30 01:08:04.152590300,3.37859033203125,-0.0344434230243602,0.0049299816600978,0.1218824591276106,-0.0086606256663799,-0.3158459976828027,0.8645157930510038,-0.7151777834542143,left,-0.0008075833320617,-0.8027875605310316,-0.2346068839823827,-6.808681651461124,-0.3714814956312983,-0.0087967440485954,0.0006696991622447,7.053879231834412,0.002198040485382
2025-04-30 01:08:04.192590300,3.41859033203125,-0.0348089899379555,0.0007631005719304,0.1217298699444665,-0.0108412830159068,-0.3157497251037348,0.8645297413512723,-0.7151278016682122,left,-0.0004280805587768,-0.8028769551013835,-0.2370739316830411,-6.807964443102478,-0.3715807199289742,-0.0023078857921063,-0.0003897547721862,7.054487719121575,0.0024634599685668
2025-04-30 01:08:04.232590300,3.45859033203125,-0.0351746655550087,-0.0034037800505757,0.1215772837427931,-0.0130219403654336,-0.3156535080080033,0.8645437114302658,-0.7150781635423656,left,-4.87565994262e-05,-0.8029665785742388,-0.2395411985794082,-6.807245481178164,-0.3716799774129986,0.0041809719987213,-0.0014491565525531,7.055098544496297,0.0027287006378173
2025-04-30 01:08:04.380973600,3.6069736328125,-0.0361215045002091,0.0008314967853948,0.1209135779601225,0.0074490713886916,-0.3156794445368512,0.8648869230730507,-0.7152405128919601,left,-0.004778207745403,-0.8012355321917913,-0.2464271221682429,-6.819210059738158,-0.3710753783722457,0.0169452838599681,-0.0007969173602759,7.0432970475435255,-0.0048232446424663
2025-04-30 01:08:04.420973600,3.6469736328125,-0.0355286878559635,-0.002893759869039,0.1211597476668131,0.0147561822086572,-0.3158744236706686,0.8648691384612474,-0.715395525211185,left,-0.0025154948234558,-0.8009987394456135,-0.2424437698868103,-6.821021493074298,-0.3708705756866597,-0.0049439705908298,-0.0017712377011775,7.041680844518542,0.0027588605880737
2025-04-30 01:08:04.460973600,3.6869736328125,-0.0355286878559635,0.0005870598834007,0.1211597476668131,0.0094662643969058,-0.3158744236706686,0.8648691384612474,-0.715395525211185,left,-0.0015429854393005,-0.8009987394456135,-0.2424437698868103,-6.821021493074298,-0.3708705756866597,-0.0021416104864329,-0.0009909477084875,7.041680844518542,0.0004538893699645
2025-04-30 01:08:04.500973600,3.7269736328125,-0.0355286878559635,0.0040678796358406,0.1211597476668131,0.0041763475164771,-0.3158744236706686,0.8648691384612474,-0.715395525211185,left,-0.0005704760551452,-0.8009987394456135,-0.2424437698868103,-6.821021493074298,-0.3708705756866597,0.0006607493851333,-0.0002106577157974,7.041680844518542,-0.0018510818481445
2025-04-30 01:08:04.540973300,3.766973388671875,-0.0355286878559635,0.0026158764958381,0.1211597476668131,0.0029940246604382,-0.3158744236706686,0.8648691384612474,-0.715395525211185,left,-0.0003663301467895,-0.8009987394456135,-0.2424437698868103,-6.821021493074298,-0.3708705756866597,-0.000164765806403,-0.00043835490942,7.041680844518542,-5.20944595336e-05
2025-04-30 01:08:04.580973600,3.8069736328125,-0.0355286878559635,0.001163873123005,0.1211597476668131,0.0018117016879841,-0.3158744236706686,0.8648691384612474,-0.715395525211185,left,-0.000162124633789,-0.8009987394456135,-0.2424437698868103,-6.821021493074298,-0.3708705756866597,-0.0009902809979394,-0.0006660521030426,7.041680844518542,0.0017468929290771
2025-04-30 01:08:04.620973600,3.8469736328125,-0.0355286878559635,-0.0002881300169974,0.1211597476668131,0.0006293784826993,-0.3158744236706686,0.8648691384612474,-0.715395525211185,left,4.20212745666e-05,-0.8009987394456135,-0.2424437698868103,-6.821021493074298,-0.3708705756866597,-0.0018157963640987,-0.0008937492966651,7.041680844518542,0.0035458207130432
2025-04-30 01:08:04.660973600,3.8869736328125,-0.0355286878559635,0.0076094381511211,0.1211597476668131,0.0024055214598774,-0.3158744236706686,0.8648691384612474,-0.715395525211185,left,-0.0017897486686706,-0.8009987394456135,-0.2424437698868103,-6.821021493074298,-0.3708705756866597,0.0056131510064005,0.0009711794555187,7.041680844518542,0.0021030306816101
2025-04-30 01:08:04.700973600,3.9269736328125,-0.0355286878559635,0.0041519347578287,0.1211597476668131,-0.0032702474854886,-0.3158744236706686,0.8648691384612474,-0.715395525211185,left,-0.00123131275177,-0.8009987394456135,-0.2424437698868103,-6.821021493074298,-0.3708705756866597,0.0033514455426484,0.0006519258022308,7.041680844518542,0.0007418990135192
2025-04-30 01:08:04.740973600,3.9669736328125,-0.0355286878559635,0.0006944308988749,0.1211597476668131,-0.0089460164308547,-0.3158744236706686,0.8648691384612474,-0.715395525211185,left,-0.0006729364395141,-0.8009987394456135,-0.2424437698868103,-6.821021493074298,-0.3708705756866597,0.0010897398460656,0.0003326721489429,7.041680844518542,-0.0006192326545715
2025-04-30 01:08:04.780973300,4.006973388671875,-0.0355286878559635,-0.0013049689587205,0.1211597476668131,0.0035310154780745,-0.3158744236706686,0.8648691384612474,-0.715395525211185,left,-0.0020948648452758,-0.8009987394456135,-0.2424437698868103,-6.821021493074298,-0.3708705756866597,0.0015093046240508,0.0005120746791362,7.041680844518542,-0.0008211731910705
2025-04-30 01:08:04.820973600,4.0469736328125,-0.0355286878559635,-0.000203144387342,0.1211597476668131,0.0008917406667023,-0.3158744236706686,0.8648691384612474,-0.715395525211185,left,-0.0009058713912963,-0.8009987394456135,-0.2424437698868103,-6.821021493074298,-0.3708705756866597,0.0034668871667236,0.0004489347338676,7.041680844518542,-0.0002458095550537
2025-04-30 01:08:04.860973600,4.0869736328125,-0.0355286878559635,0.0008986800676211,0.1211597476668131,-0.0017475341446697,-0.3158744236706686,0.8648691384612474,-0.715395525211185,left,0.0002830624580383,-0.8009987394456135,-0.2424437698868103,-6.821021493074298,-0.3708705756866597,0.0054244697093963,0.0003857929259538,7.041680844518542,0.0003295540809631
2025-04-30 01:08:04.900973600,4.1269736328125,-0.0355640363189941,-0.0015377352247014,0.1210488331599673,-0.0019162878161296,-0.3157716654753804,0.8649637186545865,-0.7151246584641539,left,-0.0007082819938659,-0.8007226828075822,-0.2427540048797614,-6.82295567600727,-0.3707738280547044,0.0044422298669815,0.0001090075820684,7.0397963459461925,-0.0006856322288513
2025-04-30 01:08:04.940973600,4.1669736328125,-0.0355640363189941,-0.0039741504006087,0.1210488331599673,-0.0020850414875894,-0.3157716654753804,0.8649637186545865,-0.7151246584641539,left,-0.0018967986106872,-0.8007226828075822,-0.2427540048797614,-6.82295567600727,-0.3707738280547044,0.0034599902573972,-0.0001994129270315,7.0397963459461925,-0.0018929839134216
2025-04-30 01:08:04.980973600,4.2069736328125,-0.0355640363189941,-0.0064105656929314,0.1210488331599673,-0.002253795042634,-0.3157716654753804,0.8649637186545865,-0.7151246584641539,left,-0.0030853748321533,-0.8007226828075822,-0.2427540048797614,-6.82295567600727,-0.3707738280547044,0.002477750647813,-0.0005078315734863,7.0397963459461925,-0.0031002759933471
2025-04-30 01:08:05.020973600,4.2469736328125,-0.0364124662154985,-0.0274458937346935,0.1206329770342598,0.0017277235165238,-0.3158790534416922,0.8650889850026087,-0.7155917514912993,left,-0.0050064921379089,-0.7998987946664253,-0.2487537384849041,-6.828540198141336,-0.3705253024289456,0.0073355250060558,-0.0017024986445903,7.03416915371418,-0.0016523599624633
2025-04-30 01:08:05.060973300,4.286973388671875,-0.0375083638819229,-0.0260350108146667,0.1203673565917689,0.0059100668877363,-0.3165245083073337,0.8650073918600418,-0.717415187966425,left,-0.0014246106147766,-0.7991145620460751,-0.256443781530857,-6.833774591663479,-0.3702514501713823,0.0207206197082996,-0.0037199556827545,7.028808503463864,0.0018818974494934
2025-04-30 01:08:05.100973600,4.3269736328125,-0.0386012928527055,-0.0246241278946399,0.1201016350354554,0.0100924102589488,-0.3171696717573641,0.8649252361043193,-0.7192355348738041,left,0.0021569728851318,-0.7983287432473488,-0.2641255316725001,-6.839007231619954,-0.3699773661276386,0.0341057181358337,-0.0057382490485906,7.023432071122527,0.0054176449775695
2025-04-30 01:08:05.140973600,4.3669736328125,-0.0387049857764756,-0.0101966746151447,0.1199039381703034,0.0043744491413235,-0.3175794290141328,0.8651240480512596,-0.7199269922130772,left,0.0008088946342468,-0.7966351620239916,-0.2652945571855641,-6.850855490323901,-0.3692243222980276,0.048176497220993,-0.0035381931811571,7.011831065177917,0.0027310252189636
2025-04-30 01:08:05.180973600,4.4069736328125,-0.0382858577995581,-0.0067255534231662,0.1198059209364844,0.0042527578771114,-0.3176919557001493,0.8653920099757754,-0.719745968082002,left,-0.0003561377525329,-0.7951516677568763,-0.262821024945192,-6.861352918940782,-0.3685307036218449,0.0378329157829284,-0.0012847986072301,7.001652785512805,-0.0019643902778625
2025-04-30 01:08:05.220973600,4.4469736328125,-0.0378676958489909,-0.0032544317655265,0.1197078442013421,0.004131066147238,-0.3178043138631115,0.8656595855899841,-0.7195662118805594,left,-0.0015228390693664,-0.7936682423955467,-0.26034478929108,-6.871834565466642,-0.3678368694935247,0.0274893306195735,0.0009683277457952,6.99145930827856,-0.0066582560539245
2025-04-30 01:08:05.260973600,4.4869736328125,-0.0378676958489909,-0.0024573979899287,0.1197078442013421,0.0019953493028879,-0.3178043138631115,0.8656595855899841,-0.7195662118805594,left,-0.0024961829185485,-0.7936682423955467,-0.26034478929108,-6.871834565466642,-0.3678368694935247,0.0044349376112222,0.0010163020342588,6.99145930827856,0.0009318590164184
2025-04-30 01:08:05.300973300,4.526973388671875,-0.037866170268128,0.0025863582268357,0.1195578216576044,-0.0012089149095118,-0.3177690901806442,0.8658132672548973,-0.7193636960570665,left,-0.0016165971755981,-0.7929835883294867,-0.2605154514165595,-6.876615954524278,-0.3675541574088298,0.0089734587818384,0.0004681982100009,6.986749230891466,0.0001457333564758
2025-04-30 01:08:05.340973600,4.5669736328125,-0.037866170268128,0.0076301144436001,0.1195578216576044,-0.0044131795875728,-0.3177690901806442,0.8658132672548973,-0.7193636960570665,left,-0.0012245774269104,-0.7929835883294867,-0.2605154514165595,-6.876615954524278,-0.3675541574088298,0.0135119799524545,-9.73138958215e-05,6.986749230891466,-0.0011207461357116
2025-04-30 01:08:05.380973600,4.6069736328125,-0.0377766999483031,-0.0009239427745342,0.1193277248544909,-0.0002290485426783,-0.3176683739100673,0.8660783339740568,-0.71889868635925,left,-7.78436660766e-05,-0.7918765471948523,-0.2601921560126357,-6.884364376693964,-0.3670912354512657,0.0089069325476884,-0.0008268039673566,6.979127065449953,-0.002528965473175
2025-04-30 01:08:05.420973600,4.6469736328125,-0.037905777481895,0.0012925281189382,0.1192113922238072,0.0003282222314737,-0.317724950649536,0.8661545849661372,-0.7190003287982399,left,-0.0007722377777099,-0.7913993194372346,-0.2612069773446768,-6.887658742064237,-0.3669002188912081,0.0074747186154127,-0.0003457814455032,6.975838545298576,7.30752944946e-05
2025-04-30 01:08:05.460973600,4.6869736328125,-0.037905777481895,0.0035089992452412,0.1192113922238072,0.0008854929474182,-0.317724950649536,0.8661545849661372,-0.7190003287982399,left,-0.0018026232719421,-0.7913993194372346,-0.2612069773446768,-6.887658742064237,-0.3669002188912081,0.0060425046831369,3.17711383104e-05,6.975838545298576,0.0023397207260131
2025-04-30 01:08:05.500973600,4.7269736328125,-0.0378287476616821,0.0072446055710315,0.1189802687803829,-0.0047897594049572,-0.3176128483695207,0.8664150543011373,-0.7185218995480187,left,0.0005109906196594,-0.7903321952397895,-0.2609578066228888,-6.89511314972341,-0.3664570000227297,0.0189872644841671,-0.0007066298276185,6.968478830185532,-0.0016419887542724
2025-04-30 01:08:05.540973300,4.766973388671875,-0.0382858944017914,0.0010159835219383,0.1186666095121469,-0.0075535830110311,-0.3175781567176035,0.866565423035494,-0.7185143412504269,left,-0.000720202922821,-0.78964258513492,-0.2642937095799483,-6.899793416494131,-0.3662330616788689,0.0166542008519172,-0.0005310382694005,6.963719068437815,-0.0018467307090759
2025-04-30 01:08:05.580973600,4.8069736328125,-0.0382858944017914,-0.0052126380614936,0.1186666095121469,-0.010317406617105,-0.3175781567176035,0.866565423035494,-0.7185143412504269,left,-0.002428650856018,-0.78964258513492,-0.2642937095799483,-6.899793416494131,-0.3662330616788689,0.0143211372196674,-0.0006956215947866,6.963719068437815,-0.0025368928909301
2025-04-30 01:08:05.620973600,4.8469736328125,-0.0390915663794499,0.0023091472685337,0.1181429548918778,-0.0071683963760733,-0.317565246928385,0.866803037171498,-0.7186198981490644,left,-0.0007569789886474,-0.7884729937058577,-0.2701707118545658,-6.907711934533715,-0.3658509764855598,0.0081230103969573,-0.0034373048692941,6.955638637834787,0.0009411573410034
2025-04-30 01:08:05.660973600,4.8869736328125,-0.039177935933114,0.0027468507178127,0.117954987552783,-0.0085959155112504,-0.3173872001488891,0.8669523947875653,-0.7181729396808254,left,-6.68168067932e-05,-0.7880582209985357,-0.2708803214286454,-6.910571415618062,-0.3657123616900465,0.00834172219038,-0.0017348006367683,6.952770388922095,0.0008201599121093
2025-04-30 01:08:05.700973600,4.9269736328125,-0.039177935933114,0.0031845541670918,0.117954987552783,-0.010023433715105,-0.3173872001488891,0.8669523947875653,-0.7181729396808254,left,0.0003318786621093,-0.7880582209985357,-0.2708803214286454,-6.910571415618062,-0.3657123616900465,0.0085604339838027,-0.0001046564429998,6.952770388922095,0.0004066824913024
2025-04-30 01:08:05.740973600,4.9669736328125,-0.0394719154391779,4.41228039562e-05,0.11758729303664,-0.003018595278263,-0.3171795943478523,0.8672070722578479,-0.7176626995429126,left,2.69412994384e-05,-0.7871710651506255,-0.2731551710254513,-6.916651612314581,-0.3654067987696847,0.0153268929570913,-8.5197389125e-06,6.946632324558496,3.30209732055e-05
2025-04-30 01:08:05.780973300,5.006973388671875,-0.0398280263975258,-0.0022473135031759,0.1172974006956493,-0.0037279475945979,-0.3172348106451374,0.8673760199473537,-0.7177752934643702,left,-0.0010372400283813,-0.7862295781122628,-0.2758785315747372,-6.923086029276251,-0.3650509028070989,0.0186331290751695,-0.000395705923438,6.940111982879042,-0.0001989006996154
2025-04-30 01:08:05.820973600,5.0469736328125,-0.0401836044790452,-0.0045387498103082,0.1170074855394144,-0.0044372999109327,-0.31728992582859,0.8675447358506752,-0.717887196463078,left,-0.0021020770072937,-0.7852879968507084,-0.2786026045100763,-6.929513431975245,-0.3646949018407853,0.0219393651932477,-0.0007827952504158,6.9335852114588015,-0.0004300475120544
2025-04-30 01:08:05.860973600,5.0869736328125,-0.0407705857338828,-0.0063635255210101,0.1166523844174331,-0.0015120394527912,-0.3174602930620495,0.8677007422995695,-0.7183345942041843,left,-0.0039191842079162,-0.7841912668714677,-0.2829798332136124,-6.936942705193162,-0.3642891094733742,0.0292038954794406,-0.0002930704504251,6.925975320976972,-0.0026143193244934
2025-04-30 01:08:05.900973600,5.1269736328125,-0.0418147358777962,-0.0271066706627607,0.1162303598734965,0.0042064301669597,-0.3181704207789951,0.8677870063985785,-0.7201026620385194,left,-0.0031757354736328,-0.7824428675468524,-0.2907286572420969,-6.94873192718625,-0.3635983582201024,0.0398793332278728,-0.0011854507029056,6.913826033499837,-0.0020650625228881
2025-04-30 01:08:05.940973600,5.1669736328125,-0.0428526986363024,-0.04784981533885,0.1158082054375548,0.0099248997867107,-0.3188801321147269,0.8678722106074538,-0.7218649439518807,left,-0.0024342536926269,-0.7806931587124908,-0.2984587948364205,-6.96050127543509,-0.3629072038042241,0.050554770976305,-0.0020797178149223,6.9016463508844375,-0.0015127062797546
2025-04-30 01:08:05.980973600,5.2069736328125,-0.0445857438063308,-0.0660800486803054,0.1152369416614645,0.0185095109045505,-0.3200805302057277,0.8678728919309248,-0.7249550613194607,left,-0.0076392889022827,-0.7784291372192931,-0.3112168801279738,-6.975566158097982,-0.3620297438732108,0.0551144480705261,0.0009421538561582,6.885855492034554,-0.0005122423171997
2025-04-30 01:08:06.020973600,5.2469736328125,-0.0499419201070237,-0.2345804870128631,0.114337942442724,0.0675028413534164,-0.3246544408620632,0.867003005528995,-0.7369462724028902,left,-0.0086578726768493,-0.7740560557637712,-0.3500744705822318,-7.0038067486763,-0.3603221353124591,0.1069987341761589,-0.0008581914007663,6.855254602065682,-0.0112196207046508
2025-04-30 01:08:06.060973300,5.286973388671875,-0.0552018538970451,-0.4030808806419372,0.113436020135578,0.1164961755275726,-0.3292200850841962,0.8661111129261188,-0.7488534745191027,left,-0.0096769928932189,-0.7696376164286519,-0.3885764525318518,-7.03204324760139,-0.3586053753495121,0.1588830202817917,-0.0026948414742946,6.824203630241751,-0.0218809843063354
2025-04-30 01:08:06.100973600,5.3269736328125,-0.0668749454012546,-0.496713787317276,0.1111845876125431,0.1295449137687683,-0.338199010404677,0.8641706404833547,-0.7728348211715625,left,-0.001574695110321,-0.7612747085753396,-0.4744310276890173,-7.083725504043698,-0.3556240955383472,0.1986483186483383,-0.0015428811311721,6.76506755066216,-0.0063326954841613
2025-04-30 01:08:06.140973600,5.3669736328125,-0.0814120592843079,-0.5395663976669312,0.1081795398039602,0.126280203461647,-0.3491571928004727,0.8616343607780422,-0.8021113725852588,left,0.0042250156402587,-0.7509064469504507,-0.5830271576168016,-7.145607667461038,-0.352097372035398,0.2147368639707565,-0.0014878250658512,6.691094551956653,-0.00772225856781
2025-04-30 01:08:06.180973600,5.4069736328125,-0.0953916030484191,-0.5824190378189087,0.1051584521554225,0.1230155080556869,-0.3600637470235343,0.858970561869035,-0.830897929847368,left,0.0100181698799133,-0.740235599304932,-0.6896208982136101,-7.20742670251429,-0.3485185695191265,0.2308254092931747,-0.0016369596123695,6.614212387806177,-0.0088152289390563
2025-04-30 01:08:06.220973600,5.4469736328125,-0.1106529899393175,-0.5904817581176758,0.1015124132883388,0.1166340932250022,-0.3713987865306803,0.8560428666546434,-0.8609302491411551,left,0.0028223395347595,-0.7286769921802689,-0.8079203107059001,-7.27156453590393,-0.3448892741690998,0.2310807108879089,0.0013644248247146,6.530083905789256,-0.0066670775413513
2025-04-30 01:08:06.260973600,5.4869736328125,-0.1260945451757135,-0.5964495539665222,0.097531221168094,0.1017043218016624,-0.3827126240940183,0.8529703326972331,-0.8907869078893978,left,0.0032151341438293,-0.7166030753609263,-0.9299520415943116,-7.335909874564408,-0.3412628573610773,0.2419114261865615,-0.0015524849295616,6.441273403435945,-0.0056649446487426
2025-04-30 01:08:06.300973300,5.526973388671875,-0.1408946263436619,-0.6024174094200134,0.0935337758466627,0.086774542927742,-0.3939626857788771,0.8497557143213408,-0.920082360894484,left,0.003574788570404,-0.7041917287798196,-1.0495645825117823,-7.399930219054221,-0.3375796034478008,0.2527421414852142,-0.004716083407402,6.34900253149569,-0.0043099522590637
2025-04-30 01:08:06.340973600,5.5669736328125,-0.1553834164495285,-0.5734089612960815,0.0891741246195094,0.0901784673333168,-0.404944464260534,0.8465901687995402,-0.948331292882294,left,-0.0044449567794799,-0.6908968123592344,-1.1696272052843122,-7.466684372422098,-0.33369596866106,0.2542573809623718,0.0014043152332305,6.249078514453768,0.0027534365653991
2025-04-30 01:08:06.380973600,5.6069736328125,-0.1678147988916012,-0.5405550599098206,0.0851063404438537,0.0824373215436935,-0.4150291731714391,0.843664859739473,-0.973623600858634,left,-0.0010124444961547,-0.6777550641261341,-1.2759632082603871,-7.531892465391754,-0.3297533407272882,0.2493310719728469,-0.0007719844579696,6.149219963863492,0.002869963645935
2025-04-30 01:08:06.420973600,5.6469736328125,-0.1796899913306391,-0.5077012181282043,0.0810264151572417,0.0746961683034896,-0.4250548082180406,0.8406194180033093,-0.9984415863316874,left,0.0023567080497741,-0.6643760329118819,-1.379894999638945,-7.596479796114563,-0.3257637499345381,0.2444047629833221,-0.003193512558937,6.046467445397377,0.0032815337181091
2025-04-30 01:08:06.460973600,5.6869736328125,-0.190227405170272,-0.454654335975647,0.077147909556369,0.0638875737786293,-0.4340363089663208,0.8378112332297778,-1.0204453363151151,left,0.0046151280403137,-0.6518374245731438,-1.4740842724211514,-7.655366869369149,-0.3220762136097118,0.2155607342720031,-0.0035994946956634,5.949186636340618,0.0149444937705993
2025-04-30 01:08:06.500973600,5.7269736328125,-0.1983288208649337,-0.3653194606304168,0.0740226463231657,0.0462409630417823,-0.4408059624908045,0.8356183332266107,-1.0369909332246945,left,0.0038501620292663,-0.64210845966167,-1.5473855093449354,-7.699555555185675,-0.3193001100369243,0.1846807599067688,-0.0043567866086959,5.873059089949726,0.0185855031013488
2025-04-30 01:08:06.540973300,5.766973388671875,-0.2061713299682274,-0.2759845852851867,0.0708923453233761,0.0285943560302257,-0.4475457075403545,0.8333686787770596,-1.0533194666740724,left,0.0030440688133239,-0.6322748856387833,-1.6194662645630538,-7.743341505420208,-0.3165023391383131,0.1538007855415344,-0.0052385479211807,5.795548564767837,0.0223675370216369
2025-04-30 01:08:06.580973600,5.8069736328125,-0.2110809956763547,-0.1982516795396804,0.0685488399436743,0.0206139683723449,-0.4518730425447448,0.8320769138033334,-1.063409396827909,left,-0.0005696415901184,-0.624792317521032,-1.6665031794175504,-7.777482844474911,-0.3142606669409041,0.1367295086383819,-0.0035702884197235,5.736192704957723,0.012658953666687
2025-04-30 01:08:06.620973600,5.8469736328125,-0.2137576347610877,-0.165073275566101,0.0667940007292632,0.0199822001159191,-0.4546005431221392,0.8314947362378187,-1.0692077297859328,left,-0.0037185549736022,-0.6187037654148322,-1.694692039808631,-7.806980157116055,-0.3122392088892056,0.1317677944898605,-0.0018414556980133,5.687658683413267,0.0036733150482177
2025-04-30 01:08:06.660973600,5.8869736328125,-0.216379580358703,-0.1318948566913604,0.0650381685335073,0.0193504318594932,-0.4573212560986336,0.8309001614772152,-1.0749612327672362,left,-0.0068901777267456,-0.6126028139388434,-1.722573733946681,-7.836255935961008,-0.3102131029318407,0.1268060803413391,-0.0001439899206161,5.638813696223497,-0.0052807331085205
2025-04-30 01:08:06.700973600,5.9269736328125,-0.2184917326305201,-0.1272301077842712,0.0634603379541479,0.0231142397969961,-0.4597875726643353,0.8303951360701617,-1.0800088761479976,left,-0.0032615065574645,-0.6068452152882571,-1.7461296738401055,-7.864163933584093,-0.3082401551042841,0.1146562099456787,-3.24696302413e-05,5.592525407779217,-0.001940369606018
2025-04-30 01:08:06.740973600,5.9669736328125,-0.2199556750634491,-0.0993315279483795,0.0621748096909276,0.0228940695524215,-0.4618461873766057,0.8300129702795217,-1.0840459876775996,left,-0.0042857527732849,-0.6018194376859333,-1.7637506707265973,-7.888929541528224,-0.3064486973742433,0.1070334166288375,-0.0029287636280059,5.551968356463313,0.0019583106040954
2025-04-30 01:08:06.780973300,6.006973388671875,-0.221390074925877,-0.0714329481124877,0.0608886901763356,0.022673899307847,-0.4639005459674804,0.8296230507972704,-1.0880603321883988,left,-0.0053257346153259,-0.5967887278532739,-1.7811754143886267,-7.913540251171589,-0.3046543822465816,0.099410630762577,-0.0058450698852539,5.511231856927275,0.0058754682540893
2025-04-30 01:08:06.820973600,6.0469736328125,-0.2211515332814469,-0.0352232232689857,0.0601421522652873,0.0344253815710544,-0.4651468153009534,0.8296362310815905,-1.089745794714496,left,-0.0019230246543884,-0.5925511453645333,-1.784394522565603,-7.936679134696721,-0.3028611700960067,0.0931895300745964,-0.0071526914834976,5.476809362843633,0.0054349899291992
2025-04-30 01:08:06.860973600,6.0869736328125,-0.2186273279820201,0.0112762302160263,0.0601070084816685,0.0416756533086299,-0.4652432786015837,0.830248207210082,-1.0881283039492815,left,-0.0050867199897766,-0.5893256118881698,-1.7681772549971937,-7.958361974194645,-0.3010375404586452,0.0854794383049011,-0.0094884932041168,5.450541533643007,0.0085108280181884
2025-04-30 01:08:06.900973600,6.1269736328125,-0.2161148722074689,0.057775679975748,0.0600716474349822,0.0489259250462055,-0.4653380509649327,0.8308571504125002,-1.0865242385962173,left,-0.0082623958587646,-0.5860968298942882,-1.751941428858787,-7.979927324792742,-0.2992128330423453,0.0777693539857864,-0.01182621717453,5.424190702334046,0.0115951299667358
2025-04-30 01:08:06.940973600,6.1669736328125,-0.2109323851820338,0.0617907978594303,0.0607971318568593,0.062682569026947,-0.4645354746478868,0.832046999260557,-1.081922966042376,left,-0.006594181060791,-0.5832248302333096,-1.7138168653868138,-8.004099643018842,-0.2969986575255227,0.0868341624736785,-0.0089530050754547,5.400704612806439,0.0068207383155822
2025-04-30 01:08:06.980973600,6.2069736328125,-0.2057755978982555,0.0658059194684028,0.0615221649002976,0.0764392092823982,-0.4637294272683316,0.8332306832156805,-1.0773483566529198,left,-0.0049448609352111,-0.5803331462222425,-1.6757028233088551,-8.02808491424024,-0.2947822878197937,0.0958989709615707,-0.006078690290451,5.377012187051773,0.0020673871040344
2025-04-30 01:08:07.020973600,6.2469736328125,-0.2006443660764541,0.0698210373520851,0.0622467465652986,0.0901958495378494,-0.4629198196383209,0.8344081032370835,-1.072800018299278,left,-0.0033146739006042,-0.5774218471551336,-1.6375997410163283,-8.05188313845694,-0.2925637239251596,0.1049637794494628,-0.0032032281160354,5.353113425070047,-0.0026650428771972
2025-04-30 01:08:07.060973300,6.286973388671875,-0.195650618034909,0.0416258759796619,0.0628235643740005,0.0945294648408889,-0.4633474628597678,0.8351774822815687,-1.070797788705066,left,-0.0031938552856445,-0.572665345343002,-1.6023023637942968,-8.084845496860146,-0.2895527106936557,0.1167362183332443,-0.0034533590078353,5.313970332205296,-0.0041727423667907
2025-04-30 01:08:07.100973600,6.3269736328125,-0.1906834704726142,0.0134307108819484,0.063399743355897,0.0988630801439285,-0.4637704911349898,0.835938390497165,-1.068830169020758,left,-0.0031071305274963,-0.5679005781654474,-1.566905325590074,-8.117474093264342,-0.2865387573577927,0.1285086572170257,-0.0037136226892471,5.274638438770174,-0.0056613683700561
2025-04-30 01:08:07.140973600,6.3669736328125,-0.1857423287335971,-0.014764454215765,0.0639752750848378,0.103196695446968,-0.4641887043093686,0.8366906852856343,-1.0668961247695086,left,-0.0030544996261596,-0.5631274844808816,-1.531408772534132,-8.149767758625746,-0.283521844602058,0.1402811110019683,-0.003984048962593,5.235117744764685,-0.007130742073059
2025-04-30 01:08:07.180973600,6.4069736328125,-0.1814412607022281,-0.0353670082986354,0.0643379699288086,0.1090325117111206,-0.465350397857435,0.8371167147619794,-1.0667817786371645,left,-0.0052326917648315,-0.5575376960974372,-1.5015990329429507,-8.18493434907496,-0.2802590021836444,0.1376844346523285,-0.0025171488523483,5.188683325847983,-0.0066100358963012
2025-04-30 01:08:07.220973600,6.4469736328125,-0.1782162229458365,-0.047371182590723,0.0644224639986614,0.1066082641482353,-0.4670588068861817,0.8372114074803743,-1.0683097878526902,left,-0.0045171380043029,-0.5517234987140397,-1.4805176664695143,-8.21928611600995,-0.2770970476058787,0.1401848196983337,-0.0018461197614669,5.140213017189502,-0.0030837059020996
2025-04-30 01:08:07.260973600,6.4869736328125,-0.1749922481365011,-0.0593753606081008,0.0645060991252551,0.1041840091347694,-0.4687611578895844,0.8372952700236322,-1.0698542436315108,left,-0.0038374066352844,-0.5459134493699647,-1.459186124627292,-8.25328600076735,-0.2739314902333088,0.142685204744339,-0.0012005716562271,5.091603592321277,0.0004568696022033
2025-04-30 01:08:07.300973300,6.526973388671875,-0.1716696307506384,-0.0624559447169303,0.0645156904831942,0.1016346216201782,-0.4705537284979054,0.8373928393524159,-1.0714917013564045,left,0.0034974217414855,-0.5396164827604553,-1.4372041560523212,-8.289515252012015,-0.2705365923165895,0.1496069580316543,-0.0039843022823333,5.038725988614559,0.0013315677642822
2025-04-30 01:08:07.340973600,6.5669736328125,-0.1680423066056987,-0.0226921960711479,0.0645538502699517,0.0923506692051887,-0.4716372397129146,0.8378146253710738,-1.0714909748990344,left,0.0027577280998229,-0.5338066196713382,-1.4119985492557283,-8.323395894303918,-0.2673157258739814,0.1412986665964126,-0.0009939223527908,4.989761758959293,0.0003250241279602
2025-04-30 01:08:07.380973600,6.6069736328125,-0.1644273791363945,0.0170715525746345,0.0645912567635208,0.0830667093396186,-0.472715208324582,0.8382265519167822,-1.0715146333361774,left,0.0019800662994384,-0.5279968469222639,-1.386622700458765,-8.356903611630202,-0.2640917623396933,0.1329903751611709,0.001979112625122,4.940629771521687,-0.0006644129753112
2025-04-30 01:08:07.420973600,6.6469736328125,-0.1600973912359161,0.053989004343748,0.0648820415864168,0.0671435520052909,-0.4727370486570951,0.8390940511973629,-1.0690843071149123,left,0.0054971575736999,-0.5232587500612084,-1.3541411113098265,-8.385845043954253,-0.2612110108645922,0.1198842525482177,0.0042301714420318,4.900437461864948,-0.0093746185302734
2025-04-30 01:08:07.460973600,6.6869736328125,-0.1561650113942999,0.0534611120820045,0.0651238290782179,0.0603361502289772,-0.4721982120103967,0.8401157369494013,-1.0656907501170114,left,0.0041296482086181,-0.5194447966682934,-1.32405167799443,-8.409507074570655,-0.2588307269817061,0.1052162498235702,0.0065786838531494,4.868004388032853,-0.0145024359226226
2025-04-30 01:08:07.500973600,6.7269736328125,-0.1522559855728877,0.0529332160949707,0.0653651533937879,0.0535287484526634,-0.4716559717104137,0.8411314123326284,-1.062321538376385,left,0.0027412772178649,-0.5156191729200045,-1.2939837258584796,-8.432964522525667,-0.2564485644393614,0.0905482396483421,0.0089294016361236,4.835400926069915,-0.0196128785610198
2025-04-30 01:08:07.540973300,6.766973388671875,-0.1492679232819988,0.036709189414978,0.0654810101159509,0.0312508344650268,-0.4712887807916796,0.8419226605117464,-1.0598038944602033,left,0.005103051662445,-0.5123692349687273,-1.2711100691407915,-8.452288816198706,-0.2544905255985046,0.0751306638121604,0.0075291618704795,4.807648119008541,-0.0192440152168273
2025-04-30 01:08:07.580973600,6.8069736328125,-0.1479950748701157,0.0360465906560421,0.0653970525355946,0.0200464352965354,-0.4708016475480997,0.8424614131258537,-1.0579226834313398,left,0.0053549408912658,-0.5108558235603783,-1.261422057210654,-8.461086455160379,-0.2536293630245119,0.0532681345939636,0.004272386431694,4.79470680437088,-0.017939954996109
2025-04-30 01:08:07.620973600,6.8469736328125,-0.1467265314200669,0.0353839881718158,0.0653130180833601,0.0088420389220118,-0.4703138759899639,0.8429990187349256,-1.0560451177754826,left,0.0056042075157165,-0.5093402684449809,-1.2517486583277582,-8.469858375158905,-0.2527678661238244,0.0314056053757667,0.0010171085596084,4.78173655589968,-0.0166329145431518
2025-04-30 01:08:07.660973600,6.8869736328125,-0.1454623873283544,0.0347213894128799,0.0652289042960346,-0.0023623593151569,-0.4698255890098293,0.8435356536418104,-1.0541716674139665,left,0.0058507919311523,-0.507822785973143,-1.2420908954054115,-8.478603991672395,-0.2519060819536237,0.009543078020215,-0.0022365897893905,4.768738542638719,-0.0153230130672454
2025-04-30 01:08:07.700973600,6.9269736328125,-0.1449505757047304,0.0267001874744892,0.0653663534269384,-0.006686654407531,-0.469360471283974,0.8437728125145032,-1.0529794897469034,left,0.0017808675765991,-0.5081089455183497,-1.2375541287586092,-8.47788795235753,-0.2519429379360785,-0.0082716476172208,-0.0046718120574951,4.771190319705009,-0.0095418393611907
2025-04-30 01:08:07.740973600,6.9669736328125,-0.1444383720550383,0.0186789873987436,0.0655037886870097,-0.0110109504312276,-0.4688952643701726,0.844009872346409,-1.051787231512835,left,-0.0022891759872436,-0.5083948020248835,-1.2330151701547205,-8.477170743998885,-0.2519797884738531,-0.0260863713920116,-0.0071072727441787,4.773639466422796,-0.0037603676319122
2025-04-30 01:08:07.780973300,7.006973388671875,-0.1444457179893591,0.0045794313773512,0.0656704166579395,-0.0009679486975073,-0.4686511622218964,0.8440206689967222,-1.051403596517532,left,-0.0042982101440429,-0.5092668888598791,-1.232477848407626,-8.47303875876069,-0.2523541653067391,-0.0182331167161464,-0.0059062391519546,4.781108194868266,-0.0063048899173736
2025-04-30 01:08:07.820973600,7.0469736328125,-0.1444227759106657,-0.0139338849112391,0.065722493610679,0.0131415305659174,-0.4690216550937532,0.8438503553852646,-1.052221080514063,left,-0.0050756335258483,-0.5090240791542991,-1.2324503758788108,-8.474215985846518,-0.2522216983188977,-0.0017028637230396,-0.0067043751478195,4.779029050506651,-0.0039436221122741
2025-04-30 01:08:07.860973600,7.0869736328125,-0.1443995997243213,-0.032447200268507,0.0657745675819487,0.0272510107606649,-0.4693920587776636,0.8436799427330202,-1.053038496640022,left,-0.0058531165122985,-0.5087813561140598,-1.2324208575233817,-8.475392043888569,-0.2520891981447083,0.014827387407422,-0.0075027346611022,4.776950490666926,-0.0015823543071746
2025-04-30 01:08:07.900973600,7.1269736328125,-0.1434154987854714,-0.0327805951237678,0.0660590332961246,0.0393928475677967,-0.4701280484945919,0.8434672114982723,-1.0542412194318955,left,-0.0034303069114685,-0.5076555528853637,-1.2248474996596574,-8.48191764626503,-0.2513538103202979,0.0254159793257713,-0.0061458423733711,4.767305294965207,-0.0028165876865386
2025-04-30 01:08:07.940973600,7.1669736328125,-0.1424304481162176,-0.0331139899790287,0.0663434474168767,0.0515346862375736,-0.4708635010107961,0.8432535650446733,-1.0554446172604155,left,-0.0010097026824951,-0.50653093285424,-1.2172520760945975,-8.488422205853462,-0.2506181461157374,0.0360045731067657,-0.0047912076115608,4.7576644831776616,-0.0040511488914489
2025-04-30 01:08:07.980973600,7.2069736328125,-0.1409612289876578,-0.0273122433573007,0.0666846071586509,0.0465345233678817,-0.4718822794127509,0.8430063552130479,-1.0570113060670951,left,0.0009793639183044,-0.5046420471568533,-1.2060398502718657,-8.499083885121346,-0.2494403314327787,0.0321186520159244,-0.0025766119360923,4.7414583215251564,-0.001272439956665
2025-04-30 01:08:08.020973600,7.2469736328125,-0.1394901582155033,-0.0215104967355728,0.0670256022673038,0.0415343642234802,-0.4728998485948148,0.8427570058954746,-1.0585796185028926,left,0.0029630064964294,-0.5027552380211094,-1.1947775747623297,-8.509692957419157,-0.2482618758380974,0.0282327346503734,-0.000367097556591,4.725253036655485,0.0015061795711517
2025-04-30 01:08:08.060973300,7.286973388671875,-0.1384392287717377,0.0294779986143112,0.0672016675568346,0.0165071729570627,-0.4725012868261766,0.843074845136112,-1.0572377386906948,left,0.0019152164459228,-0.502355535190796,-1.1860943559605628,-8.512813719788193,-0.2478935511240321,0.0092063415795564,0.0016324967145919,4.721818093770742,0.0008703172206878
2025-04-30 01:08:08.100973600,7.3269736328125,-0.1373891414219576,0.0804664939641952,0.0673777045864407,-0.0085200201719999,-0.4721025129770347,0.8433924090331142,-1.0558966617278012,left,0.0008668899536132,-0.5019546718746943,-1.1774136213768274,-8.515929221460222,-0.2475251352770743,-0.0098200496286153,0.0036323592066764,4.718372044970095,0.0002356171607971
2025-04-30 01:08:08.140973600,7.3669736328125,-0.135880112409284,0.1084838360548019,0.0678332385856789,-0.0188971795141696,-0.4704304497259093,0.8441935127065265,-1.0517741897638064,left,0.0007877349853515,-0.5032707115651915,-1.163719369480014,-8.511535954937338,-0.2478529154844425,-0.0353322401642799,0.0026236176490783,4.72968195901364,-0.0065027177333831
2025-04-30 01:08:08.180973600,7.4069736328125,-0.1344102044388501,0.0911070704460144,0.0686047521132247,-0.013923542574048,-0.4686039329906742,0.8448793057702636,-1.0475935183845757,left,-0.0027813911437988,-0.505957199131793,-1.1495000707957892,-8.500615332472323,-0.2487621714773884,-0.0502213761210441,0.0005440264940261,4.752743685649335,-0.0107729136943817
2025-04-30 01:08:08.220973600,7.4469736328125,-0.1329253006348222,0.0737303048372268,0.0693759086328616,-0.0089499056339263,-0.4667750413731085,0.8455607088954329,-1.0434023230671667,left,-0.0063548684120178,-0.5086383218196799,-1.1351833030864595,-8.489652039909362,-0.2496701347575256,-0.0651105120778083,-0.0015455037355422,4.775725332786142,-0.015034943819046
2025-04-30 01:08:08.260973600,7.4869736328125,-0.1320657736270968,0.0452548190951347,0.0700917784960619,-0.0054304115474224,-0.4655954392062245,0.8458579357068239,-1.0409299512085393,left,-0.0038657784461975,-0.5113108984201994,-1.126201028272882,-8.477942312893271,-0.2506638903581249,-0.0544314458966255,-0.0024873167276382,4.798599427895248,-0.0133304893970489
2025-04-30 01:08:08.300973300,7.526973388671875,-0.1315013440844289,0.0431507155299186,0.070513492092713,0.0007954873144626,-0.465075279761391,0.845975456086361,-1.0398122936762428,left,-0.0047847628593444,-0.5126186014333766,-1.1205918831542134,-8.472347853887081,-0.2511141271158781,-0.0433001294732093,-0.0039967373013496,4.809779285818338,-0.0084638595581054
2025-04-30 01:08:08.340973600,7.5669736328125,-0.1309348021122806,0.0410466119647026,0.070935149169515,0.0070213857106864,-0.4645547734176114,0.8460923920740175,-1.038692835358506,left,-0.0057049393653869,-0.5139256944086044,-1.1149699516192078,-8.466741119921206,-0.2515641816078452,-0.0321688130497932,-0.005507469177246,4.820945699737965,-0.0035958886146545
2025-04-30 01:08:08.380973600,7.6069736328125,-0.1303662186578718,0.0389425083994865,0.0713567611340901,0.0132472850382328,-0.4640340093628327,0.8462088427105804,-1.037571918868497,left,-0.0066267251968383,-0.5152323617374468,-1.109335891254991,-8.46112035742998,-0.2520141063358896,-0.0210374966263771,-0.0070194527506828,4.832100423219799,0.0012733042240142
2025-04-30 01:08:08.420973600,7.6469736328125,-0.1281915999779082,0.0659659579396247,0.072217718803494,0.0193612854927778,-0.4630153168197985,0.846666431652978,-1.0347714940088777,left,-0.0080307722091674,-0.5164253688340376,-1.0901958681076764,-8.457789751702547,-0.2521057883836567,-0.0226422846317291,-0.0052477121353149,4.842277533841133,0.0027762651443481
2025-04-30 01:08:08.460973600,7.6869736328125,-0.1260116477480852,0.092989407479763,0.0730785153395026,0.0254752859473228,-0.4619956390632623,0.8471222891984596,-1.0319659838980533,left,-0.0094372630119323,-0.5176129703075795,-1.0710321718238294,-8.454435180577635,-0.25219694294958,-0.0242470726370811,-0.003478392958641,4.852401745231449,0.0042846500873565
2025-04-30 01:08:08.500973600,7.7269736328125,-0.1224825658727508,0.131888061761856,0.0744991761957981,0.0249141436070203,-0.4601323333237165,0.8479199128486733,-1.0269936738350978,left,-0.0061612129211425,-0.5198739649159086,-1.039846102378145,-8.447251406553388,-0.2525072192539697,-0.0541480705142021,-0.0049910768866539,4.87165735758245,0.0057847797870635
2025-04-30 01:08:08.540973300,7.766973388671875,-0.1184634309394454,0.144789919257164,0.076113600541557,0.0175108779221773,-0.4574794519968197,0.8490171919123687,-1.0202012362302633,left,-0.0049389600753784,-0.5230355043112601,-1.0040618184220045,-8.436026248183847,-0.2531581816173752,-0.056795559823513,-0.0030232667922973,4.89854098059386,0.0016824901103973
2025-04-30 01:08:08.580973600,7.8069736328125,-0.1144122680088246,0.1576917767524719,0.0777271542743439,0.0101076122373342,-0.4548213946712092,0.8501048194375271,-1.0133816850798618,left,-0.0037255883216857,-0.5261732162113749,-0.9681184714466332,-8.424713411530853,-0.2538063049902591,-0.0594430454075336,-0.0010716840624809,4.925173259192705,-0.0023942589759826
2025-04-30 01:08:08.620973600,7.8469736328125,-0.1103055972366578,0.1620839983224868,0.0792679428816817,0.0176648758351802,-0.4520239813920991,0.8512776560383767,-1.0061814003572185,left,-0.0043152570724487,-0.5291325110752209,-0.9319043447058648,-8.414094986882805,-0.254395642923322,-0.0456769615411758,-9.45851206779e-05,4.950246910172701,-0.006885290145874
2025-04-30 01:08:08.660973600,7.8869736328125,-0.1059334356282311,0.1298523396253585,0.0809013410100378,0.0274074170738458,-0.4499023366830615,0.8522004841208206,-1.0003300418536816,left,0.0019983649253845,-0.5313013574041245,-0.893970481500402,-8.407392858895658,-0.2545529699589949,-0.0493639335036277,0.0048409029841423,4.968596221333742,-0.0090307593345642
2025-04-30 01:08:08.700973600,7.9269736328125,-0.1015410093812623,0.0976206883788108,0.0825340921416029,0.0371499583125114,-0.4477770166108106,0.8531163627638306,-0.9944600606990536,left,0.0083034634590148,-0.5334479704969457,-0.8559499629247933,-8.400608313322067,-0.2547082341244726,-0.0530509017407894,0.0097675696015357,4.986733935570717,-0.0111546516418457
2025-04-30 01:08:08.740973600,7.9669736328125,-0.0985765172216237,0.0632867515087127,0.0838742602740564,0.0172984898090362,-0.4464393593398229,0.8535563872660316,-0.9908839829204444,left,0.009993553161621,-0.5357063696644272,-0.8299321629624813,-8.391879647943377,-0.2551436813670235,-0.0465734861791133,0.0129632353782653,5.005791102740169,-0.0123206675052642
2025-04-30 01:08:08.780973300,8.006973388671875,-0.0985587381402269,0.0297028347849845,0.0838303438353417,-0.0208359993994236,-0.4456896421243176,0.8538492769481303,-0.9892534203578822,left,0.0081644654273986,-0.5363745431989769,-0.8294537317957729,-8.388564824306965,-0.2554891206820043,-0.0132759287953376,0.0069671869277954,5.011424724712968,-0.0160931050777435
2025-04-30 01:08:08.820973600,8.0469736328125,-0.0985395689802038,-0.0038810856640338,0.0837863678953098,-0.0589704848825931,-0.4449393996339735,0.854141384156775,-0.9876215902793672,left,0.0063351392745971,-0.5370425481629504,-0.828963390995562,-8.385247078061104,-0.2558343445448521,0.0200216248631477,0.0009699165821075,5.017054255032539,-0.0198651254177093
2025-04-30 01:08:08.860973600,8.0869736328125,-0.1007120055267062,-0.0031151748262345,0.0827463905654649,-0.0487070456147193,-0.4447113566437338,0.8542788007290393,-0.9876422978870149,left,-0.0004013776779174,-0.53655213491004,-0.8474250764898955,-8.385873101004957,-0.2561102757931352,-0.0007540583610534,0.0030312240123748,5.012921685272455,-0.0040886402130126
2025-04-30 01:08:08.900973600,8.1269736328125,-0.1023530148002355,0.0097152739763259,0.0824428029189484,-0.0613971129059791,-0.4440392513682843,0.8542785370731583,-0.9869701536442094,left,-0.0022238492965698,-0.5386184454485075,-0.8601250566523522,-8.374149345463513,-0.2573720572230376,-0.0247171707451343,-0.0001816377043724,5.030326993581652,-0.0048568844795227
2025-04-30 01:08:08.940973600,8.1669736328125,-0.1039944666928735,0.0225457213819026,0.0821390402682032,-0.0740871801972389,-0.4433662381413941,0.8542765083157504,-0.9863012959620732,left,-0.004052460193634,-0.540685778959391,-0.8727882850009947,-8.362365384167433,-0.2586333057264138,-0.0486802831292152,-0.0033982396125793,5.047719442409277,-0.0056238770484924
2025-04-30 01:08:08.980973600,8.2069736328125,-0.1067175943970025,-0.0080622993409633,0.0812013837404079,-0.0691005140542984,-0.4427905706096642,0.8543341411432874,-0.9860055829921386,left,-0.0154647231101989,-0.541813659723127,-0.8949497748613358,-8.354291383305192,-0.2597229242326702,0.008019920438528,-0.0093780979514122,5.057199218416214,-0.0199064016342163
2025-04-30 01:08:09.020973600,8.2469736328125,-0.1086639378639884,-0.0267147123813629,0.0801744218196829,-0.0311354883015155,-0.4433897062283127,0.8542323814260789,-0.9876481003128078,left,-0.0120273232460021,-0.5400684499604912,-0.9121642367735504,-8.361295124587416,-0.2593542948810524,0.0099662458524107,-0.0081560164690017,5.04252771898508,-0.0146971940994262
2025-04-30 01:08:09.060973300,8.286973388671875,-0.1106049245041679,-0.0453671254217624,0.0791473245622763,0.0068295337259769,-0.4439881024185739,0.8541292429176504,-0.9892847986762036,left,-0.0085942149162292,-0.5383204898016202,-0.9293631357904524,-8.368256195771695,-0.2589852762376661,0.0119125712662935,-0.0069355070590972,5.027818225631117,-0.0094839930534362
2025-04-30 01:08:09.100973600,8.3269736328125,-0.1119366656792011,-0.049046691507101,0.0790102346581555,-0.0092244613915681,-0.4447989258599473,0.8535942217642656,-0.9916914923827642,left,-0.004365861415863,-0.5388288672884468,-0.9402209952175616,-8.364469662970304,-0.2593994911750251,-0.0073024872690439,-0.0078709423542022,5.032098094907402,-0.0087912678718566
2025-04-30 01:08:09.140973600,8.3669736328125,-0.1132702256021775,-0.0527262575924396,0.0788730485666393,-0.0252784583717584,-0.4456092556580467,0.8530581744253576,-0.9940996736343992,left,-0.000137984752655,-0.5393343879334426,-0.9510870379511266,-8.360679623037576,-0.2598133802118398,-0.0265175476670265,-0.0088055580854415,5.036352245220542,-0.0080958008766174
2025-04-30 01:08:09.180973600,8.4069736328125,-0.1158989782106606,-0.085694745182991,0.0783152991106516,-0.0122484322637319,-0.4467072509823156,0.8523378707728189,-0.997573850032234,left,-0.0131856799125671,-0.539804509015934,-0.9727879976276308,-8.355798280736803,-0.2604602580676084,-0.0166050735861063,-0.0114332810044288,5.0403077048480505,-0.005427598953247
2025-04-30 01:08:09.220973600,8.4469736328125,-0.1178673145295405,-0.1040125861763954,0.078081887519619,0.0465952306985855,-0.4484729189921225,0.8513599625354692,-1.0023107025633735,left,-0.0197905302047729,-0.5397529983240906,-0.9892636238712816,-8.354124794566632,-0.2606940166267714,-0.0035031465813517,-0.0024318993091583,5.039874574127793,0.000399887561798
2025-04-30 01:08:09.260973600,8.4869736328125,-0.1177765684617164,-0.1015750542283058,0.078405118805713,0.0472581312060356,-0.4505473181886759,0.850462067111972,-1.0068863204752294,left,-0.0078595280647277,-0.5384492019780266,-0.9892767756137996,-8.360732814529538,-0.2599497532553425,0.0113773830235004,-0.0017586275935173,5.028901929214596,-0.0005987286567687
2025-04-30 01:08:09.300973300,8.526973388671875,-0.1176789720605795,-0.0991375222802162,0.0787279088223798,0.047921035438776,-0.4526191620539597,0.8495592626942026,-1.0114586495212612,left,0.0040704011917114,-0.5371458193846389,-0.9892295024059712,-8.367331482142209,-0.2592040040159538,0.0262579135596752,-0.0010915249586105,5.0179246081262825,-0.0015969276428222
2025-04-30 01:08:09.340973600,8.5669736328125,-0.1180539112729225,-0.0858467519283294,0.0788455451964427,0.0424962639808654,-0.4545593343189846,0.8486958271900481,-1.0158845348419203,left,0.0040869712829589,-0.5359143883160786,-0.9930937766186893,-8.373090191799403,-0.258601182321178,0.0128489965572953,-0.0003993362188339,5.007545252931117,0.0007910728454589
2025-04-30 01:08:09.380973600,8.6069736328125,-0.1183273131643476,-0.0581058785319328,0.0790484910046038,0.0301426704972982,-0.4558773740502172,0.8480323782074021,-1.0190018334766702,left,0.0018224716186523,-0.535566199099868,-0.9955887352395802,-8.374549158436059,-0.2583953250265081,-0.0089724631980061,-0.0001380294561386,5.004609199479222,0.0045208930969238
2025-04-30 01:08:09.420973600,8.6469736328125,-0.1185993667748677,-0.0303650051355361,0.0792512504009135,0.017789077013731,-0.4571943393800008,0.8473670987870529,-1.0221183022857352,left,-0.0004416108131408,-0.5352173123861704,-0.998073537792638,-8.376011632204055,-0.2581888823034497,-0.0307939238846302,0.0001222193241119,5.00166613176465,0.0082514286041259
2025-04-30 01:08:09.460973600,8.6869736328125,-0.1182927964183681,0.0265390127897262,0.0799665543762845,0.0039568627253174,-0.4572968848619651,0.8470065098707136,-1.0227108969903596,left,-0.0025330781936645,-0.5373172671774883,-0.9942638433113694,-8.365868423852325,-0.2589686286461742,-0.0799949467182159,0.0005895867943763,5.019368961715698,0.0095486640930175
2025-04-30 01:08:09.500973600,8.7269736328125,-0.1162476546550489,0.0995818376541137,0.081891164685063,-0.0270069539546966,-0.4543131590380329,0.8475184632274413,-1.0166583738038433,left,-0.000270664691925,-0.5449605172704495,-0.9726742350548504,-8.329535127711296,-0.2619269544874797,-0.1393508464097976,-0.0026474446058273,5.08361434713304,0.0102927088737487
2025-04-30 01:08:09.540973300,8.766973388671875,-0.1141386143649,0.1726246625185012,0.0838140005815342,-0.0579707771539688,-0.4513195966386682,0.8480120842092806,-1.010559112367653,left,0.0019485354423522,-0.5525929399322663,-0.9506579258188604,-8.292778053200244,-0.264879605329207,-0.1987067461013794,-0.0059279575943946,5.14747219453752,0.011076271533966
2025-04-30 01:08:09.580973600,8.8069736328125,-0.1119646107223177,0.2456674873828888,0.0857350313425586,-0.0889345929026603,-0.448316253147206,0.848487394594957,-1.0044118140977087,left,0.0041247606277465,-0.5602142349160459,-0.9282168883647768,-8.255599538406729,-0.2678265370956433,-0.2580626308917999,-0.0092517882585525,5.21093782775402,0.0118998289108276
2025-04-30 01:08:09.620973600,8.8469736328125,-0.1098937927993278,0.3114357888698578,0.0877135158316007,-0.1106967180967331,-0.4409520381467226,0.8503009197915053,-0.9892465476038484,left,0.0009360313415527,-0.5735726498160361,-0.9034037149518728,-8.18757989514768,-0.2735981449804373,-0.2705906927585602,-0.0077869370579719,5.321445782652497,0.0071648359298706
2025-04-30 01:08:09.660973600,8.8869736328125,-0.1075617581480287,0.3772040903568268,0.0896836753066213,-0.1324588358402252,-0.4335460278214182,0.8520338150040284,-0.9739147585518438,left,-0.0023696422576904,-0.5869027888509909,-0.8766139077037572,-8.118412835419177,-0.2793438177132132,-0.2831187546253204,-0.0065236613154411,5.430773587855696,0.0025502443313598
2025-04-30 01:08:09.700973600,8.9269736328125,-0.1049612898118812,0.4429723918437958,0.0916453570603522,-0.1542209684848785,-0.4260989413816063,0.8536860423818261,-0.9584070405376196,left,-0.005789577960968,-0.6002013803447085,-0.8478573304273188,-8.048125247228144,-0.2850630471276203,-0.2956468462944031,-0.0054609179496765,5.53888149587512,-0.0019398927688598
2025-04-30 01:08:09.740973600,8.9669736328125,-0.099033469274926,0.4406992793083191,0.0938183888251138,-0.127931922674179,-0.4170216295222526,0.8563688306635873,-0.937635021868682,left,-0.0100622773170471,-0.6118968506620556,-0.7936754391890019,-7.987997818523645,-0.2896956112324616,-0.2408657073974609,-0.0021827295422554,5.633147925546765,-0.0130398869514465
2025-04-30 01:08:09.780973300,9.006973388671875,-0.0927585303966565,0.4384261965751648,0.0959805587918233,-0.101642869412899,-0.4078960598808788,0.8589523802180324,-0.9166054580490812,left,-0.0143960714340209,-0.623487884646279,-0.7374382228560745,-7.9272718394041055,-0.2942946331158656,-0.1860845685005188,0.000885859131813,5.7258127652406685,-0.0239766240119934
2025-04-30 01:08:09.820973600,9.0469736328125,-0.0848944270806544,0.3993151485919952,0.0981238540039685,-0.0725444033741951,-0.3998007952737747,0.8615635879030683,-0.8966832713088367,left,-0.0095050930976867,-0.6314499548466953,-0.671188146552816,-7.887149672374129,-0.2970504783909799,-0.1286779046058654,-0.0017112269997596,5.789020624303817,-0.019544780254364
2025-04-30 01:08:09.860973600,9.0869736328125,-0.0756866498202536,0.3650857210159302,0.100238448918109,-0.0391414351761341,-0.3929622931277692,0.8641811452368658,-0.8784523732426909,left,-0.008909523487091,-0.6355241871338841,-0.5967492108359933,-7.86941235563159,-0.2978655472940997,-0.075525514781475,-0.0011173412203788,5.821222519728541,-0.0202325582504272
2025-04-30 01:08:09.900973600,9.1269736328125,-0.0663604803210825,0.3308562934398651,0.1023471389286657,-0.0057384632527828,-0.3861006384996815,0.8667477376080122,-0.8601209929973535,left,-0.0083111524581909,-0.6394618163115788,-0.5218087918704375,-7.851702511417865,-0.298663074734,-0.022373117506504,-0.0005746111273765,5.852253033286333,-0.0208008885383605
2025-04-30 01:08:09.940973600,9.1669736328125,-0.0571567186127223,0.2870771288871765,0.1042854880297406,0.0087547423318028,-0.3806567414080899,0.8690658272431199,-0.8446403047518636,left,0.0009521842002868,-0.6407305786541281,-0.449097958587855,-7.848753013962507,-0.2982439946579164,0.0020985659211874,-0.0028998889029026,5.862232575508952,-0.0119680166244506
2025-04-30 01:08:09.980973600,9.2069736328125,-0.0496961830645529,0.2380361557006836,0.1058308127908906,0.0194337368011474,-0.3768452957165996,0.870828259233194,-0.8333123048613226,left,-0.0011963844299316,-0.6406646508567269,-0.3905492869747802,-7.85227125121653,-0.2973977530419798,0.0024064816534519,-0.0010207183659076,5.861714104592799,-0.0058627128601074
2025-04-30 01:08:10.020973600,9.2469736328125,-0.0422376104702403,0.1889951825141906,0.1073739702201217,0.0301127284765243,-0.373026052334165,0.8725727109416916,-0.8219862199223475,left,-0.0033493041992187,-0.6405312135457438,-0.3320052550042048,-7.855747402894496,-0.2965454100584112,0.002714397618547,0.0008589215576648,5.860664887800812,0.0002966523170471
2025-04-30 01:08:10.060973300,9.286973388671877,-0.0358179542653752,0.1578581184148788,0.108831824782357,0.0286399722099304,-0.3701125034392545,0.8738973720522499,-0.8131099251702112,left,0.0053359866142272,-0.640370737023161,-0.2816012566030956,-7.858656568339467,-0.2957628350832688,0.0154284853488206,-0.0016592722386121,5.859402905040979,-0.0047257542610168
2025-04-30 01:08:10.100973600,9.3269736328125,-0.0312505324999119,0.1278301328420639,0.1096859502770642,0.0208033248782157,-0.3680144277132672,0.8749836408511315,-0.8066150275613101,left,0.0025233626365661,-0.6393999457558729,-0.2458822564355097,-7.865542236199975,-0.2948523745953874,0.0235216878354549,0.0001014582812786,5.851766126552223,-0.0064876675605773
2025-04-30 01:08:10.140973600,9.3669736328125,-0.026694348147331,0.0978021547198295,0.1105392984927826,0.012966675683856,-0.3659136773971537,0.8760636732017664,-0.8001303364526581,left,-0.0002926588058471,-0.6384054145233979,-0.2101981997171416,-7.87239517083466,-0.2939398161059986,0.031614888459444,0.0018657222390174,5.843937040361761,-0.0082300305366516
2025-04-30 01:08:10.180973600,9.4069736328125,-0.023746250134231,0.060957133769989,0.1110082721387726,0.008351101540029,-0.3645361523384577,0.8768311964239544,-0.7958420282243192,left,0.0020045638084411,-0.6373665532609545,-0.1871327650207094,-7.879045860895514,-0.2931853028552461,0.0254454091191291,0.0015337076038122,5.8357525648623705,-0.0094968676567077
2025-04-30 01:08:10.220973600,9.4469736328125,-0.0228502253404315,0.0289423689246177,0.1110630252023684,0.0084660639986395,-0.3642185238462674,0.8771216385438952,-0.7946823815047689,left,0.0002829432487487,-0.6364594858743606,-0.1801937412714585,-7.8844988656044,-0.2926899920120395,0.02222441136837,0.0001810118556022,5.828601524063944,-0.0080123543739318
2025-04-30 01:08:10.260973600,9.4869736328125,-0.0219560369007294,-0.0030723959207534,0.1111177470245689,0.0085810264572501,-0.3639007050522986,0.877411749836865,-0.7935244556105066,left,-0.0014394521713256,-0.6355516325175619,-0.1732595398277975,-7.889943687006831,-0.2921945568495908,0.0190034136176109,-0.001171177253127,5.821439377349615,-0.00652676820755
2025-04-30 01:08:10.300973300,9.526973388671877,-0.0218451092392288,-0.014546669088304,0.1111906241732139,0.0139586189761757,-0.3643969821827008,0.8773170631391211,-0.7945214805583793,left,-0.0005403161048889,-0.6348964286097962,-0.1724676039988175,-7.893774643471836,-0.291832391334082,0.011719362810254,-0.0006264168769121,5.816266943147778,-0.0034704208374023
2025-04-30 01:08:10.340973600,9.5669736328125,-0.0217334337245702,-0.0260209422558546,0.1112634676172532,0.0193362105637788,-0.3648931244946607,0.8772220673931316,-0.7955181854471718,left,0.0003584027290344,-0.6342414309561595,-0.1716688183039426,-7.897600923761725,-0.2914701485565136,0.0044353120028972,-8.23251903057e-05,5.811093924424052,-0.0004138946533203
2025-04-30 01:08:10.380973600,9.6069736328125,-0.0217760292643591,-0.0178322829306125,0.1113803503178739,0.014129826799035,-0.3653884338176322,0.877040941687103,-0.7966394533369809,left,-0.0010183453559875,-0.634091651598178,-0.172024171080254,-7.898463678070902,-0.2913500250333924,-8.72313976287e-05,-0.0002186577767133,5.809910852119327,0.0010257363319396
2025-04-30 01:08:10.420973600,9.6469736328125,-0.0216498665913029,-0.0076678469777107,0.111549620016331,0.0112257990986108,-0.3656865969636516,0.8769002497476239,-0.7972926169205449,left,-0.0002734661102294,-0.6341928891263942,-0.171014957505092,-7.897897276359796,-0.2913348110998007,-0.0031558591872453,-0.0003786496818065,5.810710478064418,-0.0006859898567199
2025-04-30 01:08:10.460973600,9.6869736328125,-0.0216498665913029,-0.0052445735782384,0.111549620016331,0.0064009972847998,-0.3656865969636516,0.8769002497476239,-0.7972926169205449,left,-0.0009682178497314,-0.6341928891263942,-0.171014957505092,-7.897897276359796,-0.2913348110998007,0.0009674075990915,-0.0006454288959503,5.810710478064418,-0.0035037994384765
2025-04-30 01:08:10.500973600,9.7269736328125,-0.0216498665913029,-0.0028213006444275,0.111549620016331,0.0015761954709887,-0.3656865969636516,0.8769002497476239,-0.7972926169205449,left,-0.0016629695892333,-0.6341928891263942,-0.171014957505092,-7.897897276359796,-0.2913348110998007,0.0050906743854284,-0.0009122099727392,5.810710478064418,-0.0063215494155883
2025-04-30 01:08:10.540973300,9.766973388671875,-0.0216498665913029,-0.0003980277106165,0.111549620016331,-0.0032486063428223,-0.3656865969636516,0.8769002497476239,-0.7972926169205449,left,-0.0023576617240905,-0.6341928891263942,-0.171014957505092,-7.897897276359796,-0.2913348110998007,0.0092139411717653,-0.0011789891868829,5.810710478064418,-0.0091393589973449
2025-04-30 01:08:10.580973600,9.8069736328125,-0.0218037522563289,0.0031298315152525,0.1113440017421668,0.0097553189843893,-0.3658608887019909,0.8769920997592865,-0.7975954283521709,left,-0.0037490129470825,-0.6332131950449922,-0.1723543528826907,-7.90355837086141,-0.2909178038185954,0.0272123925387859,-0.0018113292753696,5.802968485635518,-0.0132149457931518
2025-04-30 01:08:10.620973600,9.8469736328125,-0.0219571490317394,0.0066576907411217,0.1111383775050633,0.0227592438459396,-0.3660351348098344,0.8770837397634909,-0.7978979736358764,left,-0.0051411390304565,-0.632233523822239,-0.1736914649716578,-7.90921186657846,-0.2905007301646921,0.0452108420431613,-0.0024438966065645,5.795221232509613,-0.0172899961471557
2025-04-30 01:08:10.660973600,9.8869736328125,-0.0221100401127264,0.0101855499669909,0.1109327195633533,0.0357631705701351,-0.3662092243205101,0.8771751262027854,-0.7981999188372941,left,-0.0065340399742126,-0.6312537645046938,-0.1750261476415209,-7.914857763510942,-0.2900835792487293,0.0632092952728271,-0.0030766911804676,5.78746754964292,-0.0213644504547119
2025-04-30 01:08:10.700973600,9.9269736328125,-0.0218965998274351,-0.0014144591987133,0.1109531800097017,0.0215100105851888,-0.3666234411953435,0.8771647029671819,-0.7989311467442431,left,-0.0034911036491394,-0.6302925825259796,-0.1734585147323086,-7.920452807039022,-0.289583628023145,0.0198037065565586,-0.0056656319648027,5.779855321073532,-0.0068290829658508
2025-04-30 01:08:10.740973600,9.9669736328125,-0.0216825127901868,-0.0130144674330949,0.1109735730468356,0.0072568487375974,-0.3670375668091845,0.877153859716661,-0.7996622468173378,left,-0.0004489421844482,-0.6293314198396143,-0.1718832099732943,-7.926039667260646,-0.289083522273439,-0.0236018858850002,-0.0082553196698427,5.772237831807137,0.0077067017555236
2025-04-30 01:08:10.780973300,10.006973388671875,-0.0214586396865956,-0.0095357205718755,0.1113373816270836,0.0201760958880186,-0.3673106746957211,0.8768903803133528,-0.8003438922222742,left,0.000346302986145,-0.6302263139710703,-0.1699978711507283,-7.920910487678647,-0.2893958039871942,-0.0326191894710063,-0.0070444568991661,5.779330420416593,0.0084559917449951
2025-04-30 01:08:10.820973600,10.0469736328125,-0.0205391399044354,-0.0089980196207761,0.1119386219195915,0.0253135934472084,-0.367698560597608,0.8766401945107475,-0.8010064023513481,left,0.0029480457305908,-0.6307739841816059,-0.1626494811492972,-7.917897861859202,-0.289429257746118,-0.0103593301028013,-0.0071492046117782,5.7836681573599575,0.0050186514854431
2025-04-30 01:08:10.860973600,10.0869736328125,-0.0196197124698703,-0.0084603186696767,0.1125398086737184,0.0304510928690433,-0.3680862779764413,0.8763896223978351,-0.8016687596625158,left,0.0055484771728515,-0.6313222910939831,-0.1553072651603259,-7.914872961080074,-0.2894625624256026,0.0119005311280488,-0.0072533451020717,5.788009985956549,0.0015808939933776
2025-04-30 01:08:10.900973600,10.1269736328125,-0.0178805180407815,-0.0178961250931024,0.1131636362951269,0.0496991388499736,-0.3686254710399598,0.8763588449666622,-0.8021603408956343,left,-0.0008689761161804,-0.6302019398615503,-0.1416573729950468,-7.921608991336822,-0.288624873434817,0.0241635534912347,-0.0015803510323166,5.779136943671107,-0.0023873448371887
2025-04-30 01:08:10.940973600,10.1669736328125,-0.0161419818390202,-0.0273319296538829,0.1137873370060022,0.0689471811056137,-0.3691641367555935,0.8763269640879046,-0.8026539582629799,left,-0.0072903633117675,-0.6290824432313129,-0.1279895159148145,-7.92830761219263,-0.2877868144677756,0.0364265739917755,0.004090785048902,5.770263901385665,-0.0063555240631103
2025-04-30 01:08:10.980973600,10.2069736328125,-0.013933254492348,-0.0549406111240386,0.1145334536100766,0.0824972838163375,-0.3706809981642427,0.8761892703732616,-0.8049636066098005,left,-0.0027718544006347,-0.626127402280325,-0.1107148391148075,-7.945585494729876,-0.2859544448364202,0.0619929805397987,0.0061850254423916,5.746807037952542,-0.0098292231559753
2025-04-30 01:08:11.020973600,10.2469736328125,-0.0117208547387322,-0.0825492963194847,0.1152788475100581,0.0960473790764808,-0.3721956112168189,0.8760462118717719,-0.8072766124468717,left,0.0017333030700683,-0.6231765669401534,-0.093334117257595,-7.962733613407611,-0.2841202867700584,0.0875593870878219,0.0082684569060802,5.723333807906508,-0.0133012533187866
2025-04-30 01:08:11.060973300,10.286973388671877,-0.0134024271184145,-0.1546240150928497,0.1148355362739769,0.0885088667273521,-0.3754037495057614,0.8753248535063618,-0.8145818408105459,left,-0.00767183303833,-0.6192462840726575,-0.107024542362662,-7.984996298620104,-0.2822964403632798,0.0887432545423507,0.0076132453978061,5.6919917441815135,-0.0117192864418029
2025-04-30 01:08:11.100973600,10.3269736328125,-0.0150441112785723,-0.2266987562179565,0.1143905605497708,0.0809703543782234,-0.3786064712052327,0.8745908677203339,-0.8218584224400856,left,-0.0170857310295104,-0.6153059860314923,-0.1204696966029238,-8.007173059114812,-0.2804685148831014,0.0899271294474601,0.0069329957477748,5.660481338152289,-0.0101200938224792
2025-04-30 01:08:11.140973600,10.3669736328125,-0.0190473267612535,-0.2799129784107208,0.1135893439989402,0.0662439465522766,-0.3834224390298943,0.8730713663053675,-0.8336285523042578,left,-0.0087250471115112,-0.611685166861156,-0.1529124515788164,-8.027066092586518,-0.2789820522503503,0.0752909183502197,-0.0018142890185117,5.631448720413446,0.001456081867218
2025-04-30 01:08:11.180973600,10.4069736328125,-0.0233286887768928,-0.222304880619049,0.1124884437050797,0.0570032969117164,-0.3877912529669827,0.8717375497325712,-0.8444414339445899,left,-0.0067279338836669,-0.607915223644398,-0.1877716109135188,-8.047505069503188,-0.2775567971676337,0.0791122764348983,-0.0032047666609287,5.601141844955087,0.0103819966316223
2025-04-30 01:08:11.220973600,10.4469736328125,-0.0275490763868187,-0.1646967828273773,0.1113848355069872,0.0477626472711563,-0.392150766504585,0.8703827298049609,-0.8552064055946698,left,-0.0047352313995361,-0.6041076822078916,-0.2223192840130999,-8.067900791800021,-0.2761248603434167,0.0829336419701576,-0.0046270098537206,5.570451523137092,0.0193468332290649
2025-04-30 01:08:11.260973600,10.4869736328125,-0.0317084223398558,-0.1070886775851249,0.1102785417016487,0.0385220013558864,-0.3965007696352431,0.8690069521530315,-0.865923394181056,left,-0.0027471184730529,-0.6002631051292849,-0.2565515162216499,-8.08825209043324,-0.274686266537899,0.0867550000548362,-0.0060814302414655,5.539381262090802,0.0283505320549011
2025-04-30 01:08:11.300973300,10.526973388671877,-0.0315316043997057,-0.0270899087190628,0.1098938504566678,0.0182491205632686,-0.3970473251031987,0.8692112449803455,-0.8666836445221748,left,-0.0007110238075256,-0.5974711747732059,-0.2556079517612233,-8.103723800331354,-0.2734015607088168,0.0709528550505638,-0.0067162178456783,5.516766110178828,0.0179723501205444
2025-04-30 01:08:11.340973600,10.5669736328125,-0.0313524961143575,0.0529088601469993,0.1095089480396385,-0.0020237583667039,-0.3975929943984384,0.8694137172227966,-0.8674429799038149,left,0.0013186335563659,-0.5946794401915656,-0.2546383030114695,-8.119131797343492,-0.27211629174833,0.0551507100462913,-0.007353676483035,5.494110041734576,0.007598340511322
2025-04-30 01:08:11.380973600,10.6069736328125,-0.0303447926282305,0.0348375141620636,0.1091601444237171,-0.001431145472452,-0.3969964432308251,0.8700938686702383,-0.8653666579048229,left,-0.0063890218734741,-0.5921878137148388,-0.2468710665434599,-8.133041664752364,-0.2709507974817667,0.0832735523581504,-0.0026487465947866,5.473853435647487,-0.0114285945892333
2025-04-30 01:08:11.420973600,10.6469736328125,-0.0298617624227318,0.0064382385462522,0.1083750621996966,0.0072313416749238,-0.3979291881978868,0.8705736535087681,-0.86648412871209,left,-0.0021882057189941,-0.5865345363982764,-0.2438625871761701,-8.163961703673005,-0.2683442637406233,0.1183910071849823,-0.0011954437941312,5.427766222733259,-0.0113150477409362
2025-04-30 01:08:11.460973600,10.6869736328125,-0.0293729442580207,-0.0219610389322042,0.1075890659333149,0.015893829986453,-0.3988585092935972,0.8710460113365642,-0.8676005851984998,left,0.0019857287406921,-0.5808817049432012,-0.2407691329391673,-8.194618123221398,-0.2657354502504527,0.1535084694623947,0.0002492200583219,5.381510082992911,-0.0111841559410095
2025-04-30 01:08:11.500973600,10.7269736328125,-0.0288784471018992,-0.0503603145480155,0.1068021417537392,0.0245563182979822,-0.3997844500754072,0.8715108311869545,-0.8687161737805316,left,0.0061329007148742,-0.5752291957348831,-0.2375914344848133,-8.22501150791943,-0.2631243515665727,0.1886259317398071,0.0016853176057338,5.3350838473826645,-0.0110360383987426
2025-04-30 01:08:11.540973300,10.766973388671875,-0.0291340664857944,-0.0575307719409465,0.1056188444565008,0.03762673959136,-0.4013991358834907,0.8718531014326298,-0.8714418474311603,left,0.0031680464744567,-0.5682277069212514,-0.2407761289355345,-8.26208597781658,-0.2599913220501921,0.1655583977699279,0.0071525517851114,5.277342437031865,-0.0127575397491455
2025-04-30 01:08:11.580973600,10.8069736328125,-0.0293660621193682,-0.0647012293338775,0.1044340710279586,0.0506971627473831,-0.4030082863556414,0.8721832099031012,-0.8741535096624595,left,0.0001627206802368,-0.561225672423526,-0.2437719132180325,-8.298763557350634,-0.2568546715881001,0.14249087870121,0.0126005373895168,5.219337407308816,-0.0144522190093994
2025-04-30 01:08:11.620973600,10.8469736328125,-0.0293305131384679,-0.112655259668827,0.1038893935169416,0.0561072751879692,-0.4048989389234406,0.8720602693003926,-0.877741824026286,left,-0.004851222038269,-0.5562706964131082,-0.244232333804015,-8.324520514419675,-0.2545084583943757,0.0856400430202484,0.0061690434813499,5.178135628348588,-0.0259720683097839
2025-04-30 01:08:11.660973600,10.8869736328125,-0.0321660029013411,-0.1275302022695541,0.1037378447070664,0.0359458401799202,-0.4087701831518576,0.8703330917992729,-0.8873562818112264,left,0.0003212094306945,-0.5555982677316771,-0.2679473367166705,-8.327273027998208,-0.2542944778775215,0.0433154925704002,0.0047572776675224,5.172534739601612,-0.0154035091400146
2025-04-30 01:08:11.700973600,10.9269736328125,-0.0349925125796216,-0.1424051374197006,0.1035844147923567,0.015784403309226,-0.4126339869535151,0.8685901232791087,-0.8969641080326384,left,0.0054989457130432,-0.5549025570837914,-0.2916091846699826,-8.330076394981145,-0.2540758690267117,0.0009909383952617,0.00334008410573,5.166736866977811,-0.0048149228096008
2025-04-30 01:08:11.740973600,10.9669736328125,-0.0378098352087402,-0.1572800874710083,0.1034291097357529,-0.0043770354241132,-0.4164903622542986,0.8668314964852968,-0.9065654419085948,left,0.0106818079948425,-0.5541838556285432,-0.3152167999517172,-8.332930615368484,-0.2538526982146449,-0.0413336157798767,0.0019173715263605,5.160744933086633,0.0057934522628784
2025-04-30 01:08:11.780973300,11.006973388671875,-0.0416646897408288,-0.1087629795074462,0.1027263398885276,-0.0133807836100459,-0.4175459019199212,0.8659523125674242,-0.9104831142331956,left,0.0066008567810058,-0.5563786612393063,-0.3468639841031283,-8.320316632989048,-0.2554000912898365,-0.0719877332448959,0.0002646669745445,5.179034623014927,0.008474051952362
2025-04-30 01:08:11.820973600,11.0469736328125,-0.0455349048866477,-0.0602458752691745,0.1020230693986302,-0.0223845317959785,-0.4185994333078384,0.8650689466453962,-0.9144159909479448,left,0.0025097727775573,-0.5585604824949116,-0.378547445144318,-8.307603866410254,-0.256946231319767,-0.1026418507099151,-0.001384325325489,5.197191626474261,0.0111683011054992
2025-04-30 01:08:11.860973600,11.0869736328125,-0.0494204853623379,-0.0117287635803222,0.1013193066922112,-0.0313882790505886,-0.4196509683439355,0.8641815314646099,-0.9183642253153984,left,-0.0015913248062133,-0.5607293766733938,-0.4102665985533967,-8.294792315632105,-0.2584911376199517,-0.1332959681749344,-0.0030296891927719,5.215216527986526,0.0138759613037109
2025-04-30 01:08:11.900973600,11.1269736328125,-0.0508306243501526,-0.0073885363526642,0.1017773680076326,-0.0243527274578809,-0.4193952416922223,0.8635818295919919,-0.9189632334492076,left,-0.0020176172256469,-0.5653099483084395,-0.4207448110131546,-8.270261100965739,-0.2607209102586743,-0.1097028627991676,-0.0034239739179611,5.253202852031588,0.0078629255294799
2025-04-30 01:08:11.940973600,11.1669736328125,-0.0522481249732384,-0.0030483091250061,0.1022348776052161,-0.0173171758651733,-0.4191371479379729,0.8629772285779407,-0.9195715892179538,left,-0.0024629235267639,-0.5698898047572981,-0.4312064741969108,-8.245543423816562,-0.2629492337155159,-0.0861097574234008,-0.0038199499249458,5.291073440742492,0.0018616914749145
2025-04-30 01:08:11.980973600,11.2069736328125,-0.0528809956963835,0.0070763174444437,0.1025966298850575,-0.0075586913153529,-0.4189058019751714,0.8626357973978357,-0.9197160664723392,left,-0.0022342205047607,-0.5727385320186349,-0.4356262999331578,-8.230183942121267,-0.2642940099757007,-0.0504917874932289,-0.0026904717087745,5.314572974273562,0.0060880780220031
2025-04-30 01:08:12.020973600,11.2469736328125,-0.0524246362557656,0.0350608453154563,0.1028901968827872,-0.0138322263956069,-0.4181021263156688,0.8627934017510549,-0.9179729585651546,left,-0.0010460615158081,-0.5742543793430309,-0.4314476990742608,-8.2223267988801,-0.2649369474418512,-0.0357856303453445,-0.0013705715537071,5.327060115402936,0.0044238567352294
2025-04-30 01:08:12.060973300,11.286973388671877,-0.0519647236754749,0.0630453675985336,0.103183651359076,-0.0201057624071836,-0.4172980462008387,0.8629500789595375,-0.9162276223220666,left,0.0001404285430908,-0.5757696893097118,-0.4272463383942842,-8.214453873547912,-0.2655796006199583,-0.0210794694721698,-5.29922544956e-05,5.3395308899194,0.002761423587799
2025-04-30 01:08:12.100973600,11.3269736328125,-0.0517373312499459,0.0966254919767379,0.1027041010341524,-0.0581900626420974,-0.4150627452737326,0.8639510433380934,-0.9110662412494014,left,0.0007004141807556,-0.5762738755521207,-0.4252391632903367,-8.21186151896715,-0.2660139639785633,-0.0194043964147567,0.0004340298473834,5.343677488204836,0.0020751953125
2025-04-30 01:08:12.140973600,11.3669736328125,-0.0515067289532983,0.1302056312561035,0.1022239003407815,-0.0962743610143661,-0.4128247401979834,0.8649463359546022,-0.905902819342446,left,0.0012609362602233,-0.576776944914812,-0.423206999875605,-8.209273840561508,-0.2664465993119243,-0.0177293233573436,0.0009184665977954,5.3478129805743695,0.0013900995254516
2025-04-30 01:08:12.180973600,11.4069736328125,-0.0530814904453448,0.092882364988327,0.1012429175614661,-0.0919463708996772,-0.4104800799065794,0.8658012821321887,-0.901229020006062,left,-0.0057465434074401,-0.578303749194897,-0.4357003880826756,-8.200434116023779,-0.2676641317167704,-0.0357353240251541,-0.0044915750622749,5.360357404848933,-0.0036724805831909
2025-04-30 01:08:12.220973600,11.4469736328125,-0.0546492841786424,0.0555590912699699,0.1002610702601841,-0.0876183733344078,-0.4081319065558775,0.866648702258255,-0.896553537469096,left,-0.0127610564231872,-0.5798367121318578,-0.448107084386982,-8.191526002424954,-0.2688793397786175,-0.0537413209676742,-0.0099104382097721,5.372939823046326,-0.0087389945983886
2025-04-30 01:08:12.260973600,11.4869736328125,-0.0558066152116423,0.0431753620505332,0.1003197599875763,-0.0637186840176582,-0.4077803900195031,0.8663793285739128,-0.8965551236000756,left,-0.0085529685020446,-0.5824888787355951,-0.4567906319823115,-8.17674578192234,-0.2702553109363905,-0.0519329085946083,-0.0062008835375308,5.39467877664566,-0.0060959458351135
2025-04-30 01:08:12.300973300,11.526973388671877,-0.0569660003571857,0.0307916328310966,0.1003782469690723,-0.0398189984261989,-0.4074280427937491,0.8661081560834332,-0.8965604834840657,left,-0.0043518543243408,-0.585141109028755,-0.4654540866376832,-8.161897172358632,-0.2716307382782736,-0.0501244962215423,-0.0024933777749538,5.416380320844054,-0.0034490823745727
2025-04-30 01:08:12.340973600,11.5669736328125,-0.0581273754428635,0.01840790361166,0.1004365197970491,-0.0159193109720945,-0.4070747539119431,0.8658351412293654,-0.896569255643719,left,-0.0001575946807861,-0.5877932296643269,-0.4740965715702623,-8.14698134277761,-0.2730055693024035,-0.0483160838484764,0.001211978495121,5.438042702075839,-0.0007981657981872
2025-04-30 01:08:12.380973600,11.6069736328125,-0.0585909163186492,0.0219275876879692,0.1003093735615985,-0.025974404066801,-0.4062753468363806,0.865995573689509,-0.89509598711468,left,-0.0002488493919372,-0.5890963385760238,-0.4774576089685782,-8.139679495331645,-0.2737331864902793,-0.0420191138982772,-0.0010507889091968,5.448672232639789,-0.0036929249763488
2025-04-30 01:08:12.420973600,11.6469736328125,-0.0590525496390423,0.0254472717642784,0.1001821118232361,-0.0360294990241527,-0.4054754798221546,0.8661550572261904,-0.8936223206974983,left,-0.0003418922424316,-0.5904001219714272,-0.4807954481543973,-8.132360112228989,-0.274460486203763,-0.0357221439480781,-0.003315906971693,5.459298256072402,-0.0065872073173522
2025-04-30 01:08:12.460973600,11.6869736328125,-0.0595122949404503,0.0289669577032327,0.1000547316004933,-0.0460845902562141,-0.4046751627221053,0.8663134036106768,-0.8921481327543611,left,-0.0004367232322692,-0.5917043849479237,-0.484110308323428,-8.125023777991533,-0.2751874352565051,-0.0294251777231693,-0.0055833794176578,5.469919018808007,-0.0094810128211975
2025-04-30 01:08:12.500973600,11.7269736328125,-0.0607213168768744,0.0208650305867195,0.0996660916500552,-0.0460128672420978,-0.4039328451384604,0.8664238249686194,-0.8910570676417673,left,-0.006360113620758,-0.5930631391620168,-0.4934818016503006,-8.117005891230702,-0.2760697859625011,-0.0373510383069515,-0.009446058422327,5.48097349678576,-0.0059337019920349
2025-04-30 01:08:12.540973300,11.766973388671875,-0.0613519227325112,0.0559733249247074,0.0997935589443324,-0.0494224429130554,-0.4028249114342351,0.8664296635157054,-0.8892472009478904,left,-0.001062273979187,-0.5961677265295684,-0.4975546405797824,-8.099670141026378,-0.2776202040808581,-0.0831725671887397,-0.0073482953011989,5.506193278238177,0.004037857055664
2025-04-30 01:08:12.580973600,11.8069736328125,-0.061977036175037,0.0910816192626953,0.0999206430437991,-0.0528320185840129,-0.4017154511696916,0.8664322134987623,-0.887435598038309,left,0.0042272806167602,-0.5992730310283594,-0.5015562774365767,-8.082252557757496,-0.2791695593276301,-0.1289941072463989,-0.0052577629685401,5.531366297939419,0.0140143036842346
2025-04-30 01:08:12.620973600,11.8469736328125,-0.0608313001959078,0.1963924318552017,0.100979177194894,-0.0697777271270752,-0.3987879987794917,0.8667078222264896,-0.8814943931428472,left,0.0079106092453002,-0.6059721180767621,-0.4900320995878428,-8.04565505772233,-0.2821151465474136,-0.2170478999614715,-0.0012994930148124,5.585489517793059,0.0259535312652587
2025-04-30 01:08:12.660973600,11.8869736328125,-0.0587069696312975,0.1779232919216156,0.1032981390229505,-0.0786135718226432,-0.3938210179581488,0.8667698423917543,-0.8717327760163062,left,-0.001942753791809,-0.6194935144634265,-0.468465031956695,-7.97055100916028,-0.288000855254879,-0.3156483173370361,-0.0019864588975906,5.693965674602985,0.0068511962890625
2025-04-30 01:08:12.700973600,11.9269736328125,-0.0563981510433766,0.1594541519880294,0.105610436295173,-0.0874494165182113,-0.3888285828883687,0.8667758320029241,-0.8618397622442441,left,-0.0119315385818481,-0.6329972504230162,-0.4456862139156088,-7.894118926864862,-0.2938679399218677,-0.4142487049102783,-0.0027969852089881,5.801261097195744,-0.0121307969093322
2025-04-30 01:08:12.740973600,11.9669736328125,-0.0576859503975913,0.0727977901697158,0.1085270201594266,-0.0578739307820797,-0.3862848692999187,0.8646647334576553,-0.8597849647901307,left,-0.0108265876770019,-0.6517149430073605,-0.4495119462162256,-7.783756517916918,-0.3022593854321458,-0.4609185457229614,-0.0006511434912681,5.94823152757287,-0.0164947509765625
2025-04-30 01:08:12.780973300,12.006973388671875,-0.0589434811368903,-0.0138585790991783,0.1114338402046846,-0.028298445045948,-0.3837063632128199,0.8624758817931529,-0.8577304641956157,left,-0.0099990367889404,-0.6704345265930665,-0.4526603272445499,-7.670672575050592,-0.3106236266671693,-0.5075883865356445,0.0014256760478019,6.093132165938616,-0.0206477642059326
2025-04-30 01:08:12.820973600,12.0469736328125,-0.0616647226126161,-0.0362090989947319,0.1142819458750354,-0.0223053246736526,-0.3827589558093891,0.8595390654269087,-0.8600094837930973,left,-0.0036763548851013,-0.6886708555693223,-0.4666064350105822,-7.557238503572345,-0.318791005795043,-0.4156623482704162,-0.0001224912703037,6.232239607855678,-0.0193539857864379
2025-04-30 01:08:12.860973600,12.0869736328125,-0.0638270887215143,0.0148751623928546,0.1163100849681138,-0.0336996540427207,-0.3819105940010695,0.8573689798269746,-0.8615036131700672,left,0.0041496753692626,-0.7021905449012057,-0.477528591845557,-7.47143770442903,-0.3248609800720425,-0.287058413028717,-0.0003201700747013,6.334032925900816,-0.0025450587272644
2025-04-30 01:08:12.900973600,12.1269736328125,-0.0626795549681842,0.0770482569932937,0.1176036678052945,-0.0422378033399581,-0.3796492585265967,0.8569832913342786,-0.8572752304756187,left,0.0052442550659179,-0.7096380397426807,-0.4659867322096601,-7.424693488910794,-0.3280477849385432,-0.1939964294433593,-0.0002399235963821,6.389613943347334,-0.0003789067268371
2025-04-30 01:08:12.940973600,12.1669736328125,-0.061482839976497,0.1392213553190231,0.1188952528700791,-0.0507759526371955,-0.3773814538399164,0.8565830894999249,-0.8530083765819724,left,0.0062997937202453,-0.7170820115462233,-0.4541660190997645,-7.377566996076703,-0.3312290352347677,-0.1009344533085823,-0.0001881085336208,6.444814437043666,0.0018261075019836
2025-04-30 01:08:13.081541000,12.307541015625,-0.0523568983378815,0.0881300643086433,0.1187736815147553,-0.0314652398228645,-0.368423774116062,0.8605894442570584,-0.8286211163147997,left,-0.0006225246470421,-0.7170713220303148,-0.3868243481675162,-7.381472771343589,-0.3309719624179115,0.080870047211647,-0.0036578956060111,6.444735526588559,0.0012210853165015
2025-04-30 01:08:13.121541000,12.347541015625,-0.0512313363272661,0.0604861080646514,0.1184522981806119,-0.0164062362164258,-0.3678224492398335,0.8612879560304351,-0.8263656896237148,left,-0.0020214319229125,-0.7148190933357631,-0.3792581506969407,-7.396380417618155,-0.329937259496706,0.0663225576281547,-0.0016762837767601,6.428071392035484,-0.0018649101257324
2025-04-30 01:08:13.161540900,12.387540771484376,-0.0501147578510313,0.0328421518206596,0.1181306868221128,-0.0013472335413098,-0.3672204383455063,0.8619847898171864,-0.8241182899533468,left,-0.0034242272377014,-0.712565194469506,-0.3717241019302978,-7.411250654491781,-0.3289019548130625,0.0517750680446624,0.000308621674776,6.411362249296904,-0.004946231842041
2025-04-30 01:08:13.201540900,12.427540771484376,-0.0490069565897037,0.005198199301958,0.1178088246240123,0.0137117700651288,-0.3666175967617969,0.8626798247978,-0.821878242343647,left,-0.0048306584358215,-0.7103092265469445,-0.3642213250847533,-7.426085235530137,-0.3278659433632538,0.0372275784611702,0.0022967308759689,6.394605760285258,-0.0080227851867675
2025-04-30 01:08:13.241540900,12.467540771484376,-0.0483051742292647,0.0029488236177712,0.1178503971745074,0.0036558797582983,-0.3667307921403083,0.8628610936382642,-0.8216564320535561,left,0.0026526451110839,-0.709132503335791,-0.3593727890750393,-7.433850024312735,-0.3272467113081574,0.0113525241613388,-0.0021271407604217,6.385852544987201,-0.0051303505897521
2025-04-30 01:08:13.281541000,12.507541015625,-0.0482885647624069,-0.0061725098639726,0.1178505842098671,0.0044293524697422,-0.3669270857540255,0.8628463222433312,-0.8220381182796591,left,0.0002399682998657,-0.7087694483643011,-0.3593612447677179,-7.436171745258569,-0.3270657340136931,0.0109892869368195,-0.0019114650785923,6.3831497157692905,-0.0041080713272094
2025-04-30 01:08:13.321541000,12.547541015625,-0.0482885647624069,-0.0152938421815633,0.1178505842098671,0.0052028256468474,-0.3669270857540255,0.8628463222433312,-0.8220381182796591,left,-0.0024094581604003,-0.7087694483643011,-0.3593612447677179,-7.436171745258569,-0.3270657340136931,0.0106260497123003,-0.001694593578577,6.3831497157692905,-0.0033614039421081
2025-04-30 01:08:13.361541000,12.587541015625,-0.0486613479074013,-0.0155417537316679,0.1178027076750202,0.0047430200502276,-0.3673548658679267,0.8627217390838089,-0.823110654136143,left,-0.0019917488098144,-0.7084430087009818,-0.3622346082469448,-7.438117618629336,-0.3269312672049289,0.0091238785535097,-0.0019345507025718,6.380719273751974,-0.0017398595809936
2025-04-30 01:08:13.401541000,12.627541015625,-0.0490334914201291,-0.0157896652817726,0.1177548251772323,0.0042832144536077,-0.3677825567938808,0.8625970568834999,-0.8241827566970905,left,-0.0015740394592285,-0.7081163712898405,-0.3651047933883964,-7.440063492000102,-0.3267967340234674,0.0076217073947191,-0.0021748282015323,6.378286493647098,-0.0001180768013
2025-04-30 01:08:13.441540900,12.667540771484376,-0.049405120478403,-0.0160375759005546,0.117706905993368,0.0038234086241573,-0.3682101901634537,0.862472031930335,-0.8252543314274018,left,-0.0011560916900634,-0.7077892068469217,-0.3679727135075256,-7.442010534414648,-0.3266620903935958,0.0061195367015898,-0.0024153478443622,6.3758490373671055,0.0015041232109069
2025-04-30 01:08:13.481540900,12.707540771484377,-0.0499271864128505,-0.0570158585906028,0.11779610920638,0.0309043228626251,-0.36943137975805,0.8620964258808369,-0.8281338329784882,left,-0.0045256614685058,-0.7069794892527387,-0.3721154028028249,-7.446971956214308,-0.3262425093162085,0.0159228518605232,-0.0006240382790565,6.369813848856091,-0.0041295289993286
2025-04-30 01:08:13.521541000,12.747541015625,-0.0504458575033679,-0.0979941487312316,0.1178850705242016,0.0579852387309074,-0.3706518615558221,0.8617191973280489,-0.8310106419586796,left,-0.0078949332237243,-0.7061685125644152,-0.376238254886493,-7.451934547057747,-0.3258223210317022,0.0257261674851179,0.0011652559041976,6.363764631819724,-0.0097617506980896
2025-04-30 01:08:13.561541000,12.787541015625,-0.0509611207334996,-0.1389724314212799,0.1179738206699706,0.0850661545991897,-0.3718716692613806,0.8613404235340333,-0.8338849484432309,left,-0.011264145374298,-0.7053564894380716,-0.3803410140302032,-7.456897722423077,-0.3254015696157886,0.0355294831097126,0.0029525123536586,6.357703724345565,-0.0153928995132446
2025-04-30 01:08:13.601541000,12.827541015625,-0.0543632121913612,-0.2068680524826049,0.1180351847602932,0.112398937344551,-0.3775348869290414,0.8595138103629896,-0.8476457468262284,left,-0.0099766254425048,-0.7017376456104152,-0.4069553185809403,-7.478485869374871,-0.323683535788614,0.055465430021286,0.0027746334671974,6.330641529896855,-0.0103585124015808
2025-04-30 01:08:13.641541000,12.867541015625,-0.0576895602763797,-0.27476367354393,0.1180920189585381,0.1397317200899124,-0.3831836017612674,0.8576541627342781,-0.8613481994540355,left,-0.0086827278137207,-0.6980834136907373,-0.4331599828848615,-7.500135391125083,-0.3219530625135582,0.0754013806581497,0.0025550089776515,6.303230960401892,-0.0052886009216308
2025-04-30 01:08:13.681540900,12.907540771484374,-0.0609403231059394,-0.3426592946052551,0.1181443213197524,0.1670644879341125,-0.3888177048644325,0.8557617580645773,-0.8749931747708033,left,-0.0073829889297485,-0.694394970320833,-0.4589516824737191,-7.521843365064263,-0.3202102770913391,0.0953373312950134,0.0022932440042495,6.275478445601463,-0.0001837611198425
2025-04-30 01:08:13.721540900,12.947540771484377,-0.066028973170201,-0.381432294845581,0.1179669059032345,0.1632976830005645,-0.3962461445424829,0.8531229687136286,-0.8933670246236335,left,0.0022448301315307,-0.6898513177184412,-0.4990978149011731,-7.547783862006664,-0.3182042104039179,0.0845080912113189,-0.0024839602410793,6.241173440417647,-0.0033836960792541
2025-04-30 01:08:13.761541000,12.987541015625,-0.0729673265869365,-0.3979792296886444,0.1173348318031526,0.1569922119379043,-0.4042971282147884,0.8500599859302117,-0.913934507437554,left,0.0021341443061828,-0.685383394554242,-0.5534819507133215,-7.571874931690097,-0.3165033120525835,0.0859785452485084,-0.0017035380005836,6.207314425435662,-0.002687931060791
2025-04-30 01:08:13.801541000,13.027541015625,-0.0797604728923084,-0.4145261347293854,0.1166936504715653,0.1506867557764053,-0.4123167167990822,0.8469311488973834,-0.9343858888574595,left,0.0020453929901123,-0.6808064632437043,-0.6071629432247951,-7.596181105428934,-0.3147779003736242,0.0874489992856979,-0.0009948350489139,6.172501470729708,-0.0018949508666992
2025-04-30 01:08:13.841541000,13.067541015625,-0.0870152866763098,-0.4270330965518951,0.1158851759546684,0.1524959951639175,-0.4206429291803997,0.8436005887163092,-0.9556949258463524,left,7.25984573364e-05,-0.6758806156802523,-0.6648897039957344,-7.621774396368861,-0.3129988435653245,0.098232664167881,-0.0012973695993423,6.134889825215935,-0.003854751586914
2025-04-30 01:08:13.881541000,13.107541015625,-0.0947925668207606,-0.4522727727890014,0.1147435916492222,0.1543246358633041,-0.4293176924240621,0.8401384858207307,-0.9778525405281948,left,-0.0011638402938842,-0.670015930018699,-0.7275386140018701,-7.652059059995413,-0.3109460964441885,0.114519290626049,-0.001861996948719,6.08991554197967,-0.0094498991966247
2025-04-30 01:08:13.921540900,13.147540771484374,-0.1023667582539509,-0.4775124490261078,0.1135913866485302,0.1561532616615295,-0.4379526484024869,0.8365985183033302,-0.9998484885754692,left,-0.0023819208145141,-0.6640186445594115,-0.7891933984041214,-7.682523171842098,-0.3088645760829689,0.1308059245347976,-0.0025279521942138,6.043707333034277,-0.0149192810058593
2025-04-30 01:08:13.961540900,13.187540771484375,-0.1108672356276874,-0.5009472966194153,0.1119352814601612,0.1565883606672287,-0.4474721899389187,0.8327362553517526,-1.0239439846699798,left,-0.0038139224052429,-0.6563480391303291,-0.859573267988488,-7.72138510967791,-0.3062505654276916,0.1513672918081283,-0.0032745897769927,5.984290682947635,-0.0030810236930847
2025-04-30 01:08:14.001540900,13.227540771484374,-0.1191620642504238,-0.4780246913433075,0.1099216008385912,0.1489647775888443,-0.4566909314206244,0.829057127063154,-1.047042399638358,left,-0.002145767211914,-0.6477227573860687,-0.9296922216143458,-7.764951864203811,-0.3033395101471848,0.15546315908432,-0.0035948008298873,5.917058390673994,0.0029075741767883
2025-04-30 01:08:14.041541000,13.267541015625,-0.1271526185537105,-0.4551020860671997,0.1078957239654349,0.1413411945104599,-0.4658589266388468,0.8252859153244912,-1.0699006702783822,left,-0.0004819631576538,-0.6389483354442453,-0.9982537166651336,-7.808475364109873,-0.3003948050443673,0.1595590263605117,-0.004073791205883,5.84821164894104,0.0090607404708862
2025-04-30 01:08:14.081541000,13.307541015625,-0.1337104035920943,-0.3702875077724457,0.1060652240830195,0.1010574847459793,-0.473684964061667,0.8220412121752088,-1.0892147141258373,left,0.0081681013107299,-0.6309527795439617,-1.0556382764022796,-7.847854019296169,-0.2976927139006575,0.138127326965332,-0.0034836158156394,5.785084453898668,0.0125981569290161
2025-04-30 01:08:14.121541000,13.347541015625,-0.1393774258738712,-0.3329607546329498,0.1042726622675157,0.077520839869976,-0.48006861486705,0.8193875206218343,-1.1049687086368003,left,0.006767988204956,-0.6239210761907796,-1.1057191620625555,-7.881836368396878,-0.2954071717429121,0.1200276166200637,-0.0049970522522926,5.72926085986793,0.0131721496582031
2025-04-30 01:08:14.161540900,13.387540771484376,-0.1448794411302154,-0.2956340312957763,0.1024742597140405,0.053984198719263,-0.4864253480798017,0.8166877253730102,-1.1205944738620148,left,0.0053560137748718,-0.6168183019936181,-1.1549142778642474,-7.91570122859776,-0.2931050257659373,0.1019278988242149,-0.0066008120775222,5.672585617443919,0.0138329863548278
2025-04-30 01:08:14.201540900,13.427540771484376,-0.1481927278041544,-0.2205609083175659,0.1013603851772999,0.0430671498179435,-0.4898942320912718,0.8151735483276893,-1.1292330966096982,left,0.0047681331634521,-0.6129158039777022,-1.1843944201748815,-7.933665339833498,-0.2919275406362365,0.0799880847334861,-0.0058326348662376,5.641324802261591,0.0137988328933715
2025-04-30 01:08:14.241540900,13.467540771484376,-0.1514557451106132,-0.1454877853393554,0.1002447825050364,0.0321501046419143,-0.4933548143797985,0.8136456113680242,-1.1378323200319016,left,0.0041762590408325,-0.6089901814546332,-1.213607728242874,-7.951589703580737,-0.2907451190327764,0.0580482706427574,-0.0050916671752929,5.609791599878668,0.0137924551963806
2025-04-30 01:08:14.281541000,13.507541015625,-0.1546687083200074,-0.0704146474599838,0.0991274933097528,0.0212330557405948,-0.4968070612407719,0.8121038372319542,-1.1463925145666705,left,0.003580093383789,-0.6050417817667634,-1.2425520831763743,-7.969472566273808,-0.2895577772896015,0.036108449101448,-0.0043781399726867,5.577988348382712,0.0138136148452758
2025-04-30 01:08:14.321541000,13.547541015625,-0.1547124289464869,0.0197530910372734,0.0989368238878734,0.0064159762114286,-0.4973624246993242,0.8119718332138158,-1.1474429254786789,left,0.0001429915428161,-0.6038290070926029,-1.243942076230049,-7.976096368327736,-0.2890393520835033,0.015487590804696,-0.0015829801559448,5.568202282905578,0.0115357041358947
2025-04-30 01:08:14.361541000,13.587541015625,-0.1531999631525142,0.0518835224211216,0.0991323913641812,-0.003325649537146,-0.4961927463319743,0.8127036351624733,-1.144092015829219,left,-0.0011248588562011,-0.6040734517056253,-1.2316693085037171,-7.976623022550344,-0.2889258623635423,0.0087721459567546,0.0013464838266372,5.57017504428327,0.0027792453765869
2025-04-30 01:08:14.401541000,13.627541015625,-0.1516862568387054,0.0840139538049697,0.0993277699654232,-0.0130672762170434,-0.4950220728982815,0.8134338939429471,-1.14074007675099,left,-0.0023922324180603,-0.6043138068661276,-1.219391280080378,-7.977154937469959,-0.2888118342723751,0.0020567011088132,0.0042753964662551,5.572115072435141,-0.0059737563133239
2025-04-30 01:08:14.441540900,13.667540771484376,-0.1500727399583232,0.0544373840093612,0.0995919730696267,-0.0105039253830909,-0.4937792865474352,0.814175930515849,-1.1372299164796362,left,0.0035826563835144,-0.6047440999437649,-1.20615989645496,-7.976740511450171,-0.2887574140095614,0.00029590819031,-0.0006607919931411,5.575587132459878,-0.0129904747009277
2025-04-30 01:08:14.481540900,13.707540771484377,-0.1493522143513567,0.0374157577753067,0.0996587133466908,-0.0037254318594932,-0.4931153348915474,0.8145795161208843,-1.1353843760003162,left,6.36577606201e-05,-0.6048940122768538,-1.2002877164859325,-7.976780843460559,-0.2887308169534505,-0.0008370591094717,-0.0014973953366279,5.5767965082496405,-0.008100152015686
2025-04-30 01:08:14.521541000,13.747541015625,-0.1486313237799905,0.0203941334038972,0.0997253916592217,0.0030530621297657,-0.4924511592292702,0.814982693636887,-1.1335387971002406,left,-0.0034549832344055,-0.6050429237008829,-1.1944141482774169,-7.976823513558506,-0.2887040515023858,-0.0019700266420841,-0.0023341253399848,5.577997700732946,-0.0032089948654174
2025-04-30 01:08:14.561541000,13.787541015625,-0.1486313237799905,0.0171143189072608,0.0997253916592217,-0.0085526909679174,-0.4924511592292702,0.814982693636887,-1.1335387971002406,left,0.0030601024627685,-0.6050429237008829,-1.1944141482774169,-7.976823513558506,-0.2887040515023858,0.0058688698336482,-0.0030801743268966,5.577997700732946,0.0007830262184143
2025-04-30 01:08:14.601541000,13.827541015625,-0.1474669139983049,0.0659106522798538,0.0994897747557563,-0.0274623185396194,-0.4912808249047196,0.8158665704204271,-1.13004668744692,left,0.004777193069458,-0.6042616664994868,-1.1857649778757244,-7.982516756764054,-0.2882823124920571,0.0257177874445915,-0.0051271766424179,5.571694216674566,0.0064693689346313
2025-04-30 01:08:14.641541000,13.867541015625,-0.146306464554357,0.1147069931030273,0.0992539154388442,-0.0463719442486763,-0.4901093269907725,0.8167485177254765,-1.1265576032012194,left,0.0064941644668579,-0.6034770770401572,-1.1771377270448953,-7.988209415447711,-0.2878598860310833,0.0455667078495025,-0.0071719139814376,5.565360921999812,0.0121588706970214
2025-04-30 01:08:14.681540900,13.907540771484374,-0.1441941955487099,0.2228394895792007,0.0984970385132643,-0.074997141957283,-0.4872224604050346,0.8188351968718411,-1.1183159872059785,left,0.0043286681175231,-0.6018167282546656,-1.161588056539744,-7.9998115904361,-0.2870913550138353,0.0798512771725654,-0.0049352273344993,5.551946729153395,0.0272328257560729
2025-04-30 01:08:14.721540900,13.947540771484377,-0.1383367403540127,0.3989578485488891,0.0975608990604746,-0.1271263808012008,-0.4803297538483049,0.8234730122935862,-1.0989228106575175,left,0.0072646141052246,-0.5996454440873572,-1.1163695892840624,-8.018398802006244,-0.285757394596163,0.1058891862630844,-0.0082088038325309,5.534381846368312,0.0372756719589233
2025-04-30 01:08:14.761541000,13.987541015625,-0.1325401629514875,0.5750762224197388,0.0966177869179668,-0.1792556196451187,-0.4734026742249813,0.828051744505954,-1.0795747697369054,left,0.0102159976959228,-0.5973809520644267,-1.07152521603778,-8.037137404745817,-0.2844029443129486,0.1319270879030227,-0.0114442408084869,5.51603487329483,0.0473982095718383
2025-04-30 01:08:14.801541000,14.027541015625,-0.1215883097297086,0.7579585313796997,0.0958942614443906,-0.2712728679180145,-0.4596357380615795,0.8361454242587562,-1.0427048148541735,left,0.0151154994964599,-0.5971999998210334,-0.9835622704245148,-8.049381384769081,-0.2835490395097888,0.0971213355660438,-0.0186086893081665,5.514567138829827,0.0500135421752929
2025-04-30 01:08:14.841541000,14.067541015625,-0.110654530990399,0.9408408999443054,0.0951461537022158,-0.3632901310920715,-0.4457509766105588,0.8440247701546385,-1.0058480671336354,left,0.0201016068458557,-0.5966853426180576,-0.895808364452049,-8.062473506054282,-0.2826224459112232,0.0623155906796455,-0.0257518440485,5.510393068015575,0.0529049634933471
2025-04-30 01:08:14.881541000,14.107541015625,-0.0992821710319348,1.1249576807022097,0.0937986024216424,-0.4458736777305603,-0.4261347297920378,0.8538168848634041,-0.956587154354973,left,0.006926417350769,-0.6001475919482527,-0.8021671540066599,-8.053106542772055,-0.2839148560630636,-0.039977878332138,-0.0185852646827697,5.538446027067304,0.0552243590354919
2025-04-30 01:08:14.921540900,14.147540771484374,-0.0852556012549072,1.217554807662964,0.0933783600481354,-0.447950154542923,-0.4031501330888759,0.8639918764408665,-0.8999105340181243,left,-0.0099222660064697,-0.6076254311864853,-0.6855886470228433,-8.022075444692373,-0.2868247683705431,-0.0963086187839508,-0.0087430775165557,5.598808433571458,0.0152272582054138
