time,seconds_elapsed,roll,rotationRateZ,quaternionY,rotationRateY,quaternionZ,quaternionW,yaw,devicelocation,accelerationZ,pitch,gravityX,gravityZ,quaternionX,rotationRateX,accelerationX,gravityY,accelerationY
2025-04-30 00:30:29.229315800,0.23131591796875,-0.1849563931497078,-0.0649914145469665,-0.0849845884057606,0.1420236229896545,-2.642678229248196e-17,0.9698021117398982,-0.0433645011948785,right,0.0043268203735351,-0.4593979622708779,-1.6164936784930526,-8.63997470332384,-0.2286077560387286,-0.2459194362163543,0.0811780616641044,4.348353029924631,0.0057665109634399
2025-04-30 00:30:29.269315800,0.27131591796875,-0.1390819589048389,-0.2602454423904419,-0.0644734430157672,0.277184784412384,0.0032249106355634,0.9703212285572748,-0.0266853829355055,right,-0.0053154826164245,-0.4697589709644795,-1.2122669080931692,-8.659929696115851,-0.2330442346755532,-0.2206443399190902,0.036385528743267,4.439190069669485,0.010498046875
2025-04-30 00:30:29.309315600,0.311315673828125,-0.1078016630138973,-0.3681824803352356,-0.0490751669932323,0.2204678058624267,-0.0008723540808925,0.970582381821529,-0.0279254170937205,right,-0.0293281078338623,-0.475150866877051,-0.938243922990933,-8.669684197410941,-0.235713236302065,-0.129594624042511,0.0086100623011589,4.4862741846665735,0.0069805085659027
2025-04-30 00:30:29.349315800,0.35131591796875,-0.0912548420743836,-0.2770381569862366,-0.0394997435674815,0.0830991044640541,-0.0085659961772136,0.9700878734327968,-0.0401127292470367,right,-0.0345555543899536,-0.4822061011051423,-0.7917622259788215,-8.652285903364419,-0.2393657176556072,-0.0131247267127037,-0.0262094512581825,4.547685807962715,-0.0474886298179626
2025-04-30 00:30:29.389315800,0.39131591796875,-0.0950454515245711,-0.0835658013820648,-0.0404910491046546,0.2503515183925628,-0.0121512408897583,0.9707165783506811,-0.0481025807799612,right,-0.0307270884513854,-0.4758827280490658,-0.8272664508845656,-8.677676365208626,-0.2364785539607812,-0.199876606464386,-0.0141531676054,4.492654825614393,-0.067754179239273
2025-04-30 00:30:29.429315800,0.43131591796875,-0.0623063747319709,-1.0384137630462646,-0.0210030597050984,0.4525787234306335,-0.026442298532274,0.9659993209720384,-0.0712061097175115,right,-0.1016303896903991,-0.5168204399508306,-0.5308713288459926,-8.509305419406294,-0.2563299348505292,-0.648424506187439,0.0626406520605087,4.845646133491397,-0.0394615530967712
2025-04-30 00:30:29.469315800,0.47131591796875,-0.0803354350017066,-0.2888762354850769,-0.0249179093026378,0.2533988356590271,-0.0410986507806245,0.9642518362425898,-0.1067547941803495,right,-0.0176244378089904,-0.5241825488128097,-0.6813101659860461,-8.462562372931837,-0.2605925356962978,-0.5028843879699707,-0.0233248844742774,4.908282330146432,-0.1323992013931274
2025-04-30 00:30:29.509315800,0.51131591796875,-0.0690951099920522,1.046515703201294,-0.019829163007455,-0.5471090078353882,-0.0400385721366336,0.9631912030567258,-0.1019992707298636,right,-0.0418343544006347,-0.5340852143770924,-0.5827628075921908,-8.420782501822709,-0.2650780685938363,0.5524580478668213,-0.0096330009400844,4.992113290521502,-0.035449743270874
2025-04-30 00:30:29.549315600,0.551315673828125,-0.0371996809921155,0.7802467942237854,-0.0167657133659885,-0.4231088757514953,0.0006352431838292,0.9643134455124276,-0.0088738179505495,right,-0.014339804649353,-0.534748666314819,-0.3138041932074353,-8.431772097870708,-0.2642312572765585,-0.1149849295616149,-0.0592539235949516,4.99771242570281,0.1203430891036987
2025-04-30 00:30:29.589315800,0.59131591796875,-0.0403482855472476,0.2626489996910095,-0.0201409500102973,0.0392490625381469,0.0079065799344786,0.9635581841692944,0.0052428643329731,right,0.0231263637542724,-0.5399938497904517,-0.3392888361411169,-8.404434009090066,-0.2666223134910174,-0.2530818283557892,0.0156052336096763,5.041900526997447,0.0309729576110839
2025-04-30 00:30:29.629315800,0.63131591796875,-0.0212132544499954,0.8666952848434448,-0.0163553688672316,0.5568627119064331,0.0239509039242111,0.9587140046357738,0.0436901260286643,right,0.0626865029335022,-0.5742472730644002,-0.17465015393598,-8.231824695065617,-0.2828891096123164,-1.1505242586135864,0.0187414195388555,5.327001663213968,-0.0126127004623413
2025-04-30 00:30:29.669315800,0.67131591796875,0.0286395843495853,-0.0501791536808013,0.003626085894226,1.0441181659698486,0.0268286256897439,0.9517908993067,0.0655426960084491,right,0.0054153203964233,-0.6205047368948994,0.2284707741138525,-7.975272192463279,-0.3055505401548109,-0.7660743594169617,-0.0268693063408136,5.702036752855777,-0.0392297506332397
2025-04-30 00:30:29.709315800,0.71131591796875,0.0514035277859868,-0.1761851757764816,0.0148559124554387,0.9505162239074708,0.0207901040473369,0.948990612556625,0.0607985186385538,right,-0.015088677406311,-0.6383311346302316,0.4046570150433108,-7.865232439598441,-0.3142674566857887,-0.3271119594573974,-0.0014919973909854,5.843351933950186,-0.0604146122932434
2025-04-30 00:30:29.749315800,0.75131591796875,0.0858061610145015,0.4992537498474121,0.0301015740189748,0.4911541044712066,0.0186510111518927,0.9485822583498086,0.0676761412685303,right,-0.0681304931640625,-0.6380352715781402,0.6750969905596226,-7.8483818425625556,-0.3145437487062547,0.1062836050987243,-0.0165361687541008,5.841021445176005,-0.0417705178260803
2025-04-30 00:30:29.789315600,0.791315673828125,0.1297605113867384,0.8536683320999146,0.048114404765963,0.7863671779632568,0.0245118265795922,0.9523300714939844,0.0920787105900789,right,0.0856251120567321,-0.6059227867171137,1.043045702137053,-7.993071468526124,-0.3002528162295944,1.0819002389907837,0.0206969603896141,5.585092042908072,0.0856817364692688
2025-04-30 00:30:29.829315800,0.83131591796875,0.1647708447030609,0.9922486543655396,0.0625623357200631,0.4007813930511474,0.0392990794086054,0.9607900207544992,0.1268886593812356,right,0.0205957293510437,-0.5335937471417709,1.3849354780241847,-8.329018410360813,-0.267253017723385,2.160125732421875,-0.0210145115852355,4.987964354148507,0.0099416375160217
2025-04-30 00:30:29.869315800,0.87131591796875,0.1948674877642577,0.3361360132694244,0.0776167558741419,0.547256588935852,0.0565147544108218,0.97046853031938,0.159458193744184,right,-0.0174724459648132,-0.4342737030352002,1.72265936640352,-8.727977980947493,-0.2212975504565155,1.642905592918396,-0.0242317914962768,4.126164276956022,0.0238576829433441
2025-04-30 00:30:29.909315800,0.91131591796875,0.2280593695329515,-0.2564960420131683,0.0962801695490931,1.2139376401901243,0.0497458688895672,0.9722531305019944,0.149199660444692,right,-0.0610515475273132,-0.4044849884093224,2.038247995342314,-8.781870899176598,-0.2073145503393489,1.1976951360702517,-0.0341580212116241,3.859361890757084,-0.0013523399829864
2025-04-30 00:30:29.949315800,0.95131591796875,0.2532613851309387,0.0114845037460327,0.1110636461588865,0.226409375667572,0.0404708797485655,0.9730709980761012,0.1328346223037926,right,-0.0426508784294128,-0.385615680024276,2.2767418402932584,-8.796662225595115,-0.1978886250389771,0.3908893465995788,-0.0150248855352401,3.688572485636175,-0.0487172603607177
2025-04-30 00:30:29.989315800,0.99131591796875,0.2642557275227253,0.1730668693780899,0.1169695001261606,0.1793082058429718,0.0403316154586131,0.9735742062642136,0.1329367436057242,right,-0.02126145362854,-0.3729022801409014,2.385372018621117,-8.81565626440048,-0.1919498871870481,-0.0211645364761352,-0.0127176493406295,3.572757071979344,-0.0122376084327697
2025-04-30 00:30:30.029315600,1.031315673828125,0.2847161655522261,0.3218457102775574,0.1230293768701537,0.7668058276176453,0.048622210480704,0.969297286455428,0.158402992852943,right,0.1149356961250305,-0.4004749029143827,2.536590607962012,-8.667144449800253,-0.2072736811807548,-0.8413005471229553,-0.0915396809577941,3.823178816741705,0.0823603868484497
2025-04-30 00:30:30.069315600,1.071315673828125,0.3020437722962529,-2.269599676132202,0.1351525229749245,0.8405706286430359,0.0254838897328658,0.967671553053602,0.1165543239586082,right,-0.0020866394042968,-0.4139960367793022,2.670760885737836,-8.571752230969071,-0.2114144034251893,-0.1411163806915283,0.0705044865608215,3.944931219232082,0.1034881472587585
2025-04-30 00:30:30.109315800,1.11131591796875,0.2514317614116091,-1.019636869430542,0.1223044511502977,-1.0993149280548096,-0.0264916888518205,0.9687436052130006,0.0011738464842537,right,-0.1095527410507202,-0.4350577422833692,2.2125271422751247,-8.613494108155368,-0.2141860138471195,0.3604671359062195,-0.000140443444252,4.133138207621872,-0.2368128895759582
2025-04-30 00:30:30.149315800,1.15131591796875,0.1865734815047384,-0.4155589342117309,0.0961372634666924,-0.4085525870323181,-0.0433184710836508,0.9724795460548952,-0.0486533083982229,right,0.0144026279449462,-0.4251046283947257,1.6571593047499655,-8.778773517683147,-0.2077612136474989,0.2248311191797256,0.0388363152742385,4.044420644249022,-0.0042386651039123
2025-04-30 00:30:30.189315800,1.19131591796875,0.1711516933959738,-0.3811609745025635,0.0899062820702579,-0.3638355731964111,-0.0476354954128676,0.9731887272423636,-0.0610263392025809,right,-0.0171447992324829,-0.4225241377570942,1.5233556683294474,-8.813539710637926,-0.206279852043626,0.1317705512046814,0.0261062383651733,4.02135365691632,-0.0039179027080535
2025-04-30 00:30:30.229315800,1.23131591796875,0.1481945766825726,-0.2814512848854065,0.080475252086828,-0.3534435629844665,-0.0535553370492443,0.9740139517081676,-0.0782277883968253,right,-0.0001786351203918,-0.4198458189681198,1.3222240241758525,-8.856806605434418,-0.2048224812486032,0.1266448944807052,0.029641643166542,3.9973838755249975,-0.0297141671180725
2025-04-30 00:30:30.269315800,1.27131591796875,0.1334706715075098,-0.1395470649003982,0.0744666114705831,-0.0725678652524948,-0.057950995356507,0.9750980736812952,-0.0908230974347306,right,0.0333788394927978,-0.4115538119100014,1.1960486176114529,-8.907860500845313,-0.2006993252956734,0.2016458809375763,0.0212821662425994,3.92299265140742,-0.0549643039703369
2025-04-30 00:30:30.309315600,1.311315673828125,0.1375316510036243,-0.0467449650168418,0.0763415952506814,-0.0730556845664978,-0.0583155961379367,0.9759713277726646,-0.0913425854483842,right,0.0215355157852172,-0.4013517391539062,1.2376361079536378,-8.942110560971498,-0.1955791108960337,0.241940438747406,0.000447079539299,3.8310958734765648,-0.0396036505699157
2025-04-30 00:30:30.349315800,1.35131591796875,0.1422407343214667,-0.0145034976303577,0.0784596143432784,0.039433442056179,-0.0583874738297529,0.9768897409988142,-0.0912317315479802,right,0.0161355137825012,-0.3903267680143953,1.285641137187928,-8.977450754421948,-0.1900565092325733,0.244025245308876,-0.0317243039608001,3.731338737434149,-0.0424002110958099
2025-04-30 00:30:30.389315800,1.39131591796875,0.1414755977760647,0.0161881987005472,0.0779397509138214,-0.1537079811096191,-0.058193171914679,0.978109944096498,-0.09175597123884,right,-0.0232811570167541,-0.377857626512265,1.2852327025175094,-9.02379457244575,-0.1839562887313333,0.1341105848550796,-0.0387452095746994,3.617968378841877,-0.0366887152194976
2025-04-30 00:30:30.429315800,1.43131591796875,0.1362795639218621,0.0826006084680557,0.0753530958418885,-0.142104372382164,-0.0576386079712045,0.9785837062532796,-0.0917724859525853,right,-0.0241544842720031,-0.3749557477761469,1.2397487161934375,-9.040714143064616,-0.1826848609422972,0.0453203171491622,-0.0363241508603096,3.591502981242537,-0.0503434240818023
2025-04-30 00:30:30.469315800,1.47131591796875,0.1237621511718698,0.1503062546253204,0.0688316925403763,-0.1894638836383819,-0.0547205044977032,0.9796667414102908,-0.0884582987412302,right,0.0086732506752014,-0.3692023208557315,1.1290204696077852,-9.075879564470052,-0.1803361255925539,-0.0296572819352149,-0.0028750002384185,3.53894218840003,-0.0237402915954589
2025-04-30 00:30:30.509315800,1.51131591796875,0.1156083846263026,0.1227927953004837,0.0641357316439298,0.011941984295845,-0.0505846085806497,0.9807764978086524,-0.0818839235445691,right,0.0521629452705383,-0.3619572768177282,1.0579109705746172,-9.11001330474019,-0.1772150971741629,0.0446768254041671,0.0173393189907073,3.4725878480046983,-0.0140138864517211
2025-04-30 00:30:30.549315600,1.551315673828125,0.1188633843197283,0.1242305412888526,0.0653541067075243,0.0489579066634178,-0.0490706316618611,0.9812596880426356,-0.0785012736060383,right,0.0133252143859863,-0.3563688080515217,1.0898426707558333,-9.125648680767416,-0.1744999651198618,0.1527791023254394,-0.0163647308945655,3.421280562354624,-0.0168357193470001
2025-04-30 00:30:30.589315800,1.59131591796875,0.1233890690924802,0.1068298518657684,0.0669890186706103,-0.0307521596550941,-0.0464855288263863,0.9818875450621206,-0.072827978648768,right,-0.0358322262763977,-0.3491260642212724,1.1341512566249816,-9.144974728006124,-0.171021970368313,0.1188953593373298,-0.0343668088316917,3.354627239012718,0.0210844278335571
2025-04-30 00:30:30.629315800,1.63131591796875,0.1175941770325095,-0.0058973506093025,0.0639717524484604,-0.215644359588623,-0.0450181492493059,0.982151933614348,-0.0708671328398859,right,-0.0545700192451477,-0.3487862383753048,1.081272118548304,-9.152524997255206,-0.1710517432717353,-0.151561439037323,-0.0252504423260688,3.3514953707277773,0.053366333246231
2025-04-30 00:30:30.669315800,1.67131591796875,0.1058570867061251,-0.0197573658078908,0.0584003977634665,-0.1437196135520935,-0.0446630792886527,0.9817003256769544,-0.07177411268619,right,0.016146957874298,-0.3577026201729916,0.9705799661893396,-9.134505356439949,-0.1756679216801402,-0.211353912949562,0.0076003596186637,3.4335359405547377,0.0244015157222747
2025-04-30 00:30:30.709315800,1.71131591796875,0.1038457732846894,-0.0196710024029016,0.0575356556380287,0.0666435807943344,-0.0448887045890918,0.9812455355747606,-0.0723424869655455,right,0.0303348898887634,-0.3632378719400865,0.9502209957063198,-9.117395816206932,-0.1784147191831548,-0.1367596685886383,0.0137170404195785,3.4843297237247226,0.0222541987895965
2025-04-30 00:30:30.749315800,1.75131591796875,0.1081792951851655,-0.0415764153003692,0.0598790917693048,0.1229681298136711,-0.0462551902372951,0.9806799933916126,-0.0741350366713592,right,0.006231665611267,-0.3675770606824321,0.9880806246317922,-9.09807619870901,-0.1803931786919819,0.0569159686565399,-0.0151892304420471,3.5240731205701827,0.0124610662460327
2025-04-30 00:30:30.789315600,1.791315673828125,0.1107629166418883,-0.0454834625124931,0.0612496108042346,0.0500300303101539,-0.0470938611861525,0.9806495604285388,-0.0754112125283637,right,-0.0116826295852661,-0.3667340387345354,1.0119113628786056,-9.098442109411954,-0.1798805693158562,0.0927625223994255,-0.0121024399995803,3.51635684710443,0.0145767629146575
2025-04-30 00:30:30.829315800,1.83131591796875,0.1100438663222111,-0.0391796045005321,0.061124000571594,-0.002195980399847,-0.0483250819881545,0.9807071222959354,-0.0781061830827264,right,-0.0094302892684936,-0.3656474243412092,1.0057878384970127,-9.102959879097344,-0.1792820411994389,0.0648819357156753,-0.0040052309632301,3.50640740775913,0.0001778602600097
2025-04-30 00:30:30.869315800,1.87131591796875,0.1085419668383868,-0.0061216810718178,0.0605325977715312,-0.0036861822009086,-0.0490074842374156,0.9807494471856696,-0.0797916875690778,right,-0.0011519193649291,-0.3652362364867456,0.9922711351241916,-9.10589300993979,-0.1790655396114417,-0.0011274693533778,0.0074751079082489,3.5026410409629345,-0.0107747018337249
2025-04-30 00:30:30.909315800,1.91131591796875,0.1083435719790275,-0.0316524803638458,0.0604765414813466,0.0191670507192611,-0.0491640608236958,0.9806660006235386,-0.0801054518949938,right,0.0016859769821166,-0.3661282415281321,0.9901263051152228,-9.102980337363482,-0.1794986464994801,-0.0638186261057853,0.0152734294533729,3.510810318893194,-0.0014092326164245
2025-04-30 00:30:30.949315800,1.95131591796875,0.1085335424290017,-0.0520013868808746,0.0607924224166611,0.0025672661140561,-0.0502746632645128,0.9804185329259668,-0.0822401607247095,right,0.0143507122993469,-0.3681753194371966,0.9910749841421842,-9.095628221035003,-0.1804336527297119,-0.015639279037714,-0.0052762180566787,3.5295474603280423,-0.0134268105030059
2025-04-30 00:30:30.989315800,1.99131591796875,0.1081595735660176,-0.0379709154367446,0.0607069549523882,0.0095004737377166,-0.0508410944813049,0.9804998438767796,-0.0835158425204088,right,0.0176345109939575,-0.3670681647925804,0.9880947262223808,-9.099877695173024,-0.1798611380317581,0.0495903827250003,-0.0006816089153289,3.519415357892215,-0.0118987560272216
2025-04-30 00:30:31.029315600,2.031315673828125,0.1086555001024388,-0.0501423329114913,0.061079646534816,0.0295401643961668,-0.0517439063656529,0.9806530887231698,-0.0853758566263961,right,-0.001157522201538,-0.3647158337600022,0.9935024304848163,-9.107591046029327,-0.1786375011909476,0.0496958531439304,-0.0012456104159355,3.4978739726915955,0.0013781487941741
2025-04-30 00:30:31.069315800,2.07131591796875,0.1097514581114009,-0.0145473759621381,0.06177472669944,0.0356305725872516,-0.0528609158092152,0.9807685494902484,-0.0875603458217918,right,-0.0217707753181457,-0.3624583149413588,1.0043457499299198,-9.11432240011096,-0.1774337883175373,0.0330359414219856,0.0030059814453125,3.47718248231858,-0.0036171078681945
2025-04-30 00:30:31.109315800,2.11131591796875,0.1103875132561771,0.0112523268908262,0.0621053524960615,0.0125966574996709,-0.0530179907107074,0.9807397334273515,-0.0877636454277963,right,-0.0210304856300354,-0.3624997102116927,1.0101268906146288,-9.11353914077878,-0.1774309672684809,-0.0111299715936183,0.0060032084584236,3.477562129285932,-0.0077841281890869
2025-04-30 00:30:31.149315800,2.15131591796875,0.111242495972625,0.0325681529939174,0.0623707762655476,0.0134904095903038,-0.0522835739280901,0.9808111502129828,-0.0861403725364115,right,-0.0011112689971923,-0.3618910390267826,1.01815325294286,-9.114773651009797,-0.1771602441043721,0.0224313642829656,0.0109516903758049,3.471980237500369,-0.0071952939033508
2025-04-30 00:30:31.189315800,2.19131591796875,0.1125980642548313,0.0381019189953804,0.0628460896656688,0.0115607557818293,-0.05156255553822,0.9811067259168124,-0.0845852980590224,right,0.0030710697174072,-0.3586037212027286,1.0317848879322409,-9.124677205386757,-0.175559956085853,0.055694505572319,0.0067445114254951,3.4418121859908104,-0.0060698390007019
2025-04-30 00:30:31.229315800,2.23131591796875,0.1135865693461148,0.019676798954606,0.0631802354888987,0.015323806554079,-0.0509927765051816,0.9813749966759784,-0.0833947389797492,right,0.0041125416755676,-0.3556084447441307,1.0419679899029433,-9.133854783576728,-0.1741013052301547,0.0519876033067703,0.0056729093194007,3.414291434119641,-0.0023782551288604
2025-04-30 00:30:31.269315800,2.27131591796875,0.1147922082877009,-0.0088224746286869,0.0637401334561512,0.0396699756383895,-0.0510302956208544,0.9814969168831434,-0.0833465118813095,right,0.0021768808364868,-0.353824911427038,1.0536751596357672,-9.138626820284127,-0.1731961386114375,0.0232577566057443,0.001968890428543,3.397890042155981,-0.0015200674533843
2025-04-30 00:30:31.309315600,2.311315673828125,0.1164191045259336,-0.0297097545117139,0.0646085851927541,0.0433099865913391,-0.0515807032687093,0.9814403246953431,-0.0841909713683252,right,-0.0062219500541687,-0.3536299633588121,1.0686182425498962,-9.137557729747892,-0.1730315681498347,-0.0126517917960882,-0.0045276433229446,3.3960964367374777,0.0006280541419982
2025-04-30 00:30:31.349315800,2.35131591796875,0.1171359027717433,-0.0327335223555564,0.0650893730118915,0.0007198974490165,-0.0522990897849574,0.9812799044862796,-0.0854690319156362,right,-0.0142259001731872,-0.3547981989130028,1.074703334617242,-9.132842976185678,-0.1735452385172113,-0.0326836965978145,-0.0092934444546699,3.406841702635586,-5.57005405426e-05
2025-04-30 00:30:31.389315800,2.39131591796875,0.1155416582993379,-0.0238120444118976,0.0644333642554097,-0.0459474250674247,-0.0527744897167774,0.981167195006084,-0.0866452091112261,right,-0.0098339319229125,-0.356290205051448,1.059554865324125,-9.12948548245132,-0.1742816910991787,-0.0380066856741905,-0.0031041279435157,3.420558385559916,-0.0041118562221527
2025-04-30 00:30:31.429315800,2.43131591796875,0.112650136991785,-0.0256886053830385,0.0631092770827767,-0.0474603287875652,-0.0529694624862388,0.9811264345610456,-0.0874966104305839,right,0.0016937851905822,-0.357520347406849,1.0326785488363357,-9.128322868412733,-0.1749350096970411,-0.0370365269482135,0.0067288801074028,3.4318615776017305,0.0014196634292602
2025-04-30 00:30:31.469315800,2.47131591796875,0.1111167053466271,-0.0467496588826179,0.0625243615361299,-0.0372645296156406,-0.0536530490083328,0.9809803577050265,-0.0890832581333871,right,0.0004201531410217,-0.3592072647253208,1.0180362754996866,-9.124129508376122,-0.1757542626932819,-0.0523867011070251,0.0028451979160308,3.447353745765984,0.0023325383663177
2025-04-30 00:30:31.509315800,2.51131591796875,0.1095794663229295,-0.0678107142448425,0.0619393587000529,-0.027068730443716,-0.0543365324167916,0.9808328293721824,-0.0906736281771166,right,-0.0008572936058044,-0.3608919229751127,1.0033725940488278,-9.11989815441668,-0.1765732602975703,-0.0677368715405464,-0.0010362938046455,3.4628152265310286,0.0032485127449035
2025-04-30 00:30:31.549315600,2.551315673828125,0.1076215450134702,-0.1095996797084808,0.0613129088183039,-0.0277894902974367,-0.0557837270869069,0.9805356174714844,-0.0938427286510866,right,0.0006181597709655,-0.3638587210245421,0.9844067584246396,-9.111590929320457,-0.1779856004558615,-0.0730222314596176,-0.0032389312982559,3.4900200443208216,-0.000933825969696
2025-04-30 00:30:31.589315800,2.59131591796875,0.1053095386891282,-0.1351033598184585,0.0606656030951618,-0.0272918418049812,-0.0580242854855332,0.9802186370448932,-0.0987143989986319,right,-0.0019530653953552,-0.3665685705952858,0.9623404725670814,-9.104403648164867,-0.1792324303952301,-0.0519926697015762,-0.0038721337914466,3.514842058627308,-0.0068800151348114
2025-04-30 00:30:31.629315800,2.63131591796875,0.1017588745153175,-0.0993894040584564,0.0594449977819899,-0.0261613316833972,-0.0603838801030495,0.9800045636045404,-0.1041061570975341,right,0.0027452707290649,-0.3683124373209441,0.9293836671218276,-9.101651719108224,-0.1800310584406086,-0.0222753901034593,-0.0006111562252044,3.53080184430331,-0.0094221532344818
2025-04-30 00:30:31.669315800,2.67131591796875,0.0994121306806385,-0.0649752169847488,0.0586195032690909,-0.041600726544857,-0.0618646432687332,0.9799001771917668,-0.1075296701937417,right,-0.0062889456748962,-0.369056623478615,0.907760887248069,-9.10119053133726,-0.1803667324319705,-0.0265389680862426,0.000247947871685,3.5376094784915444,0.0003054440021514
2025-04-30 00:30:31.709315800,2.71131591796875,0.0971520916826131,-0.0369078963994979,0.0577061923505336,-0.0558647066354751,-0.0625993402208924,0.979803280015713,-0.1094021080109485,right,-0.0054303407669067,-0.3701791316728409,0.8868038047414273,-9.099261024579404,-0.1809331034174756,-0.0418815240263938,0.0008907094597816,3.547873975135386,0.0056204795837402
2025-04-30 00:30:31.749315800,2.75131591796875,0.0942907174283551,-0.028680894523859,0.0564486094150492,-0.0702112913131713,-0.0629044465743907,0.9796587279986874,-0.1104774066787682,right,-0.0023544430732727,-0.3722421471336519,0.8600728150084614,-9.094455085602402,-0.182003788195085,-0.058189857751131,0.0006667822599411,3.566727436426281,0.0049717128276824
2025-04-30 00:30:31.789315600,2.791315673828125,0.0908499587456776,-0.033118862658739,0.0548897007002337,-0.0732378289103508,-0.0630260139070976,0.9795134980369012,-0.1112846237378979,right,-0.0008915066719055,-0.3745406024843686,0.828030055668205,-9.089172761285305,-0.1832164948217033,-0.064450055360794,0.0002951100468635,3.587714402614534,0.0094236731529235
2025-04-30 00:30:31.829315800,2.83131591796875,0.0873455272098781,-0.0487681478261947,0.0533562438350214,-0.0846575796604156,-0.0633918803008419,0.9793164989293288,-0.1125997895981736,right,0.0003426074981689,-0.3771912868342786,0.7953402305960655,-9.082512718874217,-0.1845909633574148,-0.0608947947621345,-0.0021251589059829,3.611894027364254,0.0051965415477752
2025-04-30 00:30:31.869315800,2.87131591796875,0.0839345106175536,-0.0492321848869323,0.0519083730216737,-0.0481608211994171,-0.064022617050873,0.9791497489722928,-0.1144665130921173,right,0.0071648955345153,-0.3792662579983893,0.763725122083351,-9.077685152587296,-0.1856673864157312,-0.0282737798988819,-0.0010130107402801,3.6308044795393934,-0.0032529830932617
2025-04-30 00:30:31.909315800,2.91131591796875,0.0819749385060014,-0.0202879179269075,0.0511165436016066,-0.0258060526102781,-0.064598830734766,0.9790475790670464,-0.1159825311087809,right,0.0049208998680114,-0.380356106313211,0.7456108617871999,-9.075214963081478,-0.1862253781776344,-0.0154237672686576,-0.0039870366454124,3.640730538009107,-0.0064392685890197
2025-04-30 00:30:31.949315800,2.95131591796875,0.0811462754976818,0.0103888623416423,0.0507406539722313,-0.0126169202849268,-0.0646002680038448,0.978999591063712,-0.1161232115101695,right,0.0069425106048583,-0.3810327871521822,0.7378904236029833,-9.073372550085187,-0.1865800905178344,-0.0210589356720447,-0.0029867514967918,3.646891398726404,-0.0052262842655181
2025-04-30 00:30:31.989315800,2.99131591796875,0.0810622600836369,0.0183962099254131,0.0506456373570215,-0.0059325033798813,-0.0642114111519388,0.9789449059366028,-0.1153194276442554,right,0.0048117041587829,-0.3818960823926257,0.7368729171235114,-9.070292704248429,-0.1870261382236921,-0.0295292697846889,-0.0015268921852111,3.6547488342285153,9.2685222625e-06
2025-04-30 00:30:32.029315600,3.031315673828125,0.081412929288647,0.0086297243833541,0.0507622863917897,0.007118041627109,-0.063894653941882,0.9789067115972088,-0.1145890077037434,right,0.0033677816390991,-0.3824452959677202,0.7398902191180735,-9.06803177357912,-0.1873024958843673,-0.0070448797196149,-0.0003019273281097,3.659746204124391,0.0036223828792572
2025-04-30 00:30:32.069315800,3.07131591796875,0.0816674693587272,-0.0190362352877855,0.0509068250783417,0.0038245974574238,-0.0640319461567238,0.9789006248729344,-0.1148232416131449,right,-0.0023783445358276,-0.3823638398989705,0.7422226806536316,-9.0681404946506,-0.187248485752452,0.0107312127947807,-0.0018794387578964,3.659005030368269,0.0048128366470336
2025-04-30 00:30:32.109315800,3.11131591796875,0.0808757329345783,-0.0388313084840774,0.0506355030276684,-0.0205918494611978,-0.0646306982164989,0.9789307649794936,-0.1162147152256358,right,-0.0038300156593322,-0.3817927742792361,0.7352115597825497,-9.070806498989462,-0.1869588513211593,0.0277576297521591,-0.0007873103022575,3.6538086307689546,0.0005617141723632
2025-04-30 00:30:32.149315800,3.15131591796875,0.0795069587683759,-0.0268927104771137,0.0500994561861138,-0.0195647850632667,-0.0652876264930406,0.978980480201416,-0.1178384723160596,right,-0.0020503401756286,-0.3810809701862711,0.7230013358984142,-9.07439429434836,-0.1866137116701352,0.0241446997970342,-0.0010408237576484,3.647330082404613,-0.003564566373825
2025-04-30 00:30:32.189315800,3.19131591796875,0.0789266494034358,0.0018164385110139,0.0498549569431163,-0.0003495663404464,-0.0655326178221073,0.9790478136862358,-0.1184712015258239,right,-0.0017665028572082,-0.3803115398251573,0.7179563274685293,-9.077607411175968,-0.18623989076358,0.015456385910511,-0.0013372004032135,3.64032458755672,-0.004805713891983
2025-04-30 00:30:32.229315800,3.23131591796875,0.0797160255804566,0.0400706306099891,0.0501393876327652,0.0333125293254852,-0.0651470237896585,0.9791205076570536,-0.1175520568781763,right,0.0038395524024963,-0.3796572824081018,0.7253112202759832,-9.07941007668376,-0.1859164992068722,0.0053820936009287,-0.0007819756865501,3.6343662636741993,-0.0064065754413604
2025-04-30 00:30:32.269315800,3.27131591796875,0.0823572705928784,0.0720074772834777,0.0511884331951429,0.0531927123665809,-0.0641807963091698,0.9791945680274275,-0.1150964326177839,right,0.0014545321464538,-0.379009961687532,0.7494830270454287,-9.079805213481189,-0.1855761139149566,0.0110003855079412,-0.0008677467703819,3.628469314590096,-0.0084614753723144
2025-04-30 00:30:32.309315600,3.311315673828125,0.084983365079454,0.0637219995260238,0.0521851181603791,0.0307861976325511,-0.0630015066521318,0.9793077171855478,-0.1122200411362804,right,-0.0015162825584411,-0.378067573341106,0.7736147210001945,-9.081209235060214,-0.185105106991359,0.0133585762232542,-0.0005244836211204,3.619882103508711,-0.0037972629070281
2025-04-30 00:30:32.349315800,3.35131591796875,0.0867055350284844,0.0453370958566665,0.0527847443365552,0.0198430866003036,-0.0619545198099526,0.9794134549878332,-0.1097822811647596,right,-4.76837158203125e-07,-0.3772789303554552,0.7894999070700257,-9.082704442054032,-0.1847287421741369,0.002228207886219,0.0032361298799514,3.612693068787456,0.0018985569477081
2025-04-30 00:30:32.389315800,3.39131591796875,0.0882731340704692,0.0222300272434949,0.0534120749305447,0.035972811281681,-0.0613787710417819,0.9794387208415004,-0.1083186991684966,right,0.0022579431533813,-0.37704909184744,0.8038101719733327,-9.08228241724968,-0.1846066076695953,-0.0052294740453362,0.0052223354578018,3.610597557812929,0.0033935606479644
2025-04-30 00:30:32.429315800,3.43131591796875,0.0898654784026138,-0.0138902943581342,0.0541716419890398,0.0320004113018512,-0.0614059743083645,0.9793919325836083,-0.1080698893879269,right,-0.0029447078704833,-0.3771723318902967,0.8182313499052077,-9.080548140802978,-0.1846248155151797,-0.0067706052213907,0.0032375752925872,3.611721301145852,0.0052957534790039
2025-04-30 00:30:32.469315800,3.47131591796875,0.0904409455592722,-0.0378709696233272,0.0545601972725482,0.0146058928221464,-0.0620010593389334,0.9793197373140604,-0.1091683575501364,right,-0.0016496777534484,-0.3774101559818442,0.8233791611224412,-9.07921952254772,-0.1846937919120721,0.001348647288978,0.0016121491789817,3.613889585095644,0.0026122629642486
2025-04-30 00:30:32.509315800,3.51131591796875,0.0904113600289653,-0.0316315218806266,0.0546880785257443,0.0137000335380434,-0.0627804818305664,0.9792950848080372,-0.1107747530650456,right,-0.001894474029541,-0.3771503155608217,0.8231953289881349,-9.080179307490589,-0.1845234820093793,0.0192921869456768,0.0008309036493301,3.611520517876744,-0.0002653896808624
2025-04-30 00:30:32.549315600,3.551315673828125,0.0904796992814144,-0.0213160049170255,0.0548333410111286,0.0063492432236671,-0.0634185087103457,0.9792862193131738,-0.1120773915614937,right,-0.0036657452583312,-0.3767903900429256,0.8239332148086279,-9.081416740331052,-0.1843092490154491,0.0106284543871879,-0.0002663135528564,3.608238719727099,0.0001548826694488
2025-04-30 00:30:32.589315800,3.59131591796875,0.0904530779941123,-0.0056483820080757,0.0548810617597296,0.0049835559912025,-0.063757811860614,0.9792812508070642,-0.1127814461824796,right,-0.0006620287895202,-0.3766145523843867,0.8237487981524318,-9.082070820325612,-0.1842045945529619,0.0036542904563248,0.0008602365851402,3.606635376183689,-0.000518262386322
2025-04-30 00:30:32.629315800,3.63131591796875,0.0904530779941123,0.0065874205902218,0.0548810617597296,0.0001962324604392,-0.063757811860614,0.9792812508070642,-0.1127814461824796,right,-0.0009822845458984,-0.3766145523843867,0.8237487981524318,-9.082070820325612,-0.1842045945529619,0.0124717205762863,0.0013672783970832,3.606635376183689,0.0002435743808746
2025-04-30 00:30:32.669315800,3.67131591796875,0.0902817503982993,-0.0090999780222773,0.0547782137565043,-0.0073693352751433,-0.063711136705487,0.979348597267982,-0.1127407029797504,right,0.0005475878715515,-0.3759656285055582,0.8224035940885543,-9.084540425309536,-0.1838931098395643,0.0039814030751585,0.0036821812391281,3.6007167997896667,0.0065455138683319
2025-04-30 00:30:32.709315800,3.71131591796875,0.0895813029385203,-0.0389211326837539,0.0545335101509617,-0.0126838814467191,-0.0641687342316481,0.9793323857969548,-0.1138062766136386,right,-0.0002104043960571,-0.3759785012077321,0.8160359587527811,-9.085068248575926,-0.1838927053830747,-0.0012198099866509,0.0006621181964874,3.600834288689494,0.0045002400875091
2025-04-30 00:30:32.749315800,3.75131591796875,0.0883805552467945,-0.0538530275225639,0.0541381382603729,-0.0151399616152048,-0.0650904706487614,0.9793022542097928,-0.1159160528905848,right,0.0018982887268066,-0.3759212138550132,0.8051447085127234,-9.086246644705533,-0.1838461081426811,0.0144304288551211,-0.0009181052446365,3.6003117261201143,0.0004153251647949
2025-04-30 00:30:32.789315600,3.791315673828125,0.0869849965767228,-0.056750800460577,0.0536861274751818,-0.0125049147754907,-0.0662009315062002,0.979262068831122,-0.118447751590408,right,0.0004900693893432,-0.3758653874595206,0.7924810417726635,-9.087561818957328,-0.1837963041888566,0.0067290780134499,-0.0014126524329185,3.5998023152932523,-0.0006498098373413
2025-04-30 00:30:32.829315800,3.83131591796875,0.0855726737610731,-0.0427807383239269,0.0532093367492327,-0.0213632229715585,-0.0671605555067959,0.9791834647690424,-0.120658617544937,right,-0.0019303560256958,-0.3763163771480131,0.7795068477787077,-9.087053869435191,-0.1840053402101495,-0.0175560880452394,-0.0012676939368247,3.6039158880919215,0.0008685290813446
2025-04-30 00:30:32.869315800,3.87131591796875,0.0840548993424481,-0.0339611023664474,0.052649679898251,-0.0191585049033164,-0.0678414133578255,0.9790493500768176,-0.1222963251658395,right,0.0015223026275634,-0.377573143098419,0.7653329956714063,-9.083705728051068,-0.1846290923588678,-0.0345093682408332,0.0024337694048881,3.615375439739227,-0.0014212131500244
2025-04-30 00:30:32.909315800,3.91131591796875,0.0828243055459394,-0.0391003862023353,0.0522098736628717,-0.0210215095430612,-0.0684362810835061,0.9789173838593294,-0.1237074161778923,right,0.0004710555076599,-0.3787954047035703,0.753787884632498,-9.08023016089499,-0.185232912562618,-0.0245746299624443,0.0031204149127006,3.626514673390984,-0.0052430033683776
2025-04-30 00:30:32.949315800,3.95131591796875,0.0808618772250315,-0.0302618294954299,0.0513666937077107,-0.0306128319352865,-0.0688471004526636,0.9789064291894628,-0.1249119901382889,right,-0.000732421875,-0.3790110588116832,0.7359039990261197,-9.080912297940252,-0.1853747134599675,-0.0110831130295991,0.0029540434479713,3.6284795437231656,-0.002043217420578
2025-04-30 00:30:32.989315800,3.99131591796875,0.078899047450589,-0.0214232727885246,0.0505234755382946,-0.0402041561901569,-0.0692577643290176,0.978894526085328,-0.1261169079727635,right,-0.0019386410713195,-0.3792245331475503,0.7180171908102929,-9.081566962456703,-0.1855163726604844,0.0024084066972136,0.0027879625558853,3.630424248050153,0.0011585652828216
2025-04-30 00:30:33.029315600,4.031315673828125,0.0763796320696402,-0.0159862544387578,0.0493832908116005,-0.029741209000349,-0.0695285658117191,0.9789317066614768,-0.12715048873687,right,0.0035724639892578,-0.3791180627762457,0.6951642115544527,-9.0837320315361,-0.1855258135542538,0.0005347614642232,0.0047351419925689,3.629454233974218,-0.0006174147129058
2025-04-30 00:30:33.069315800,4.07131591796875,0.0748401538949606,-0.0019260104745626,0.0486686309143922,-0.0277502220124006,-0.0696209217744632,0.9789738246064066,-0.1276366074311846,right,0.0008079409599304,-0.3788937123626225,0.6812400233592838,-9.085603670626876,-0.1854575441237033,0.0077473064884543,0.0032349750399589,3.627410453186929,-0.0029322803020477
2025-04-30 00:30:33.109315800,4.11131591796875,0.0737639286526055,0.0173979438841342,0.0480912172587291,-0.0320170372724533,-0.0693240810137171,0.9790630060716312,-0.1272469848944915,right,0.0003017783164978,-0.3783722007149445,0.6716008190069347,-9.088217067995666,-0.1852488235685963,0.0118978200480341,0.0012065544724464,3.622658290223777,-0.0010938048362731
2025-04-30 00:30:33.149315800,4.15131591796875,0.0729200916290459,0.0261299572885036,0.0475621176484556,-0.0347870625555515,-0.0687259352874485,0.9791853509220312,-0.1262018324770707,right,-0.0011729598045349,-0.3776754817320545,0.6641153586223721,-9.091295160266757,-0.1849615442846645,0.0154079087078571,0.0006631761789321,3.616308336675167,-0.0017047226428985
2025-04-30 00:30:33.189315800,4.19131591796875,0.0724491446402888,0.0369703844189643,0.0471875971743946,-0.0229431688785552,-0.0679786380924346,0.9792868685805052,-0.124775181368968,right,-0.0021484494209289,-0.3772346374411037,0.6599491057883947,-9.093196025452018,-0.1847954233063661,0.0032196566462516,-0.0002918764948844,3.612289456422627,0.0001051723957061
2025-04-30 00:30:33.229315800,4.23131591796875,0.0724718706444202,0.050763014703989,0.0470162548902644,-0.0138230537995696,-0.0670197831558851,0.9793568659163804,-0.1228138094996565,right,0.0007879137992858,-0.3771889781728638,0.6601677169751375,-9.093345663055777,-0.1848184686281823,-0.0090985801070928,-0.0025993362069129,3.611872984576225,0.0024120807647705
2025-04-30 00:30:33.269315800,4.27131591796875,0.0726234307135201,0.0503263026475906,0.046876132512395,-0.0181786976754665,-0.0658628622121037,0.9794065786860804,-0.1204157568280129,right,0.0037319064140319,-0.3774680221050915,0.6614727351590991,-9.09223974764049,-0.1850064824970124,-0.0094052255153656,-0.0015352889895439,3.614417116101086,0.0043651461601257
2025-04-30 00:30:33.309315600,4.311315673828125,0.0728512327264466,0.0297092087566852,0.0468150491531265,-0.0050805322825908,-0.0649775031897918,0.9794674483771916,-0.1185663393837462,right,0.0055844187736511,-0.3774077178528685,0.6635597705662251,-9.092306383135917,-0.1850127922394736,0.0097200628370046,-0.00043236464262,3.613867373263836,0.0053241848945617
2025-04-30 00:30:33.349315800,4.35131591796875,0.0731986108751805,-0.0083596557378768,0.0469325157754818,0.0105457175523042,-0.0647910345776424,0.9795197303869796,-0.1181323839062223,right,0.0029618144035339,-0.3769180631842654,0.6668475600652396,-9.093838999530671,-0.1847716809155819,0.0159125346690416,0.0008312687277793,3.6094027950704097,0.0073481798171997
2025-04-30 00:30:33.389315800,4.39131591796875,0.0732616520149831,-0.0337678790092468,0.0470571534442391,0.006774237845093,-0.0653229939353722,0.9795052022310856,-0.1192125811942441,right,-0.0019291043281555,-0.376684853294537,0.6674824239026754,-9.094636287388203,-0.1846299275288764,0.0088908616453409,-0.0002960488200187,3.6072763044357297,0.0029643774032592
2025-04-30 00:30:33.429315800,4.43131591796875,0.0727591151678067,-0.024551311507821,0.0469433876686307,-0.0038570160977542,-0.0659552926146003,0.979454085958421,-0.1205937582147351,right,-0.0028700232505798,-0.376869847087063,0.6628634588651359,-9.094304863476752,-0.1847046585344237,-0.0019779615104198,0.0005286633968353,3.608963234609365,-0.0019247531890869
2025-04-30 00:30:33.469315800,4.47131591796875,0.0725879267301456,-0.0003294125199317,0.0469163376928105,0.0040046866051852,-0.0662119928282146,0.9794187358495148,-0.1211446651001366,right,-0.0026861429214477,-0.3770945525541602,0.6612477672968059,-9.093609282428025,-0.1848075086022211,-0.001058965572156,0.0007336810231208,3.6110119838327166,-0.0051379799842834
2025-04-30 00:30:33.509315800,4.51131591796875,0.0725879267301456,0.012802074663341,0.0469163376928105,0.0088341850787401,-0.0662119928282146,0.9794187358495148,-0.1211446651001366,right,0.0004401206970214,-0.3770945525541602,0.6612477672968059,-9.093609282428025,-0.1848075086022211,-0.0059460024349391,0.0019909441471099,3.6110119838327166,0.0003644526004791
2025-04-30 00:30:33.549315600,4.551315673828125,0.0732432947995355,0.0039991252124309,0.0471673932735869,0.0069507732987403,-0.0659037928248248,0.9794294006901556,-0.1203919788625916,right,0.0010687708854675,-0.3770817099145685,0.6672106942892074,-9.093219990849494,-0.1847972710037055,-0.0048507964238524,0.0022779107093811,3.6108950794547794,0.0038892030715942
2025-04-30 00:30:33.589315800,4.59131591796875,0.0732432947995355,-0.0311232730746269,0.0471673932735869,0.0084443259984254,-0.0659037928248248,0.9794294006901556,-0.1203919788625916,right,0.0008191466331481,-0.3770817099145685,0.6672106942892074,-9.093219990849494,-0.1847972710037055,-0.0119381584227085,0.0031831040978431,3.6108950794547794,0.0050412714481353
2025-04-30 00:30:33.629315800,4.63131591796875,0.073197585046806,-0.0295315515249967,0.0473111631673638,0.0046567134559154,-0.0667140302934416,0.9793269363494684,-0.1220422749583879,right,-0.000239610671997,-0.3775980876994791,0.6666585402991623,-9.091389852812886,-0.1850128799674859,-0.0079661151394248,0.0023664236068725,3.615602818754315,-8.74698162078e-05
2025-04-30 00:30:33.669315800,4.67131591796875,0.0733402068469526,-0.0023933388292789,0.0474767509199579,0.0052273627370595,-0.0671422847304822,0.979228301711088,-0.1228721962599513,right,-0.0005255937576293,-0.3783089851948836,0.6677666476715356,-9.088728524649143,-0.1853368404965103,-0.0172984097152948,0.0017652735114097,3.622082243901491,-0.0029802322387695
2025-04-30 00:30:33.709315800,4.71131591796875,0.073868281723704,0.0276039447635412,0.0477052329665199,0.0061134244315326,-0.066920998817482,0.9791522496240836,-0.1222983172381911,right,0.0017489790916442,-0.3791805071334995,0.672332859608531,-9.085223731398582,-0.1857598485661765,-0.0241381879895925,0.0005736723542213,3.630023266033828,-0.0038909912109375
2025-04-30 00:30:33.749315800,4.75131591796875,0.0754974163317296,0.0538025237619876,0.048329282023196,0.030816039070487,-0.0660929707251154,0.979130525739786,-0.1202843076769855,right,-0.0002447962760925,-0.3797012481333057,0.686990403579548,-9.082229810279609,-0.186009194561579,-0.0121117439121007,0.0006321370601654,3.634766661168635,-0.0031220018863677
2025-04-30 00:30:33.789315600,4.791315673828125,0.0770815590522712,0.0274625718593597,0.0489253344026493,0.0126772504299879,-0.0653013007676197,0.9791596659319198,-0.1183676374322306,right,-0.001398742198944,-0.3796524752838464,0.7013906848538667,-9.081306850215793,-0.1859798507970229,0.0005077142268419,0.0001657977700233,3.634322424532473,-0.0016071796417236
2025-04-30 00:30:33.829315800,4.83131591796875,0.0774373486754267,0.018057681620121,0.0490081942236519,0.0018798569217324,-0.0649185301333178,0.9792300690341346,-0.1175332128443232,right,-0.0013759732246398,-0.3791070518832365,0.7047749204646796,-9.083031774312255,-0.1857214172353007,0.0118380719795823,-7.50496983528e-05,3.629353988470137,-0.0006196200847625
2025-04-30 00:30:33.869315800,4.87131591796875,0.0774373486754267,0.0156085034832358,0.0490081942236519,-0.0047265756875276,-0.0649185301333178,0.9792300690341346,-0.1175332128443232,right,-0.0023788809776306,-0.3791070518832365,0.7047749204646796,-9.083031774312255,-0.1857214172353007,0.0049112797714769,-0.0006687343120574,3.629353988470137,0.0009942948818206
2025-04-30 00:30:33.909315800,4.91131591796875,0.0775261248494629,0.0192351583391428,0.0489368063667291,-0.0139379054307937,-0.0643650864377033,0.9792999473620144,-0.1163963074211273,right,-0.0023615360260009,-0.3787342013722972,0.7056860439602285,-9.084317722469567,-0.1855636914860151,-0.001225902698934,3.31550836563e-05,3.625957039508224,0.0027890801429748
2025-04-30 00:30:33.949315800,4.95131591796875,0.0775139820795842,0.0262834765017032,0.0488145581320435,-0.0119136609137058,-0.063752058366869,0.9793417985128304,-0.1151471059820797,right,0.0003765821456909,-0.3787185173907922,0.705580172432959,-9.084383188921212,-0.185586912061614,-0.0015244412934407,0.000944010913372,3.6258141239061934,0.0008325576782226
2025-04-30 00:30:33.989315800,4.99131591796875,0.0775575458200472,0.0351460613310337,0.0486950751969339,-0.0155051918700337,-0.063018328930214,0.9793927775187176,-0.1136417528232627,right,-0.0012866258621215,-0.3786723253112667,0.7059888993643224,-9.08451938252151,-0.1855995991305802,-0.0004556570202112,0.0008633360266685,3.6253932681456207,4.0531158447e-06
2025-04-30 00:30:34.029315600,5.031315673828125,0.0773292498997671,0.0348185934126377,0.048434862686231,-0.0222864970564842,-0.0622066578859456,0.97944267508099,-0.1120257288552658,right,-0.0021780133247375,-0.3787383595888413,0.7038963840644806,-9.084441641110182,-0.1856783459999494,-0.0109546678140759,0.0023244470357894,3.625994741170108,0.0011474788188934
2025-04-30 00:30:34.069315800,5.07131591796875,0.0767965492250294,0.0382710210978984,0.048042444931061,-0.0332408249378204,-0.0613943857455675,0.979444626640334,-0.1104506999363945,right,0.000309407711029,-0.3793650307222011,0.6988825014252216,-9.082547790187595,-0.186039944709392,-0.0233565811067819,0.0009044855833053,3.631704058727622,-0.0033347308635711
2025-04-30 00:30:34.109315800,5.11131591796875,0.0764897114422825,0.0517170578241348,0.0477287936859303,-0.0278718825429677,-0.0603835786287718,0.9794055659457284,-0.1084133190991136,right,0.0001048445701599,-0.3805037792803288,0.695779128582403,-9.078632078048589,-0.1866561750854073,-0.0395547971129417,0.0014515072107315,3.642075230616331,-0.004568874835968
2025-04-30 00:30:34.149315800,5.15131591796875,0.0763472987666632,0.0516814924776554,0.0474603846222416,-0.0316064804792404,-0.0591662188324613,0.979334531462654,-0.1059109622120083,right,-0.0021321773529052,-0.3820654832546921,0.6940515741374343,-9.0730487249583,-0.1874853297247286,-0.0536725744605064,0.0020450204610824,3.656290510712564,0.000796765089035
2025-04-30 00:30:34.189315800,5.19131591796875,0.0757700107590275,0.0340376272797584,0.0470280718611824,-0.0330244936048984,-0.0581381176219694,0.9792243026360352,-0.1038686866896886,right,0.0012022256851196,-0.383979859141568,0.6882825622819364,-9.066451810911298,-0.1884885967405303,-0.0561900436878204,0.0052827671170234,3.673703710067272,0.0017993748188018
2025-04-30 00:30:34.229315800,5.23131591796875,0.0754343593770811,0.0227459743618965,0.0467571665402489,-0.0114172529429197,-0.0574201123282658,0.9791433962219196,-0.1024292881095892,right,0.0034589171409606,-0.3853333914388157,0.6848639860101043,-9.061716014561055,-0.1891952192359524,-0.0192088298499584,0.0059341937303543,3.686007311323285,9.48309898376e-05
2025-04-30 00:30:34.269315800,5.27131591796875,0.0753849368387309,0.0116200176998972,0.0466558897283124,-0.0158918257802724,-0.0570060233728146,0.9791580784316898,-0.1015900062760566,right,-0.0007702112197875,-0.3854423353212176,0.684385920169577,-9.061349519336224,-0.1892696033251883,0.008764773607254,0.0027040988206863,3.686997199143469,0.0011951327323913
2025-04-30 00:30:34.309315600,5.311315673828125,0.0750288770852545,0.0112132430076599,0.0464299084991035,-0.0180574767291545,-0.0567501121867655,0.9792241052375652,-0.1011490854119575,right,-0.0001672506332397,-0.3849741693135242,0.6812888309370726,-9.06331292836368,-0.1890605989832904,0.0138859627768397,0.0003477409482002,3.682742756569385,0.0002181231975555
2025-04-30 00:30:34.349315800,5.35131591796875,0.0745366456043097,0.0087400088086724,0.0461310813930216,-0.0162545349448919,-0.0564382646141514,0.9792848585560836,-0.1006169996000083,right,0.0026122331619262,-0.3846177749240104,0.6769251558348536,-9.0649554348737,-0.1889122169770297,0.0062641985714435,-0.0003244206309318,3.679503043995797,0.0027714669704437
2025-04-30 00:30:34.389315800,5.39131591796875,0.0742589291332796,0.0061927838250994,0.0459497937381877,-0.0012469794601202,-0.0561929823494768,0.979319617820482,-0.1001741670583478,right,0.0043668150901794,-0.3844523357596375,0.6744527743719517,-9.065749800121784,-0.1888491701093549,0.0039680968038737,0.0007456988096237,3.6779993614345785,0.0021942257881164
2025-04-30 00:30:34.429315800,5.43131591796875,0.0744222070419509,0.0033975467085838,0.046006590936771,0.0050645018927752,-0.0560939571062913,0.9793281212146636,-0.0999420791770942,right,0.0028473734855651,-0.3843934360025265,0.6759491504095494,-9.065855598583816,-0.188821046615116,0.0092967236414551,0.0008920207619667,3.677463647122681,-0.0004581212997436
2025-04-30 00:30:34.469315800,5.47131591796875,0.0744222070419509,-0.0003752182237803,0.046006590936771,0.0091621503233909,-0.0560939571062913,0.9793281212146636,-0.0999420791770942,right,-0.0008227825164794,-0.3843934360025265,0.6759491504095494,-9.065855598583816,-0.188821046615116,0.0168560333549976,0.0004028752446174,3.677463647122681,-0.0025338232517242
2025-04-30 00:30:34.509315800,5.51131591796875,0.0751209598162003,0.0046571865677833,0.0463141573523694,0.0159711744636297,-0.0561027133504808,0.9794381478152344,-0.0998611895347134,right,-0.0045064091682434,-0.383104329900545,0.6826390034370124,-9.070100981068611,-0.1881715859031099,0.0242175739258527,0.0002904757857322,3.6657413528859615,0.0006142854690551
2025-04-30 00:30:34.549315600,5.551315673828125,0.0754394209616811,0.009919200092554,0.0464127869564269,-0.0048986319452524,-0.0559283510805912,0.9795369465785329,-0.0994719268488925,right,-0.0031920671463012,-0.3821090586499899,0.6858020705778152,-9.073516342470048,-0.187683921055855,0.0173144862055778,0.0004034638404846,3.6566868165537714,0.0046140551567077
2025-04-30 00:30:34.589315800,5.59131591796875,0.0752779040571045,-0.0024649454280734,0.0463024683333855,-0.0053773913532495,-0.055794111432099,0.9795914464389648,-0.0992417887877915,right,-0.0001555085182189,-0.3816462679728826,0.6844637346461415,-9.075313747280836,-0.187466922110858,0.0034316107630729,0.0017431750893592,3.65247533633858,0.005464494228363
2025-04-30 00:30:34.629315800,5.63131591796875,0.0752779040571045,-0.0185455679893493,0.0463024683333855,0.0065312627702951,-0.055794111432099,0.9795914464389648,-0.0992417887877915,right,0.0020819902420043,-0.3816462679728826,0.6844637346461415,-9.075313747280836,-0.187466922110858,0.011835184879601,0.001242458820343,3.65247533633858,0.0004488825798034
2025-04-30 00:30:34.669315800,5.67131591796875,0.0749347835478318,-0.0327231921255588,0.0462763355208157,-0.0069699743762612,-0.0565525229622439,0.9796017264167688,-0.1008698780253946,right,-0.0011899471282958,-0.3811423703991219,0.6814874222490936,-9.077382370248436,-0.1871919011578205,0.0108609581366181,0.0010386332869529,3.6478888853311537,-0.0005986094474792
2025-04-30 00:30:34.709315800,5.71131591796875,0.0736054243068354,-0.0459052696824073,0.0458139553565048,-0.0238679386675357,-0.0574094910912488,0.9795693425711632,-0.1028718729905751,right,4.44054603576e-05,-0.3812048687884359,0.6694030167017132,-9.078052816855909,-0.1872143151478494,-0.0033015152439475,0.000566616654396,3.6484579173907634,-0.000614047050476
2025-04-30 00:30:34.749315800,5.75131591796875,0.0716660525933218,-0.0511137545108795,0.0450890352043897,-0.030259096994996,-0.0583276137481904,0.9794782812548448,-0.1050980824585662,right,-0.0011992454528808,-0.3819444085434343,0.6516026446603238,-9.076640027448535,-0.1875823108719625,-0.0273266173899173,0.0033093988895416,3.655188686950504,-0.0039764046669006
2025-04-30 00:30:34.789315600,5.791315673828125,0.0701400035718443,-0.038616232573986,0.0445326070068649,-0.0146579155698418,-0.0590743785889008,0.97936437713982,-0.1068905164333312,right,0.003096580505371,-0.3829415416118908,0.6374947704613209,-9.073983375459909,-0.1880756043640298,-0.01968265324831,0.0028569772839546,3.664260758939385,-0.0026982426643371
2025-04-30 00:30:34.829315800,5.83131591796875,0.0682476940883914,-0.032044194638729,0.0437909997780736,-0.0199640691280365,-0.0597641461372971,0.979270852892523,-0.1086420691574876,right,0.0019855499267578,-0.3838094911783455,0.6201056826345622,-9.071997170078754,-0.188518449540809,-0.0228270478546619,0.0043187737464904,3.672154434798658,-0.0022048652172088
2025-04-30 00:30:34.869315800,5.87131591796875,0.0664797153131842,-0.0378134697675704,0.0430931102400164,-0.0266540814191102,-0.0603946439668085,0.979197556643572,-0.1102553140113041,right,0.0029690861701965,-0.3844676091694703,0.6039049643421546,-9.070666213735938,-0.1888589671967286,-0.0125501044094562,0.0042967796325683,3.678138185383379,0.0002017319202423
2025-04-30 00:30:34.909315800,5.91131591796875,0.0650304257735427,-0.0337467156350612,0.0425394486973435,-0.0191566403955221,-0.0610282850940559,0.9791494192642084,-0.1118219706764736,right,0.0016952753067016,-0.3847947627406954,0.5906800835227594,-9.070330698171258,-0.1890297276289841,-0.0030064089223742,0.0030870847404003,3.68111194049716,-0.000352144241333
2025-04-30 00:30:34.949315800,5.95131591796875,0.0640439803629364,-0.023592559620738,0.0421793993769904,-0.0130901373922824,-0.0615474946011126,0.9791124609380206,-0.1130686592236241,right,0.0004670023918151,-0.3850000088620106,0.5816840724447742,-9.07015475708246,-0.1891340816432407,-0.0036448137834668,0.0010611526668071,3.6829774421080943,0.0018269419670104
2025-04-30 00:30:34.989315800,5.99131591796875,0.0633278920803413,-0.0190695598721504,0.0419241633989383,-0.0105437617748975,-0.06193923471218,0.9790710862110432,-0.1140012976485866,right,0.0006518363952636,-0.3852858858146826,0.5751221931785345,-9.069517628222703,-0.1892766439268842,-0.0052283760160207,0.0023475214838981,3.685575641907752,0.0032133162021636
2025-04-30 00:30:35.029315600,6.031315673828125,0.062698394228511,-0.020616877824068,0.0417135087291359,-0.0055931247770786,-0.0623514081635461,0.97902840674784,-0.1149595233711375,right,0.0035432577133178,-0.385556865186119,0.5693502587135881,-9.068881083884834,-0.1894089005480836,0.000696126371622,0.002878338098526,3.688037940368056,0.0027361214160919
2025-04-30 00:30:35.069315800,6.07131591796875,0.0624990673808796,-0.0161330606788396,0.0417033925291051,0.0044030481949448,-0.0628056357680042,0.9790189209569532,-0.1159294654949688,right,0.0021907687187194,-0.3853839593302767,0.5675824087908491,-9.069630440947414,-0.1893102052796085,0.0160536728799343,0.0007780417799949,3.686466745528578,-0.0001232922077178
2025-04-30 00:30:35.109315800,6.11131591796875,0.0626360574212732,-0.0135221108794212,0.0418115578128536,0.0064926287159323,-0.0631194728976026,0.9790656251793732,-0.1165584861463692,right,0.0004783868789672,-0.3846633843517412,0.5689909604145214,-9.072201168218257,-0.1889397830573009,0.0203760676085948,-0.0008883066475391,3.67991776227653,-0.0009095966815948
2025-04-30 00:30:35.149315800,6.15131591796875,0.0626100094344575,-0.0111897438764572,0.0418271860169975,0.0095870504155755,-0.0633623985110887,0.979126344988347,-0.1170756125435496,right,-0.0002973675727844,-0.3838672309628668,0.5689377689225599,-9.07513722167015,-0.1885397669480205,0.0114872679114341,-0.0005099773406982,3.672679627716541,0.0001147985458374
2025-04-30 00:30:35.189315800,6.19131591796875,0.0628776490238971,-0.0157623514533042,0.0420110092624856,0.0143931061029434,-0.0636840322460843,0.9791185196651514,-0.1176846361748567,right,0.0004637837409973,-0.3836889157019724,0.5714077757652849,-9.075638156929612,-0.1884311424474042,-0.0006174426525831,-0.000857338309288,3.6710581639945503,0.0002950727939605
2025-04-30 00:30:35.229315800,6.23131591796875,0.0631634456597427,-0.0195273105055093,0.0422187250351211,0.0114332707598805,-0.0640575663018305,0.9790855462851284,-0.1183917335375026,right,0.0006094574928283,-0.3837346172979262,0.5739909606589004,-9.07530731754005,-0.188429512379099,-0.0006812637438997,-6.51217997074e-05,3.6714737590581175,-0.0003196895122528
2025-04-30 00:30:35.269315800,6.27131591796875,0.0632529271660663,-0.0170241352170705,0.0423501835088299,0.0114476066082715,-0.0645252860949926,0.9790563627596244,-0.1193305534988395,right,0.0011113286018371,-0.3837044419760028,0.5748100219568237,-9.075366354250908,-0.188392006513768,0.0052108997479081,0.0012940466403961,3.67119932603091,-0.0035806596279144
2025-04-30 00:30:35.309315600,6.311315673828125,0.0634638709784198,-0.0030246321111917,0.042500396133958,0.0051741846837103,-0.0648181760818402,0.97905558730759,-0.1198928629144874,right,-0.0005586147308349,-0.3834763657703881,0.5767774861048907,-9.076080055478217,-0.1882615287699919,0.0030637236777693,0.0014587678015232,3.669125150105357,-0.004743218421936
2025-04-30 00:30:35.349315800,6.35131591796875,0.063735583423483,0.0083861360326409,0.0426147149788114,0.0006628232076764,-0.0647220064917283,0.9790395140937828,-0.119640258980961,right,-0.0014154911041259,-0.3836700606034865,0.5791982835110276,-9.0752137940377,-0.1883529695183092,-0.0167381893843412,0.002183299511671,3.670886606819928,-0.0009761154651641
2025-04-30 00:30:35.389315800,6.39131591796875,0.0636968004308312,0.0087726982310414,0.0425711427984009,-0.0043943366035819,-0.0645006385808801,0.9789866324354846,-0.1191810609374223,right,0.0012117028236389,-0.3843826462592946,0.5786796664644033,-9.072623193022608,-0.1887130828469556,-0.0310180597007274,0.0040277428925037,3.677365739706159,0.0032415986061096
2025-04-30 00:30:35.429315800,6.43131591796875,0.0637977757945767,-0.0085847983136773,0.0426474476592207,0.0028187041170895,-0.0644822460969431,0.9788588644509176,-0.1190970025537511,right,0.0008988976478576,-0.3857139499387594,0.5792831487828866,-9.067671123573184,-0.1893637252991053,-0.0416054651141166,0.00273859500885,3.689465342822671,0.005462110042572
2025-04-30 00:30:35.469315800,6.47131591796875,0.0638960063586124,-0.0105953738093376,0.0427676047573067,0.0038388916291296,-0.0646713956700602,0.9786974077308326,-0.1194333620073969,right,-0.0005900263786315,-0.3872491162425121,0.5798115200385451,-9.06195099236071,-0.190105224655727,-0.0312909334897995,0.0031415708363056,3.7034096970230337,0.0030136406421661
2025-04-30 00:30:35.509315800,6.51131591796875,0.0646985363841037,0.0210940539836883,0.0430963849990044,0.0178302023559808,-0.064397127292079,0.9786866046152692,-0.1187134187575807,right,-0.0006292462348937,-0.387421864089403,0.5870424211401492,-9.060844492423534,-0.1901793916725912,-0.0107418112456798,0.0024479106068611,3.704978261514008,-7.11977481842e-05
2025-04-30 00:30:35.549315600,6.551315673828125,0.0655012579632519,0.0527834817767143,0.0434251522487018,0.0318215116858482,-0.0641228300886771,0.9786756713741366,-0.1179932493764735,right,-0.0006689429283142,-0.3875941142192987,0.5942737971657887,-9.05973331631124,-0.1902535308524765,0.0098073072731494,0.0017542093992233,3.706542442090809,-0.0031555891036987
2025-04-30 00:30:35.589315800,6.59131591796875,0.0677993518431772,0.0737396925687789,0.0442910212000437,0.0374488607048988,-0.0630685140117271,0.9787553483211876,-0.1154031041997035,right,-0.0002164244651794,-0.3871020567585824,0.6152157917011529,-9.060162355378267,-0.1899962801465995,0.0079711060971021,0.0011562854051589,3.702074356766045,-0.0027932524681091
2025-04-30 00:30:35.629315800,6.63131591796875,0.0697123710715579,0.0534006431698799,0.0449806014578727,0.0140146948397159,-0.062012358045186,0.9788193245506164,-0.112880471356188,right,-0.0001747012138366,-0.3868147546724016,0.6326210269451141,-9.060029084387422,-0.1898520562182747,-0.0001457836478948,0.0009917095303535,3.6994653433114286,-0.0006873309612274
2025-04-30 00:30:35.669315800,6.67131591796875,0.0709952402392135,0.0376114249229431,0.0454263574674136,0.0149620110169053,-0.0612042313296026,0.9788567516198656,-0.1109824553509973,right,0.0005596876144409,-0.3867340500186129,0.6442644837919622,-9.05950827538371,-0.1898158821221763,-0.0071480977348983,0.0011366531252861,3.6987323528617617,0.0040180087089538
2025-04-30 00:30:35.709315800,6.71131591796875,0.0716993827129571,0.0139624699950218,0.0456815046058396,0.0054056607186794,-0.060776601860886,0.9788423532412064,-0.1099645773453408,right,-0.0008129477500915,-0.3870368398460287,0.6505632916752249,-9.057934742456672,-0.1899659132586982,-0.0092605696991086,0.0023648887872695,3.701482236091792,0.0054221749305725
2025-04-30 00:30:35.749315800,6.75131591796875,0.071905046635046,0.005147255025804,0.045752014368283,0.0012839823029935,-0.0606148763127049,0.9788258949884692,-0.1095881855217748,right,0.0002068281173706,-0.3872764523859221,0.652362376986444,-9.05691592080295,-0.1900856275014341,-0.001248363405466,0.0009710192680358,3.703658118826151,0.0012962818145751
2025-04-30 00:30:35.789315600,6.791315673828125,0.071905046635046,0.0122425165027379,0.045752014368283,-0.005919886752963,-0.0606148763127049,0.9788258949884692,-0.1095881855217748,right,-0.0017195343971252,-0.3872764523859221,0.652362376986444,-9.05691592080295,-0.1900856275014341,0.0135044539347291,0.0004439130425453,3.703658118826151,-0.0026628673076629
2025-04-30 00:30:35.829315800,6.83131591796875,0.0724946248380006,0.0285694245249032,0.0459276707236637,0.0092686284333467,-0.0601296175868915,0.9788818975736222,-0.1084918242884228,right,-0.0014744400978088,-0.3869001969112715,0.6578029606051743,-9.057918960365653,-0.1899086761892877,0.0018917107954621,-0.0003025233745574,3.700241296119988,1.01923942565e-05
2025-04-30 00:30:35.869315800,6.87131591796875,0.0730625616816686,0.0207608118653297,0.0460957539299203,0.0013960106298327,-0.0596094368958383,0.9788968470557904,-0.1073169306094804,right,0.000152051448822,-0.3869734032413225,0.6629273909468203,-9.05727364819944,-0.1899545741547632,-0.0069022141396999,0.0016293823719024,3.700906189769506,0.0015755295753479
2025-04-30 00:30:35.909315800,6.91131591796875,0.0731948385620145,0.0046409126371145,0.046114000656447,0.0021429888438433,-0.0593549686981885,0.9788847156556264,-0.1067644635229165,right,0.0030033588409423,-0.3872375547305146,0.6640539107587188,-9.0562104028821,-0.1900927458590679,-0.0030517776031047,0.0027470365166664,3.703304775343835,0.0017355680465698
2025-04-30 00:30:35.949315800,6.95131591796875,0.0731948385620145,-0.0027229865081608,0.046114000656447,0.0031234060879796,-0.0593549686981885,0.9788847156556264,-0.1067644635229165,right,0.0008597373962402,-0.3872375547305146,0.6640539107587188,-9.0562104028821,-0.1900927458590679,0.0003837363328784,0.001627504825592,3.703304775343835,0.0007950663566589
2025-04-30 00:30:35.989315800,6.99131591796875,0.0731948385620145,-0.0043857819400727,0.046114000656447,0.0021696700714528,-0.0593549686981885,0.9788847156556264,-0.1067644635229165,right,-0.0003285408020019,-0.3872375547305146,0.6640539107587188,-9.0562104028821,-0.1900927458590679,-0.0023171920329332,0.0022836476564407,3.703304775343835,-0.000515729188919
2025-04-30 00:30:36.029315600,7.031315673828125,0.0734201506149988,-0.0046878065913915,0.0462715987624286,0.0032570650801062,-0.0595765983883239,0.9788272384655432,-0.1071626047266545,right,-0.0024543404579162,-0.3876547914085677,0.6659810063637792,-9.054518796533346,-0.1902812076374106,-0.0050232177600264,0.0011019706726074,3.707093353971839,-0.0025348961353302
2025-04-30 00:30:36.069315800,7.07131591796875,0.0734201506149988,0.0032586613669991,0.0462715987624286,0.0057646408677101,-0.0595765983883239,0.9788272384655432,-0.1071626047266545,right,-0.0005323886871337,-0.3876547914085677,0.6659810063637792,-9.054518796533346,-0.1902812076374106,-0.0023420781362801,0.0026314631104469,3.707093353971839,-0.000416874885559
2025-04-30 00:30:36.109315800,7.11131591796875,0.0734201506149988,0.0012266358826309,0.0462715987624286,0.0049803694710135,-0.0595765983883239,0.9788272384655432,-0.1071626047266545,right,-0.0008051395416259,-0.3876547914085677,0.6659810063637792,-9.054518796533346,-0.1902812076374106,-0.0031955970916897,0.0029321908950805,3.707093353971839,0.0012248754501342
2025-04-30 00:30:36.149315800,7.15131591796875,0.0734201506149988,-0.0041307592764496,0.0462715987624286,-0.0036572385579347,-0.0595765983883239,0.9788272384655432,-0.1071626047266545,right,7.31945037841e-05,-0.3876547914085677,0.6659810063637792,-9.054518796533346,-0.1902812076374106,-0.0014619505964219,0.0033627599477767,3.707093353971839,0.0009428560733795
2025-04-30 00:30:36.189315800,7.19131591796875,0.0734201506149988,-0.0011873496696352,0.0462715987624286,-0.0002911321353167,-0.0595765983883239,0.9788272384655432,-0.1071626047266545,right,0.0003902912139892,-0.3876547914085677,0.6659810063637792,-9.054518796533346,-0.1902812076374106,0.0050689708441495,0.0029443278908729,3.707093353971839,0.000478982925415
2025-04-30 00:30:36.229315800,7.23131591796875,0.0734201506149988,-0.0023440052755177,0.0462715987624286,-0.0064710238948464,-0.0595765983883239,0.9788272384655432,-0.1071626047266545,right,-0.0012597441673278,-0.3876547914085677,0.6659810063637792,-9.054518796533346,-0.1902812076374106,-0.002444814890623,0.0040307193994522,3.707093353971839,0.0022527277469635
2025-04-30 00:30:36.269315800,7.27131591796875,0.0734201506149988,-0.0036446996964514,0.0462715987624286,-0.0075018666684627,-0.0595765983883239,0.9788272384655432,-0.1071626047266545,right,0.0009979009628295,-0.3876547914085677,0.6659810063637792,-9.054518796533346,-0.1902812076374106,-0.0051967930048704,0.0029742643237113,3.707093353971839,0.0011428594589233
2025-04-30 00:30:36.309315600,7.311315673828125,0.0734201506149988,0.0019480967894196,0.0462715987624286,-0.0071227764710783,-0.0595765983883239,0.9788272384655432,-0.1071626047266545,right,0.0008720755577087,-0.3876547914085677,0.6659810063637792,-9.054518796533346,-0.1902812076374106,-0.0008956701494753,0.0018121004104614,3.707093353971839,0.0006150007247924
2025-04-30 00:30:36.349315800,7.35131591796875,0.0735129958472249,0.0068553583696484,0.0463020098732902,-0.0076394090428948,-0.0594351760113118,0.9787663668495644,-0.1068370923965691,right,0.0013660788536071,-0.3883588668388973,0.6666297525960951,-9.051851623150704,-0.1906308192216956,-0.0075496165081858,0.0022231191396713,3.713484516313672,0.0022648870944976
2025-04-30 00:30:36.389315800,7.39131591796875,0.0735129958472249,0.0063905250281095,0.0463020098732902,-0.0039620529860258,-0.0594351760113118,0.9787663668495644,-0.1068370923965691,right,0.000425100326538,-0.3883588668388973,0.6666297525960951,-9.051851623150704,-0.1906308192216956,0.0019159782677888,0.0038369223475456,3.713484516313672,0.0024127662181854
2025-04-30 00:30:36.429315800,7.43131591796875,0.0735129958472249,-0.008739392273128,0.0463020098732902,0.0043980404734611,-0.0594351760113118,0.9787663668495644,-0.1068370923965691,right,0.000770092010498,-0.3883588668388973,0.6666297525960951,-9.051851623150704,-0.1906308192216956,0.017296727746725,0.0020962879061698,3.713484516313672,0.0027757585048675
2025-04-30 00:30:36.469315800,7.47131591796875,0.0735553686722808,-0.0140472967177629,0.0463243767437507,0.0018631007988005,-0.0595490448953362,0.9788529723910506,-0.1070872312288871,right,-0.0005727410316467,-0.3873804797185581,0.6672800331983715,-9.05544292564094,-0.1901445677581583,0.0220407154411077,0.0026287361979484,3.704602706199884,0.0009922683238983
2025-04-30 00:30:36.509315800,7.51131591796875,0.0735553686722808,-0.0073774447664618,0.0463243767437507,-0.0045872787013649,-0.0595490448953362,0.9788529723910506,-0.1070872312288871,right,-0.0036110877990722,-0.3873804797185581,0.6672800331983715,-9.05544292564094,-0.1901445677581583,0.0033931341022253,0.0005235001444816,3.704602706199884,-0.0005801618099212
2025-04-30 00:30:36.549315600,7.551315673828125,0.0735553686722808,-0.0004572966136038,0.0463243767437507,-0.0066338991746306,-0.0595490448953362,0.9788529723910506,-0.1070872312288871,right,0.001235544681549,-0.3873804797185581,0.6672800331983715,-9.05544292564094,-0.1901445677581583,-0.0086390413343906,0.0015668869018554,3.704602706199884,-0.0011273026466369
2025-04-30 00:30:36.589315800,7.59131591796875,0.0735553686722808,-0.0047501819208264,0.0463243767437507,0.0077575547620654,-0.0595490448953362,0.9788529723910506,-0.1070872312288871,right,0.0047089457511901,-0.3873804797185581,0.6672800331983715,-9.05544292564094,-0.1901445677581583,0.0051189931109547,0.0015713050961494,3.704602706199884,-0.0014173090457916
2025-04-30 00:30:36.629315800,7.63131591796875,0.0737876204863027,-0.0123934652656316,0.0465208587586243,0.0053980508819222,-0.060011357401961,0.9788333957618288,-0.1079902113580268,right,0.0010677576065063,-0.3872482906839656,0.669419237184152,-9.055775518596173,-0.1900519229993736,0.0015487174969166,0.0023959353566169,3.703402390499413,0.0002240538597106
2025-04-30 00:30:36.669315800,7.67131591796875,0.0737699026955825,-0.0109003828838467,0.0465804877451823,0.00588951818645,-0.0603505215046696,0.9788029032055602,-0.1086839465275169,right,-0.0009751915931701,-0.3873512483671774,0.6692306558094918,-9.05540726980567,-0.1900867453772073,-0.0051464485004544,0.0028011351823806,3.704337333261967,-0.0002594590187072
2025-04-30 00:30:36.709315800,7.71131591796875,0.0737774555584994,-0.005134233739227,0.0466373487715993,0.0016387640498578,-0.0605989580781332,0.9787638959160756,-0.1091837193694577,right,0.0011523962020874,-0.3875952655256549,0.6692324093751609,-9.054500676354763,-0.1901943918067852,-0.0018111807294189,0.0018173158168792,3.706552671223879,-0.0023150146007537
2025-04-30 00:30:36.749315800,7.75131591796875,0.0740126926993081,-0.0032086092978715,0.0467776870337171,0.0036557372659444,-0.0607384250186325,0.978739772137123,-0.1094198829463439,right,-0.0013269782066345,-0.3877142215703926,0.6713297469805926,-9.053903294983506,-0.1902399857007959,-0.0033544646576046,0.0017580538988113,3.7076328676760193,-0.000783085823059
2025-04-30 00:30:36.789315600,7.791315673828125,0.0740126926993081,-0.006293075159192,0.0467776870337171,-0.0056436480954289,-0.0607384250186325,0.978739772137123,-0.1094198829463439,right,-0.0032005310058593,-0.3877142215703926,0.6713297469805926,-9.053903294983506,-0.1902399857007959,-0.0026026656851172,0.002569131553173,3.7076328676760193,0.0010739266872406
2025-04-30 00:30:36.829315800,7.83131591796875,0.0740126926993081,-0.0087503883987665,0.0467776870337171,-0.0127652250230312,-0.0607384250186325,0.978739772137123,-0.1094198829463439,right,0.0007470846176147,-0.3877142215703926,0.6713297469805926,-9.053903294983506,-0.1902399857007959,0.0091640073806047,0.0018960982561111,3.7076328676760193,0.0008465945720672
2025-04-30 00:30:36.869315800,7.87131591796875,0.0731799908621538,-0.0122805498540401,0.0464337498010447,-0.0094910208135843,-0.0610393436474773,0.9787827582473428,-0.1102093127258581,right,0.0003702640533447,-0.3872232186885285,0.6639233431816101,-9.056273531246184,-0.1900064688268165,0.0162525586783885,0.002416469156742,3.70317471922338,0.0013843774795532
2025-04-30 00:30:36.909315800,7.91131591796875,0.0724286013991406,-0.0188981145620346,0.0461300526220765,-0.0092617319896817,-0.0613582207640936,0.9788286736467352,-0.111020717004227,right,0.0017140507698059,-0.3866728325904516,0.6572657849885523,-9.05880100389719,-0.1897411075432795,0.0161236617714166,0.0026357471942901,3.698176180283725,0.0020786523818969
2025-04-30 00:30:36.949315800,7.95131591796875,0.0718780114977309,-0.0200649313628673,0.0459430698133464,-0.0059165083803236,-0.0617897067446394,0.9788609743354416,-0.1120221250269167,right,0.0003840327262878,-0.3861512260756136,0.65241644526124,-9.061084730920197,-0.1894795248102003,0.0166036076843738,0.0014112889766693,3.693438338106872,0.0008168518543243
2025-04-30 00:30:36.989315800,7.99131591796875,0.0715862671103593,-0.00987761747092,0.0458662976290777,-0.0014603454619646,-0.062144815569847,0.978878796569812,-0.1128133016864951,right,-0.0004879236221313,-0.3857820298456268,0.6498703409750014,-9.062633713927864,-0.1892895739252497,0.005481606349349,0.0014498233795166,3.690084059242904,-0.0009718537330627
2025-04-30 00:30:37.029315600,8.031315673828125,0.0715862671103593,-0.0031387382186949,0.0458662976290777,-0.0027083258610218,-0.062144815569847,0.978878796569812,-0.1128133016864951,right,0.0013126730918884,-0.3857820298456268,0.6498703409750014,-9.062633713927864,-0.1892895739252497,-0.0021808044984936,0.001118004322052,3.690084059242904,-0.0024977028369903
2025-04-30 00:30:37.069315800,8.07131591796875,0.0715862671103593,0.0015768865123391,0.0458662976290777,-0.0025632686447352,-0.062144815569847,0.978878796569812,-0.1128133016864951,right,0.0008891820907592,-0.3857820298456268,0.6498703409750014,-9.062633713927864,-0.1892895739252497,0.0033754389733076,0.0009636431932449,3.690084059242904,-0.0029171109199523
2025-04-30 00:30:37.109315800,8.11131591796875,0.0715862671103593,-0.0080321943387389,0.0458662976290777,-0.0073059406131505,-0.062144815569847,0.978878796569812,-0.1128133016864951,right,0.0006883144378662,-0.3857820298456268,0.6498703409750014,-9.062633713927864,-0.1892895739252497,0.0061889453791081,0.000159241259098,3.690084059242904,-0.0013410747051239
2025-04-30 00:30:37.149315800,8.15131591796875,0.0708006077187762,-0.0145868510007858,0.0455432147524972,-0.0023616212420165,-0.0624540861263413,0.978927440663165,-0.113611109103701,right,-0.000626802444458,-0.385207308710117,0.6428999174404889,-9.065255879125,-0.1890142859309449,0.0102164950221776,0.0017790421843528,3.6848613561585535,0.0007205307483673
2025-04-30 00:30:37.189315800,8.19131591796875,0.0705381307762302,-0.0211980435997247,0.0454796403148227,-0.0015602722996845,-0.0627875967200882,0.9789288608367382,-0.1143478014912657,right,-0.000133991241455,-0.3850158638876028,0.6405702323839068,-9.066127401262522,-0.1889119523864822,0.0032718079164624,0.0030452534556388,3.683121526753902,0.0015738010406494
2025-04-30 00:30:37.229315800,8.23131591796875,0.0700605808253131,-0.027378087863326,0.0453771161995217,-0.0028144612442702,-0.0633901397862041,0.9788717224152246,-0.1156644863227494,right,2.8610229492e-06,-0.3852898693180829,0.6361699515983462,-9.065425390473008,-0.1890313303791814,-0.0094213485717773,0.0040314868092536,3.685611882264912,-6.70254230499e-05
2025-04-30 00:30:37.269315800,8.27131591796875,0.0682440442024593,-0.0696594789624214,0.0447166269043486,-0.0596021562814712,-0.0642946802701999,0.978757678132979,-0.1178434585352903,right,-0.0032746791839599,-0.3861727301486581,0.6194790751688182,-9.06331585097313,-0.189472679774007,-0.0190675314515829,0.0020238533616065,3.6936335684180257,0.0023776888847351
2025-04-30 00:30:37.309315600,8.311315673828124,0.0654220857645704,-0.0359030440449714,0.0435974365859043,-0.0285979565232992,-0.065232119463947,0.978627609435626,-0.1202808570164676,right,-0.0004302263259887,-0.3873450374368936,0.5936168676270172,-9.06070128456056,-0.1900843432011559,-0.0191685613244771,0.0023725219070911,3.704280926899612,-0.0045033395290374
2025-04-30 00:30:37.349315800,8.35131591796875,0.0635342760982595,-0.0383643545210361,0.04283354121171,-0.0383863896131515,-0.0657608468675514,0.978534648185268,-0.1217103723697028,right,0.0006411671638488,-0.3882398015551143,0.5763002605145797,-9.058494129905103,-0.1905534281843446,-0.021078236401081,0.0018159300088882,3.712403735339641,0.000180035829544
2025-04-30 00:30:37.389315800,8.39131591796875,0.0613409589425958,-0.0261542107909917,0.0419039276698518,-0.0348782613873481,-0.0662041504781472,0.9784746160433888,-0.1230315730825796,right,0.0037816166877746,-0.3888877633647626,0.5562831622717902,-9.057333853954075,-0.1909150367535014,-0.0154706975445151,0.0030909478664398,3.718284610071778,0.00090754032135
2025-04-30 00:30:37.429315800,8.43131591796875,0.0597598395428324,-0.0180962830781936,0.0412390029127758,-0.0206106454133987,-0.066565022013669,0.978439942821095,-0.1240717326093384,right,0.0016945004463195,-0.3892262271443061,0.541886534259282,-9.056945146897435,-0.1911116182074103,-0.0024650581181049,0.0029909200966358,3.721355688080192,0.0009624660015106
2025-04-30 00:30:37.469315800,8.47131591796875,0.0587830596651282,-0.0142072802409529,0.0408306834639827,-0.0226845405995845,-0.0668183111599106,0.9784296199884972,-0.1247790804863887,right,-0.0017319321632385,-0.3892965357584408,0.5330242690961807,-9.057208766269683,-0.1911640849729169,-0.0011048058513551,0.0012122504413127,3.721993693722784,0.0025072991847991
2025-04-30 00:30:37.509315800,8.51131591796875,0.0579877590668231,-0.0004864670336246,0.0404763080435381,-0.0155159905552864,-0.0668905649554015,0.978414515305619,-0.1250785297290308,right,0.0015018582344055,-0.3895146610284194,0.5257738595765084,-9.056819474691151,-0.1912913718424479,0.0003528110682964,0.0012706704437732,3.7239725925803184,-0.0011157095432281
2025-04-30 00:30:37.549315600,8.551315673828125,0.0579877590668231,0.0117646716535091,0.0404763080435381,0.0001641474664211,-0.0668905649554015,0.978414515305619,-0.1250785297290308,right,0.001393437385559,-0.3895146610284194,0.5257738595765084,-9.056819474691151,-0.1912913718424479,0.000651680631563,0.0006972253322601,3.7239725925803184,-0.0012063980102539
2025-04-30 00:30:37.589315800,8.59131591796875,0.0580977575661521,0.0095187732949852,0.0404574829764214,-0.0052353995852172,-0.0665222074078407,0.978432772792119,-0.1243031373482928,right,-0.0004563331604003,-0.3895699144558268,0.5267581213735044,-9.056555855318903,-0.1913304409973679,-0.0060943262651562,0.0019514374434947,3.724473820100725,0.0007904171943664
2025-04-30 00:30:37.629315800,8.63131591796875,0.0580977575661521,0.0025799213908612,0.0404574829764214,-0.0014189768116921,-0.0665222074078407,0.978432772792119,-0.1243031373482928,right,0.0001728534698486,-0.3895699144558268,0.5267581213735044,-9.056555855318903,-0.1913304409973679,-0.001651776023209,0.0017668157815933,3.724473820100725,0.0012262463569641
2025-04-30 00:30:37.669315800,8.67131591796875,0.0580977575661521,-0.0016038930043578,0.0404574829764214,0.0010001235641539,-0.0665222074078407,0.978432772792119,-0.1243031373482928,right,-0.000136375427246,-0.3895699144558268,0.5267581213735044,-9.056555855318903,-0.1913304409973679,-0.0058671100996434,0.0015265010297298,3.724473820100725,0.0018327236175537
2025-04-30 00:30:37.709315800,8.71131591796875,0.0579662011514324,-0.0022877496667206,0.0403687781888016,-0.0049852896481752,-0.0663258466992951,0.9784046569720938,-0.1239200142071018,right,0.0003486275672912,-0.3900166093459544,0.5254702369874343,-9.054963617691396,-0.1915612255864323,-0.0077639473602175,0.0009958483278751,3.728525725840032,0.0012197196483612
2025-04-30 00:30:37.749315800,8.75131591796875,0.0579662011514324,0.0018368670716881,0.0403687781888016,-0.0040481556206941,-0.0663258466992951,0.9784046569720938,-0.1239200142071018,right,-0.0003808140754699,-0.3900166093459544,0.5254702369874343,-9.054963617691396,-0.1915612255864323,-0.0038111875765025,0.000652227550745,3.728525725840032,0.0013468861579895
2025-04-30 00:30:37.789315600,8.791315673828125,0.0579662011514324,-0.0025129094719886,0.0403687781888016,-0.0041112517938017,-0.0663258466992951,0.9784046569720938,-0.1239200142071018,right,0.0015434026718139,-0.3900166093459544,0.5254702369874343,-9.054963617691396,-0.1915612255864323,-0.0005159305874258,0.0004483349621295,3.728525725840032,0.000324934720993
2025-04-30 00:30:37.829315800,8.83131591796875,0.0579662011514324,-0.0052670505829155,0.0403687781888016,0.0047818860039114,-0.0663258466992951,0.9784046569720938,-0.1239200142071018,right,0.0017902255058288,-0.3900166093459544,0.5254702369874343,-9.054963617691396,-0.1915612255864323,0.0078397374600172,0.0006392262876033,3.728525725840032,0.0008782148361206
2025-04-30 00:30:37.869315800,8.87131591796875,0.0579662011514324,-0.0023767789825797,0.0403687781888016,0.0156663209199905,-0.0663258466992951,0.9784046569720938,-0.1239200142071018,right,-0.0009873509407043,-0.3900166093459544,0.5254702369874343,-9.054963617691396,-0.1915612255864323,-0.0028998618945479,-0.0002284348011016,3.728525725840032,0.0016570091247558
2025-04-30 00:30:37.909315800,8.91131591796875,0.05892470731488,0.0140400500968098,0.0408136968571467,0.0083861639723181,-0.0662553312580424,0.9783668471548632,-0.1235829963984774,right,-0.0004892945289611,-0.3903189956854266,0.534082801705785,-9.053329879009723,-0.1916843302972069,-0.0104412827640771,0.0012866891920566,3.731268302546441,0.0008862614631652
2025-04-30 00:30:37.949315800,8.95131591796875,0.0597907617562181,0.0394413918256759,0.0411341526954769,0.0165011659264564,-0.0657862688246386,0.978367415071287,-0.1224509910095779,right,0.0013806223869323,-0.3905138937217526,0.5418798122575507,-9.052137454354762,-0.1917743473592655,0.0016474081203341,0.0004081539809703,3.7330358967408537,0.0007907152175903
2025-04-30 00:30:37.989315800,8.99131591796875,0.061435555569013,0.0495456904172897,0.0417192478288124,0.0230095833539962,-0.0648844667122986,0.9784506838289811,-0.120294194824711,right,-0.0013746619224548,-0.390033819254089,0.5568779498271644,-9.053021835973858,-0.19153026235287,0.0147313494235277,9.56915318965e-05,3.7286817931845775,0.0039684176445007
2025-04-30 00:30:38.029315600,9.031315673828123,0.0628613018917813,0.0122991017997264,0.0422587058444262,0.0121086910367012,-0.0642916753378863,0.9785301521132768,-0.1188159042051261,right,0.0004271864891052,-0.3894010222005724,0.5699328078418969,-9.054571403503417,-0.1912054422447648,0.0124898022040724,-8.38451087474e-05,3.722941495966911,0.0063798427581787
2025-04-30 00:30:38.069315800,9.07131591796875,0.0633827683725167,-0.0068198628723621,0.0425033982993337,0.0054662181064486,-0.0643055239955106,0.9785351111978492,-0.1187451376903431,right,0.0010093450546264,-0.3892597273158873,0.5746876742187887,-9.054798197996616,-0.1911210007808284,0.006938389968127,-0.000160451978445,3.721659639462828,0.0048419833183288
2025-04-30 00:30:38.109315800,9.11131591796875,0.0636200642599831,-0.0126849394291639,0.0426792854937066,0.0230443961918354,-0.0646191157742917,0.978499116824176,-0.1193372973460225,right,0.0037983059883117,-0.3893823794869596,0.5768073332538828,-9.054206077322362,-0.1911607777798685,0.0050880541093647,0.0009882822632789,3.722772276879847,-3.07559967041e-05
2025-04-30 00:30:38.149315800,9.15131591796875,0.0640844449742197,-0.0172628462314605,0.0429807452944909,0.0108945583924651,-0.0650511781840982,0.9784693138355136,-0.120130926116502,right,-0.0015586614608764,-0.3893223196211998,0.5810261930579319,-9.054160484614968,-0.1910993189152765,0.0096620712429285,0.0006770007312297,3.722227502478659,-0.002567172050476
2025-04-30 00:30:38.189315800,9.19131591796875,0.064891185560706,0.0106194410473108,0.0433701900818352,0.0276023633778095,-0.0651583923055664,0.9784940797486218,-0.1202019395251788,right,0.0016230344772338,-0.3888656289344697,0.5884405244350434,-9.055383888930082,-0.1908479185873942,0.0184739604592323,0.0021104924380779,3.718083534541726,-0.0054294466972351
2025-04-30 00:30:38.229315800,9.23131591796875,0.0661200851435883,0.0181382279843091,0.0438961798353706,0.0242264177650213,-0.0649817544387846,0.9785585722985812,-0.1196170630048242,right,0.0001795291900634,-0.3881213593161544,0.5997508768700063,-9.057412764409184,-0.190456290738782,0.0140297934412956,0.0025519132614135,3.711328799584508,-0.0028817355632781
2025-04-30 00:30:38.269315800,9.27131591796875,0.067745380969871,0.0248320810496807,0.0445722293967072,0.0280658118426799,-0.0646033667087946,0.9786206601978732,-0.1185418797301026,right,-0.0025720000267028,-0.3874700876548804,0.6146345577470957,-9.05883549068868,-0.1901085093813838,0.0074692368507385,0.004399187862873,3.705416360670328,-0.0016493797302246
2025-04-30 00:30:38.309315600,9.311315673828124,0.0686248511218802,0.0040005948394536,0.0449349652236681,0.003532214090228,-0.0643907281742457,0.9786617847031132,-0.1179462320726903,right,-0.0017414689064025,-0.3870412762346567,0.6227101660445332,-9.059875939652324,-0.189883481788153,0.0042479373514652,0.0046136230230331,3.7015225681021806,0.0002087652683258
2025-04-30 00:30:38.349315800,9.35131591796875,0.0690297663857849,-9.6820294857e-06,0.045109493812199,0.0037792464718222,-0.064335755231912,0.9786814431075722,-0.1177607318004224,right,-0.0001179575920104,-0.386806702449664,0.6264384658526628,-9.060489103114604,-0.1897597363273692,-6.89709559082e-05,0.0057508572936058,3.699391985814273,0.0004936456680297
2025-04-30 00:30:38.389315800,9.39131591796875,0.0690297663857849,-0.0013436038279905,0.045109493812199,0.0014358859043568,-0.064335755231912,0.9786814431075722,-0.1177607318004224,right,-0.0014624595642089,-0.386806702449664,0.6264384658526628,-9.060489103114604,-0.1897597363273692,-0.005098468158394,0.0046870186924934,3.699391985814273,8.83638858795e-05
2025-04-30 00:30:38.429315800,9.43131591796875,0.0696859867400098,0.0051601706072688,0.0454180171861525,-0.0021874082740396,-0.0642916824650081,0.9786403694194098,-0.1175353752990849,right,-0.0028800964355468,-0.3871519676206891,0.6322950829263776,-9.05880100389719,-0.1899128198483312,-0.008879842236638,0.0039283484220504,3.702527653491497,-0.0001468360424041
2025-04-30 00:30:38.469315800,9.47131591796875,0.0696859867400098,0.0090631237253546,0.0454180171861525,-0.0073885060846805,-0.0642916824650081,0.9786403694194098,-0.1175353752990849,right,0.0018790960311889,-0.3871519676206891,0.6322950829263776,-9.05880100389719,-0.1899128198483312,-0.0095703713595867,0.0020531192421913,3.702527653491497,0.0011478662490844
2025-04-30 00:30:38.509315800,9.51131591796875,0.069824868217709,0.0120276510715484,0.0453980696541237,-0.0063128592446446,-0.0638233311229953,0.9786455031009668,-0.1165456194271219,right,0.002282977104187,-0.3873932310432409,0.6334907955169677,-9.057821929731965,-0.1900489956017702,0.0039385128766298,0.002199575304985,3.704718441534042,0.0008457005023956
2025-04-30 00:30:38.549315600,9.551315673828125,0.069824868217709,0.0093751437962055,0.0453980696541237,0.0081718377768993,-0.0638233311229953,0.9786455031009668,-0.1165456194271219,right,-0.0007779002189636,-0.3873932310432409,0.6334907955169677,-9.057821929731965,-0.1900489956017702,-0.0027580969035625,0.0023060962557792,3.704718441534042,0.0028268694877624
2025-04-30 00:30:38.589315800,9.59131591796875,0.070589833008658,0.0027462048456072,0.0457011845709954,-0.0009227758273482,-0.0635163837683833,0.9786421028465974,-0.1157671236924931,right,-0.0016897320747375,-0.3875043411597742,0.6403904919028282,-9.056924104109406,-0.190096781573149,-0.0027775766793638,0.0025092586874961,3.705727326315641,0.0035432279109954
2025-04-30 00:30:38.629315800,9.63131591796875,0.070589833008658,-0.0046461028978228,0.0457011845709954,0.0058590765111148,-0.0635163837683833,0.9786421028465974,-0.1157671236924931,right,0.0023524165153503,-0.3875043411597742,0.6403904919028282,-9.056924104109406,-0.190096781573149,0.0043021542951464,0.0031752958893775,3.705727326315641,0.0017361938953399
2025-04-30 00:30:38.669315800,9.67131591796875,0.070589833008658,-0.0030999120790511,0.0457011845709954,0.0022173826582729,-0.0635163837683833,0.9786421028465974,-0.1157671236924931,right,-0.0001553893089294,-0.3875043411597742,0.6403904919028282,-9.056924104109406,-0.190096781573149,0.0067638815380632,0.0014111027121543,3.705727326315641,0.0008765161037445
2025-04-30 00:30:38.709315800,9.71131591796875,0.070589833008658,0.0053841695189476,0.0457011845709954,-0.0060514486394822,-0.0635163837683833,0.9786421028465974,-0.1157671236924931,right,-0.0015369653701782,-0.3875043411597742,0.6403904919028282,-9.056924104109406,-0.190096781573149,-0.0014879428781569,0.0027431920170783,3.705727326315641,-0.0004266798496246
2025-04-30 00:30:38.749315800,9.75131591796875,0.0707140191924672,0.0050943419337272,0.0457178558660331,-0.0033054109662771,-0.0633008419273022,0.9786537288792582,-0.1153024438035365,right,-0.0007125735282897,-0.387507279293868,0.6415144544314593,-9.056833503216504,-0.190104900155931,-0.0023444939870387,0.0026765093207359,3.705753922061622,-0.0008136630058288
2025-04-30 00:30:38.789315600,9.791315673828125,0.0707140191924672,0.0048045148141682,0.0457178558660331,-0.0005593730602413,-0.0633008419273022,0.9786537288792582,-0.1153024438035365,right,0.0001210570335388,-0.387507279293868,0.6415144544314593,-9.056833503216504,-0.190104900155931,-0.0032010450959205,0.0027244389057159,3.705753922061622,-0.0011979639530181
2025-04-30 00:30:38.829315800,9.83131591796875,0.0707140191924672,0.0011321303900331,0.0457178558660331,-0.0001318100257776,-0.0633008419273022,0.9786537288792582,-0.1153024438035365,right,-0.0014451146125793,-0.387507279293868,0.6415144544314593,-9.056833503216504,-0.190104900155931,-0.0007542904932051,0.0032850578427314,3.705753922061622,0.0016463994979858
2025-04-30 00:30:38.869315800,9.87131591796875,0.0707140191924672,-0.0048143221065402,0.0457178558660331,-0.0086983740329742,-0.0633008419273022,0.9786537288792582,-0.1153024438035365,right,-0.0012379884719848,-0.387507279293868,0.6415144544314593,-9.056833503216504,-0.190104900155931,-0.0061321100220084,0.0038323104381561,3.705753922061622,0.0010071098804473
2025-04-30 00:30:38.909315800,9.91131591796875,0.0707140191924672,0.0004017073661088,0.0457178558660331,-0.0019078007899224,-0.0633008419273022,0.9786537288792582,-0.1153024438035365,right,0.0011822581291198,-0.387507279293868,0.6415144544314593,-9.056833503216504,-0.190104900155931,-0.004409403540194,0.0030564218759536,3.705753922061622,-0.0003783404827117
2025-04-30 00:30:38.949315800,9.95131591796875,0.0707140191924672,0.0060395947657525,0.0457178558660331,-0.0066195288673043,-0.0633008419273022,0.9786537288792582,-0.1153024438035365,right,0.000726044178009,-0.387507279293868,0.6415144544314593,-9.056833503216504,-0.190104900155931,-0.0027546151541173,0.0021046996116638,3.705753922061622,0.0013038218021392
2025-04-30 00:30:38.989315800,9.99131591796875,0.0708221301577113,0.0052541820332407,0.045692980685853,-0.0058028614148497,-0.0628508486421787,0.9786306880479052,-0.1143492227186216,right,0.0002136826515197,-0.3880286438809022,0.6423568235397339,-9.054835607397557,-0.1903785931412238,-0.0033647597301751,0.0032120496034622,3.710487088063359,0.0017701685428619
2025-04-30 00:30:39.029315600,10.031315673828123,0.0708221301577113,0.0004859752953052,0.045692980685853,7.99773260951e-05,-0.0628508486421787,0.9786306880479052,-0.1143492227186216,right,0.0022451877593994,-0.3880286438809022,0.6423568235397339,-9.054835607397557,-0.1903785931412238,0.0034559390041977,0.0034285262227058,3.710487088063359,0.0031119287014007
2025-04-30 00:30:39.069315800,10.07131591796875,0.0708221301577113,0.000110925262561,0.045692980685853,1.82550575118e-05,-0.0628508486421787,0.9786306880479052,-0.1143492227186216,right,-0.0002266764640808,-0.3880286438809022,0.6423568235397339,-9.054835607397557,-0.1903785931412238,0.0007888281252235,0.0020013004541397,3.710487088063359,0.0017156600952148
2025-04-30 00:30:39.109315800,10.11131591796875,0.0708221301577113,0.0002519772388041,0.045692980685853,-0.0105947963893413,-0.0628508486421787,0.9786306880479052,-0.1143492227186216,right,-0.0006505846977233,-0.3880286438809022,0.6423568235397339,-9.054835607397557,-0.1903785931412238,0.0021435550879687,0.0008860677480697,3.710487088063359,0.0012255311012268
2025-04-30 00:30:39.149315800,10.15131591796875,0.0708221301577113,0.0042656366713345,0.045692980685853,-0.0123246936127543,-0.0628508486421787,0.9786306880479052,-0.1143492227186216,right,-0.0014711618423461,-0.3880286438809022,0.6423568235397339,-9.054835607397557,-0.1903785931412238,0.004516027867794,0.0011369511485099,3.710487088063359,0.0006839036941528
2025-04-30 00:30:39.189315800,10.19131591796875,0.0703168536639049,-0.0014013573527336,0.0453832657381274,-0.0044305538758635,-0.0625119047968523,0.9786863317415444,-0.1137612010824573,right,0.0017845630645751,-0.3877633369402734,0.6378506712269038,-9.056140844777223,-0.1902779037010107,0.0027852905914187,0.0005798935890197,3.708078565616905,0.000258982181549
2025-04-30 00:30:39.229315800,10.23131591796875,0.0703168536639049,-0.0056151556782424,0.0453832657381274,-0.0063412897288799,-0.0625119047968523,0.9786863317415444,-0.1137612010824573,right,-0.0006342530250549,-0.3877633369402734,0.6378506712269038,-9.056140844777223,-0.1902779037010107,0.0015060496516525,0.0018593594431877,3.708078565616905,-2.35736370086e-05
2025-04-30 00:30:39.269315800,10.27131591796875,0.0697537640533649,-0.0101480865851044,0.0451530674607136,0.0028932020068168,-0.0626894648007852,0.9786825734069212,-0.1142331078405089,right,-0.000792920589447,-0.3877816423427785,0.6327464068904519,-9.056430767634511,-0.1902938036760446,-0.0139762554317712,0.0012127235531806,3.708244862094521,-0.0003039240837097
2025-04-30 00:30:39.309315600,10.311315673828124,0.0697537640533649,-0.0019274922087788,0.0451530674607136,0.0039423257112503,-0.0626894648007852,0.9786825734069212,-0.1142331078405089,right,0.0031195878982543,-0.3877816423427785,0.6327464068904519,-9.056430767634511,-0.1902938036760446,-0.0203887950628995,0.0028002187609672,3.708244862094521,-0.0031787455081939
2025-04-30 00:30:39.349315800,10.35131591796875,0.0704951624264781,0.0030093761160969,0.0455171390386321,0.0053921588696539,-0.0626843235926798,0.978601314263522,-0.1140611743015896,right,0.0002831816673278,-0.3884996782713149,0.6392729591149836,-9.053300652915238,-0.1906261002339731,-0.0191291552037,0.0026092305779457,3.714762573425472,-0.0001581311225891
2025-04-30 00:30:39.389315800,10.39131591796875,0.071236939361173,0.0079462444409728,0.0458812164021923,0.0068419920280575,-0.0626791998442965,0.9785198874392714,-0.1138886884791341,right,-0.002554178237915,-0.3892177238244546,0.6457982692304999,-9.050161185845733,-0.1909583920974957,-0.0178695153445005,0.0024183467030525,3.7212785311907526,0.00286266207695
2025-04-30 00:30:39.429315800,10.43131591796875,0.0715786976718847,-0.0213756375014781,0.0460854374940684,-0.0036361441016197,-0.0628125786475772,0.978429703190442,-0.1140753742543863,right,-0.0040659308433532,-0.3900012769732753,0.648682519429922,-9.047028733038902,-0.1913270338441071,-0.0158974677324295,0.0025607496500015,3.728386609630287,0.0098565518856048
2025-04-30 00:30:39.469315800,10.47131591796875,0.0707379422468464,-0.0371108427643775,0.0458205821656076,-0.0148726841434836,-0.0634281958674488,0.9783597305874656,-0.1154871982049412,right,0.0014336705207824,-0.3904594628122264,0.6409551400482654,-9.045866119000316,-0.1915454463513586,0.0055629033595323,0.002600260078907,3.732542268005013,0.004517376422882
2025-04-30 00:30:39.509315800,10.51131591796875,0.070054959199675,-0.0283597391098737,0.0456407649816889,0.0033121490851044,-0.0641605079539552,0.9783313168460004,-0.1171198904283554,right,0.0007184147834777,-0.3903771298994772,0.6347982979189604,-9.046607877278328,-0.1914895921035182,0.0102993696928024,0.0018729791045188,3.7317955412909374,-0.0003100931644439
2025-04-30 00:30:39.549315600,10.551315673828125,0.0698745421354358,-0.0067728720605373,0.0456162158670425,0.0021468363702297,-0.0645114438609641,0.9783460773440856,-0.1178810044632763,right,0.0003198981285095,-0.3900175988924543,0.6332597632400692,-9.048060414174198,-0.1913020173584227,0.0065114474855363,0.0031564906239509,3.728534785929322,-0.0008652210235595
2025-04-30 00:30:39.589315800,10.59131591796875,0.0698745421354358,0.0176754873245954,0.0456162158670425,0.0060317749157547,-0.0645114438609641,0.9783460773440856,-0.1178810044632763,right,0.0017439126968383,-0.3900175988924543,0.6332597632400692,-9.048060414174198,-0.1913020173584227,0.0044123763218522,0.0030762255191802,3.728534785929322,-0.0082578659057617
2025-04-30 00:30:39.629315800,10.63131591796875,0.0706683869804439,0.0295577123761177,0.0458693298021045,0.0025568131823092,-0.0639512667342868,0.9784155087993932,-0.1165919291380329,right,0.0025160312652587,-0.3895435308995541,0.6405670175135135,-9.049316551715137,-0.1910739232307826,0.004895563237369,0.0020129084587097,3.724234458386898,-0.0047331154346466
2025-04-30 00:30:39.669315800,10.67131591796875,0.0710667639382897,0.012904405593872,0.0459973161748186,0.0047179125249385,-0.0636984579511536,0.978468425856249,-0.116008098873742,right,0.0009934306144714,-0.3890984001161437,0.6442896912984549,-9.050713559031486,-0.1908566677885802,0.0010227048769593,0.0035462006926536,3.720195704390109,-0.0018355548381805
2025-04-30 00:30:39.709315800,10.71131591796875,0.0714647663284677,-0.0037489011883735,0.0461252989443551,0.0068790121003985,-0.0634457041830249,0.9785212215173968,-0.11542470156785,right,-0.0005294680595397,-0.388653081585721,0.6480101000610738,-9.05210822826028,-0.1906393960806853,-0.0028501530177891,0.0050797238945961,3.716154904566705,0.001062273979187
2025-04-30 00:30:39.749315800,10.75131591796875,0.0714647663284677,-0.0096020121127367,0.0461252989443551,-0.0029694437980651,-0.0634457041830249,0.9785212215173968,-0.11542470156785,right,-0.0003500580787658,-0.388653081585721,0.6480101000610738,-9.05210822826028,-0.1906393960806853,-0.0138318091630935,0.0033106580376625,3.716154904566705,0.0012486279010772
2025-04-30 00:30:39.789315600,10.791315673828125,0.0713197944323503,-0.0041013187728822,0.0461132126635943,-0.0114182047545909,-0.0636367378546747,0.978430387738762,-0.1158231016100518,right,-0.0019411444664001,-0.3894900477397814,0.6464759492963552,-9.049096186962725,-0.1910446170094745,-0.014500780031085,0.0020603090524673,3.723749305218458,0.0001425743103027
2025-04-30 00:30:39.829315800,10.83131591796875,0.0713197944323503,0.0104658752679824,0.0461132126635943,-0.0090233422815799,-0.0636367378546747,0.978430387738762,-0.1158231016100518,right,-0.0009455680847167,-0.3894900477397814,0.6464759492963552,-9.049096186962725,-0.1910446170094745,-0.0021477825939655,0.0012841001152992,3.723749305218458,-0.0009684264659881
2025-04-30 00:30:39.869315800,10.87131591796875,0.0708151403992638,0.0148978438228368,0.0457898605119778,-0.0069644460454583,-0.0631799650819932,0.9784541430429032,-0.1149844193506796,right,0.0023954510688781,-0.3896377770213402,0.6418702090665698,-9.048872899600862,-0.1911522200389516,0.0050976728089153,0.0008850470185279,3.725089321650565,0.0017423927783966
2025-04-30 00:30:39.909315800,10.91131591796875,0.0708151403992638,0.0041163358837366,0.0457898605119778,-0.0024066483601927,-0.0631799650819932,0.9784541430429032,-0.1149844193506796,right,0.0009293556213378,-0.3896377770213402,0.6418702090665698,-9.048872899600862,-0.1911522200389516,0.001552244182676,4.23267483711e-05,3.725089321650565,0.0006640255451202
2025-04-30 00:30:39.949315800,10.95131591796875,0.0708151403992638,-0.0055298339575529,0.0457898605119778,0.0040144054219126,-0.0631799650819932,0.9784541430429032,-0.1149844193506796,right,-0.0017088055610656,-0.3896377770213402,0.6418702090665698,-9.048872899600862,-0.1911522200389516,-0.0105910971760749,0.0006773918867111,3.725089321650565,0.0020644068717956
2025-04-30 00:30:39.989315800,10.99131591796875,0.0708151403992638,-0.0048302696086466,0.0457898605119778,-0.01230098772794,-0.0631799650819932,0.9784541430429032,-0.1149844193506796,right,0.0011851787567138,-0.3896377770213402,0.6418702090665698,-9.048872899600862,-0.1911522200389516,-0.0100517086684703,0.0009723007678985,3.725089321650565,0.002957284450531
2025-04-30 00:30:40.029315600,11.031315673828123,0.0700672473565866,-0.0050857868045568,0.0454435395350122,-0.0073565999045968,-0.0631209497760488,0.978396639954906,-0.114991881182614,right,0.0027148723602294,-0.3903987079810324,0.6349038041200489,-9.046520198994877,-0.1915482226014104,-0.0027421470731496,0.0022516176104545,3.731991063863039,0.0006909072399139
2025-04-30 00:30:40.069315800,11.07131591796875,0.0700672473565866,-0.0028521025087684,0.0454435395350122,-0.0010965727269649,-0.0631209497760488,0.978396639954906,-0.114991881182614,right,-0.0002461075782775,-0.3903987079810324,0.6349038041200489,-9.046520198994877,-0.1915482226014104,0.0040360833518207,0.0020034685730934,3.731991063863039,0.000102549791336
2025-04-30 00:30:40.109315800,11.11131591796875,0.0700672473565866,-0.0009087766520678,0.0454435395350122,-0.0027929879724979,-0.0631209497760488,0.978396639954906,-0.114991881182614,right,-0.000441551208496,-0.3903987079810324,0.6349038041200489,-9.046520198994877,-0.1915482226014104,-0.0034261257387697,0.0027285739779472,3.731991063863039,-0.0002996325492858
2025-04-30 00:30:40.149315800,11.15131591796875,0.0700672473565866,-0.0115933250635862,0.0454435395350122,-0.0130671290680766,-0.0631209497760488,0.978396639954906,-0.114991881182614,right,-0.0006424188613891,-0.3903987079810324,0.6349038041200489,-9.046520198994877,-0.1915482226014104,-0.0101743778213858,0.0010202452540397,3.731991063863039,-2.34246253967e-05
2025-04-30 00:30:40.189315800,11.19131591796875,0.0687301926584304,-0.0072524636052548,0.0448828369698621,-0.0090759173035621,-0.0634063925904351,0.9783473327860672,-0.1158246954616891,right,0.0012693405151367,-0.3909425029839595,0.622668153533712,-9.04533478860259,-0.1918379319582052,-0.0040092556737363,0.002452366054058,3.736922090524435,-0.0010135769844055
2025-04-30 00:30:40.229315800,11.23131591796875,0.0687301926584304,-0.0063918787054717,0.0448828369698621,0.0022701984271407,-0.0634063925904351,0.9783473327860672,-0.1158246954616891,right,-0.0014567375183105,-0.3909425029839595,0.622668153533712,-9.04533478860259,-0.1918379319582052,-0.0063328817486763,0.000928059220314,3.736922090524435,-0.000347226858139
2025-04-30 00:30:40.269315800,11.27131591796875,0.0681673954567982,-0.0071048322133719,0.0446862545862723,0.0002624641638249,-0.0636615755581876,0.9782634751589272,-0.1164390045412832,right,0.0021013021469116,-0.391727574014148,0.6173772805839777,-9.042754124459623,-0.192226384124538,-0.0084415450692176,0.0027763992547988,3.7440389367923137,-0.0026970505714416
2025-04-30 00:30:40.309315600,11.311315673828124,0.0676038955607514,-0.0078177852556109,0.0444896649963239,-0.0017452698666602,-0.0639167471602414,0.978179319725366,-0.1170539948570243,right,0.0056586861610412,-0.3925123463838747,0.6120829370355233,-9.040165861532092,-0.1926148037594859,-0.010550208389759,0.0046250969171524,3.7511508146241295,-0.0050463676452636
2025-04-30 00:30:40.349315800,11.35131591796875,0.0676038955607514,0.0109385242685675,0.0444896649963239,0.0072142612189054,-0.0639167471602414,0.978179319725366,-0.1170539948570243,right,0.0009471178054809,-0.3925123463838747,0.6120829370355233,-9.040165861532092,-0.1926148037594859,-0.0040940339677035,0.0030607506632804,3.7511508146241295,-0.0012690126895904
2025-04-30 00:30:40.389315800,11.39131591796875,0.0684430904333483,0.0168514549732208,0.0448083728570465,-0.0052094748243689,-0.0634833514668798,0.9781535577646826,-0.1159932025552678,right,-0.002111792564392,-0.3929282391418083,0.6195624426033347,-9.038091977867484,-0.192815310963645,-0.0062207053415477,0.0035008788108825,3.7549189349859953,0.0025131106376647
2025-04-30 00:30:40.429315800,11.43131591796875,0.0685289362496102,0.0119170658290386,0.0447848046307457,-0.0057682641781866,-0.0631240292205117,0.9781456786129926,-0.1152346482943521,right,0.0017453432083129,-0.3932328527504034,0.6202599964134394,-9.036897215124965,-0.1929786797601247,-0.0048533724620938,0.0046201348304748,3.757678462827205,0.0023815035820007
2025-04-30 00:30:40.469315800,11.47131591796875,0.0685289362496102,0.0016111275181174,0.0447848046307457,0.0010815253481268,-0.0631240292205117,0.9781456786129926,-0.1152346482943521,right,0.0017399191856384,-0.3932328527504034,0.6202599964134394,-9.036897215124965,-0.1929786797601247,-0.0051180692389607,0.0056695342063903,3.757678462827205,0.0046235620975494
2025-04-30 00:30:40.509315800,11.51131591796875,0.0685289362496102,-0.0036506168544292,0.0447848046307457,-0.0052942424081265,-0.0631240292205117,0.9781456786129926,-0.1152346482943521,right,-0.0004506111145019,-0.3932328527504034,0.6202599964134394,-9.036897215124965,-0.1929786797601247,-0.0031837439164519,0.0030193701386451,3.757678462827205,0.00250244140625
2025-04-30 00:30:40.549315600,11.551315673828125,0.0685289362496102,0.002659065183252,0.0447848046307457,-0.0125777255743741,-0.0631240292205117,0.9781456786129926,-0.1152346482943521,right,-0.0022499561309814,-0.3932328527504034,0.6202599964134394,-9.036897215124965,-0.1929786797601247,0.0038597164675593,0.0009194537997245,3.757678462827205,0.0010536313056945
2025-04-30 00:30:40.589315800,11.59131591796875,0.0680496965031379,0.0085330940783023,0.0445076570438036,-0.0141885774210095,-0.0628257872818734,0.9781425068198842,-0.114712440042061,right,0.0012648701667785,-0.3935408506060741,0.6158503632776439,-9.036038552469014,-0.1931561760866242,0.0043378197588026,0.0006027445197105,3.760468093545735,-0.0002614855766296
2025-04-30 00:30:40.629315800,11.63131591796875,0.0675001647273471,0.0121901538223028,0.0441750596210269,-0.0117384903132915,-0.0624922830283612,0.9782093953352023,-0.1141474746609601,right,0.0020836591720581,-0.3931652622088205,0.6109798711644485,-9.037784519353508,-0.1930020742702907,0.009079672396183,0.0019843764603137,3.757066176147759,0.0029632449150085
2025-04-30 00:30:40.669315800,11.67131591796875,0.0675001647273471,0.0054442812688648,0.0441750596210269,-0.0018410673364996,-0.0624922830283612,0.9782093953352023,-0.1141474746609601,right,-0.002102792263031,-0.3931652622088205,0.6109798711644485,-9.037784519353508,-0.1930020742702907,-0.0047581605613231,0.0009345225989818,3.757066176147759,0.0030884146690368
2025-04-30 00:30:40.709315800,11.71131591796875,0.0676334884905061,0.0064576203003525,0.0441913378217316,0.0038250829093158,-0.0622519968958133,0.978218148252986,-0.1136288715749736,right,9.8943710327e-06,-0.3932107106884445,0.612173282200098,-9.037532590419053,-0.193031620009582,0.0020300648175179,0.001312393695116,3.757477679558098,0.0012989044189453
2025-04-30 00:30:40.749315800,11.75131591796875,0.0676334884905061,0.0074709597975015,0.0441913378217316,0.0094912331551313,-0.0622519968958133,0.978218148252986,-0.1136288715749736,right,0.0021483302116394,-0.3932107106884445,0.612173282200098,-9.037532590419053,-0.193031620009582,0.0088182911276817,0.0018119625747203,3.757477679558098,-0.0004485845565795
2025-04-30 00:30:40.789315600,11.791315673828125,0.0681555353367831,0.0018083015456795,0.0443772948410416,0.0006337063387036,-0.0619621154583071,0.9782380513334632,-0.1129354947471011,right,-0.0014470815658569,-0.3931095525381679,0.6169171157263219,-9.037590458086132,-0.1929812498477408,-0.0014976989477872,0.0006295219063758,3.7565614414960153,0.0006320178508758
2025-04-30 00:30:40.829315800,11.83131591796875,0.0681555353367831,-0.0006589535623788,0.0443772948410416,-0.0025322316214442,-0.0619621154583071,0.9782380513334632,-0.1129354947471011,right,-0.0005611181259155,-0.3931095525381679,0.6169171157263219,-9.037590458086132,-0.1929812498477408,-0.008178262040019,0.0023662000894546,3.7565614414960153,0.0010476410388946
2025-04-30 00:30:40.869315800,11.87131591796875,0.0681555353367831,0.0001201258855871,0.0443772948410416,0.0007089809514582,-0.0619621154583071,0.9782380513334632,-0.1129354947471011,right,0.0009735822677612,-0.3931095525381679,0.6169171157263219,-9.037590458086132,-0.1929812498477408,-0.0041362047195434,0.0022106915712356,3.7565614414960153,-0.0001277029514312
2025-04-30 00:30:40.909315800,11.91131591796875,0.0681555353367831,0.0008992053335532,0.0443772948410416,0.0039501935243606,-0.0619621154583071,0.9782380513334632,-0.1129354947471011,right,0.0025082826614379,-0.3931095525381679,0.6169171157263219,-9.037590458086132,-0.1929812498477408,-9.41473990678e-05,0.002055175602436,3.7565614414960153,-0.0013030469417572
2025-04-30 00:30:40.949315800,11.95131591796875,0.0681555353367831,-0.0110944835469126,0.0443772948410416,0.007638918235898,-0.0619621154583071,0.9782380513334632,-0.1129354947471011,right,-0.0019249320030212,-0.3931095525381679,0.6169171157263219,-9.037590458086132,-0.1929812498477408,0.0026871166191995,0.0006905049085617,3.7565614414960153,0.0038382709026336
2025-04-30 00:30:40.989315800,11.99131591796875,0.0681841679665588,-0.0106663750484585,0.044493318881623,0.0086753331124782,-0.0624458778911786,0.978175663861598,-0.1139116542301839,right,5.00082969665e-05,-0.3934283366269019,0.617094225858897,-9.036377575165032,-0.1931147131806396,0.0010695129167288,0.0015979781746864,3.759448979631066,0.0018346607685089
2025-04-30 00:30:41.029315600,12.031315673828123,0.0682124694527452,-0.0102382665500044,0.0446093299302035,0.0097117479890584,-0.0629296202284904,0.9781130624237376,-0.1148879331184304,right,0.00202476978302,-0.3937472177228007,0.6172682672515512,-9.035164107722045,-0.1932481486765616,-0.0005480906693264,0.0025057792663574,3.762337102288008,-0.0001689791679382
2025-04-30 00:30:41.069315800,12.07131591796875,0.0682124694527452,-0.0047162799164652,0.0446093299302035,0.0161591917276382,-0.0629296202284904,0.9781130624237376,-0.1148879331184304,right,0.0001682639122009,-0.3937472177228007,0.6172682672515512,-9.035164107722045,-0.1932481486765616,-0.000236941705225,0.00244702398777,3.762337102288008,0.0006353259086608
2025-04-30 00:30:41.109315800,12.11131591796875,0.069370650291398,-0.0052216807380318,0.0452171987683544,0.0143736852332949,-0.0632432072100274,0.9780669399904004,-0.1152986773556992,right,-0.0003640055656433,-0.3938185524020698,0.6277136003550142,-9.034175096684692,-0.1932373294860046,0.0022705262526869,0.0026954934000968,3.762982998976111,0.0008705258369445
2025-04-30 00:30:41.149315800,12.15131591796875,0.0698895890188035,-0.0041662538424134,0.0454929461919944,0.0086411396041512,-0.0634198614262127,0.978060078730087,-0.1155605249743851,right,-0.001023530960083,-0.3936849934592052,0.6324367564193905,-9.03434928420782,-0.1931495853145279,0.0046874866820871,0.0028313547372817,3.761773623186349,0.0003300011157989
2025-04-30 00:30:41.189315800,12.19131591796875,0.0698895890188035,0.0018966780044138,0.0454929461919944,0.0031774234957993,-0.0634198614262127,0.978060078730087,-0.1155605249743851,right,-0.0022560358047485,-0.3936849934592052,0.6324367564193905,-9.03434928420782,-0.1931495853145279,-0.0011768457479774,0.0033373236656188,3.761773623186349,-0.0009129047393798
2025-04-30 00:30:41.229315800,12.23131591796875,0.0702207171485297,0.0068189334124326,0.0456279518141777,-0.0084841400384902,-0.0633031530828062,0.97805161310636,-0.1152539284500717,right,-0.0030491352081298,-0.3937933094921332,0.6353996978782117,-9.03373319813609,-0.1931990838848432,-0.0013487751130014,0.0032206252217292,3.762754450917244,-0.0016944110393524
2025-04-30 00:30:41.269315800,12.27131591796875,0.0702207171485297,0.0061829416081309,0.0456279518141777,-0.0087589817121624,-0.0633031530828062,0.97805161310636,-0.1152539284500717,right,0.0015528798103332,-0.3937933094921332,0.6353996978782117,-9.03373319813609,-0.1931990838848432,-0.0003776843077503,0.0025655701756477,3.762754450917244,-0.0007278621196746
2025-04-30 00:30:41.309315800,12.31131591796875,0.06971370025695,0.0019265003502368,0.0453376387902221,-0.0119496965780854,-0.0630619216885507,0.9780946758631672,-0.1148653775974525,right,0.0011264681816101,-0.3935980327899631,0.6308705300159752,-9.034786506581304,-0.1931283607868302,0.0124626215547323,0.002858743071556,3.760985979939997,-0.0017542839050292
2025-04-30 00:30:41.349315800,12.35131591796875,0.06971370025695,-0.000852619530633,0.0453376387902221,0.0036630751565098,-0.0630619216885507,0.9780946758631672,-0.1148653775974525,right,-0.003766119480133,-0.3935980327899631,0.6308705300159752,-9.034786506581304,-0.1931283607868302,-0.0001219399273395,0.0022970810532569,3.760985979939997,0.0001348555088043
2025-04-30 00:30:41.389315800,12.39131591796875,0.06971370025695,0.0001951867016032,0.0453376387902221,-0.0069645484909415,-0.0630619216885507,0.9780946758631672,-0.1148653775974525,right,-0.0015024542808532,-0.3935980327899631,0.6308705300159752,-9.034786506581304,-0.1931283607868302,-0.0151513647288084,0.0023830160498619,3.760985979939997,0.0014280378818511
2025-04-30 00:30:41.429315800,12.43131591796875,0.0695542152533821,0.0042022429406642,0.045256281898532,-0.0023345649242401,-0.0629453997517263,0.9780323290278518,-0.1146413181824808,right,0.0022714138031005,-0.3943387125339422,0.6292358414862305,-9.032105889195202,-0.193500959994055,-0.0135419741272926,0.004062958061695,3.7676930763632055,-0.0016469955444335
2025-04-30 00:30:41.469315800,12.47131591796875,0.0694227426796143,0.0035540675744414,0.045172792460763,-0.0062017659656703,-0.0627968735489815,0.9780103804529228,-0.1143556106632899,right,0.0011819005012512,-0.3946819208415524,0.6279585880920291,-9.03089826697111,-0.1936795205225348,-0.0140807684510946,0.004245139658451,3.7708003947287794,0.0001310408115386
2025-04-30 00:30:41.509315800,12.51131591796875,0.0694227426796143,0.0029058922082185,0.045172792460763,-0.0100689670071005,-0.0627968735489815,0.9780103804529228,-0.1143556106632899,right,0.000215470790863,-0.3946819208415524,0.6279585880920291,-9.03089826697111,-0.1936795205225348,-0.0146195637062191,0.0042970702052116,3.7708003947287794,0.0022258758544921
2025-04-30 00:30:41.549315600,12.551315673828125,0.0686597536677623,-0.0372980386018753,0.0448267212431593,-0.0365328527987003,-0.0627333687079086,0.9779174507620952,-0.114351344925722,right,-0.0023773312568664,-0.3957961424393372,0.6207792710471898,-9.027177200621368,-0.1942488298748674,-0.0253569222986698,0.0033303722739219,3.780884566369653,0.0043396651744842
2025-04-30 00:30:41.589315800,12.59131591796875,0.0640479305179447,-0.0407388471066951,0.0429903832257529,-0.0445724911987781,-0.06421473090052,0.9777474883161184,-0.1182673879556873,right,-0.0034059286117553,-0.3972774048521234,0.5787820308603346,-9.024345192065834,-0.1950339932882157,-0.0098155485466122,0.0019379556179046,3.794283853907883,-0.0006457269191741
2025-04-30 00:30:41.629315800,12.63131591796875,0.0594270008871717,-0.044179655611515,0.0411537843587708,-0.0526121295988559,-0.0656956780027522,0.9775713383159924,-0.1221931747756119,right,-0.0044496059417724,-0.3987419342943012,0.5367444951957091,-9.021366468515993,-0.1958179483457914,0.0057258252054452,0.0005496591329574,3.807523274709284,-0.0056148469448089
2025-04-30 00:30:41.669315800,12.67131591796875,0.0572156136786923,-0.0295574460178613,0.0402187947522558,-0.0641606524586677,-0.0662384523381751,0.9775888698143634,-0.1237505102237468,right,-0.0071972608566284,-0.3985019443509666,0.5168456895703449,-9.023443274790049,-0.1957418172493646,0.0068201716057956,-0.0014402084052562,3.805354406237602,0.0030889511108398
2025-04-30 00:30:41.709315800,12.71131591796875,0.0555284483076607,-0.0193935800343751,0.0394695066908533,-0.0243602395057678,-0.0664831181618215,0.9776198542907554,-0.1245927726411358,right,0.0031595230102539,-0.3982480907528244,0.501674533521384,-9.02526698308587,-0.195656837793178,0.0034979791380465,0.0025396607816219,3.8030598655596375,0.0050978064537048
2025-04-30 00:30:41.749315800,12.75131591796875,0.0549378973044842,-0.0254481900483369,0.0392569971649325,-0.0057725086808204,-0.0668456667100038,0.9776325611017056,-0.1254571190097886,right,0.0007587671279907,-0.3979481384578046,0.4964071875777095,-9.02670023075938,-0.1955127770721712,0.0082016214728355,0.0010751746594905,3.800348268513381,0.0040820837020874
2025-04-30 00:30:41.789315600,12.791315673828125,0.0545407095497391,-0.0221195351332426,0.0391666965545316,0.0003266306594014,-0.0673703090778183,0.9776341785763856,-0.1266146262212391,right,0.0006901025772094,-0.3976195304141206,0.4928899001717567,-9.028143415305015,-0.1953426684623315,0.0119663216173648,0.0008040778338909,3.797377436009049,-0.0010944902896881
2025-04-30 00:30:41.829315800,12.83131591796875,0.0545407095497391,0.0091858450323343,0.0391666965545316,0.0066929166205227,-0.0673703090778183,0.9776341785763856,-0.1266146262212391,right,0.0034177303314208,-0.3976195304141206,0.4928899001717567,-9.028143415305015,-0.1953426684623315,0.0140999210998415,-0.0008086636662483,3.797377436009049,-0.0065000355243682
2025-04-30 00:30:41.869315800,12.87131591796875,0.055664719693288,0.0252927187830209,0.0396257566425752,0.0172106437385082,-0.0671432676616862,0.977720839307152,-0.1259387213224375,right,-0.0017594695091247,-0.3967522998812081,0.5032203381912782,-9.030868456354735,-0.1948939528917162,0.0131825897842645,-0.0001292861998081,3.78953461355418,-0.0046616494655609
2025-04-30 00:30:41.909315800,12.91131591796875,0.0564631775033445,0.0216410364955663,0.0398776386393365,0.0010126717388629,-0.0665839281168181,0.9777915868423798,-0.124642267619205,right,-0.0043649673461914,-0.3963152416983275,0.5105243775943293,-9.032116410589218,-0.1946792162402717,0.0017075072973966,-0.0008404180407524,3.785581199753284,-0.0002676844596862
2025-04-30 00:30:41.949315800,12.95131591796875,0.0567150938297563,0.0036957319825887,0.0399132560161989,-0.0014522534329444,-0.0661949539224268,0.9778344784392266,-0.1237997101940552,right,0.0022407174110412,-0.3961145692190801,0.5128427375392988,-9.03274594066441,-0.1945894674628845,-0.0045272563584148,0.0001871101558208,3.783765674763918,0.0032144486904144
2025-04-30 00:30:41.989315800,12.99131591796875,0.0567150938297563,-0.009899009950459,0.0399132560161989,-0.0046644834801554,-0.0661949539224268,0.9778344784392266,-0.1237997101940552,right,0.0014131665229797,-0.3961145692190801,0.5128427375392988,-9.03274594066441,-0.1945894674628845,-0.002682292368263,0.0033170171082019,3.783765674763918,0.0036315023899078
2025-04-30 00:30:42.029315600,13.031315673828123,0.0564368531130277,-0.0128606911748647,0.0398768982901009,0.0096613243222236,-0.0665906328386404,0.9777528341196904,-0.1246550709987189,right,-0.0004091262817382,-0.3967075217532311,0.5102028174897656,-9.030646338036656,-0.194871748100129,-0.0075607937760651,0.0005316734313964,3.789129832145572,-0.0001254379749298
2025-04-30 00:30:42.069315800,13.07131591796875,0.0564368531130277,-0.0043228231370449,0.0398768982901009,0.0089490115642547,-0.0665906328386404,0.9777528341196904,-0.1246550709987189,right,-9.76920127868e-05,-0.3967075217532311,0.5102028174897656,-9.030646338036656,-0.194871748100129,-0.0048697041347622,0.0022676773369312,3.789129832145572,0.0009989142417907
2025-04-30 00:30:42.109315800,13.11131591796875,0.0564368531130277,0.0042150449007749,0.0398768982901009,0.0082366988062858,-0.0665906328386404,0.9777528341196904,-0.1246550709987189,right,0.0002137422561645,-0.3967075217532311,0.5102028174897656,-9.030646338036656,-0.194871748100129,-0.0021786144934594,0.0040036812424659,3.789129832145572,0.0021232664585113
2025-04-30 00:30:42.149315800,13.15131591796875,0.0574579974162669,0.0008069674950093,0.0403864014667938,0.0027953810058534,-0.0666889380410186,0.977692643354088,-0.1246461245336056,right,-0.0011118650436401,-0.3971108052453518,0.5193363373422994,-9.028594666203857,-0.1950351913953945,-0.0026368461549282,0.0034191161394119,3.792777248737216,0.0018775463104248
2025-04-30 00:30:42.189315800,13.19131591796875,0.0574579974162669,0.0081898793578147,0.0403864014667938,0.0070331683382391,-0.0666889380410186,0.977692643354088,-0.1246461245336056,right,-0.0009201765060424,-0.3971108052453518,0.5193363373422994,-9.028594666203857,-0.1950351913953945,0.0006420935969799,0.0056908279657363,3.792777248737216,0.0018589496612548
2025-04-30 00:30:42.229315800,13.23131591796875,0.0586906322741448,0.0220894664525985,0.0408897616649446,0.0086569059640169,-0.066330668513496,0.9777145361029412,-0.1236698269173437,right,0.0024620294570922,-0.3969642109151017,0.53049749056492,-9.028502311745283,-0.1949423378301704,0.0120386248454451,0.004523392766714,3.7914512608304616,-0.0016906857490539
2025-04-30 00:30:42.269315800,13.27131591796875,0.0606210476406183,0.0509380474686622,0.0416565748413703,0.0388211384415626,-0.0657115739712907,0.9777918588210868,-0.1220300282609464,right,-0.0015017986297607,-0.3963298168090308,0.5480708854500204,-9.029860740616916,-0.1946020632669851,0.0190513394773006,0.0016181729733943,3.7857130094394087,-0.0043227970600128
2025-04-30 00:30:42.309315800,13.31131591796875,0.0635565829636889,0.0699483230710029,0.0428043167505165,0.0433734841644763,-0.0646544880561943,0.9779017995183908,-0.1193003042645242,right,-0.004057228565216,-0.3954914420678422,0.5747773252636194,-9.031376990398764,-0.1941538299021785,0.0149112716317176,0.0024044439196586,3.778127376616001,-0.0036202371120452
2025-04-30 00:30:42.349315800,13.35131591796875,0.0658553020851766,0.0311512723565101,0.0436810709716534,0.0189878027886152,-0.0636806684865998,0.9779710437714808,-0.1168610588269503,right,-0.0007573366165161,-0.395080197792392,0.5956385827129707,-9.031581573060157,-0.1939315753129769,0.0010390123352408,0.0022823400795459,3.774405433483421,-0.0010466277599334
2025-04-30 00:30:42.389315800,13.39131591796875,0.066448333322109,0.0150442738085985,0.043887196512933,0.0097834086045622,-0.0633118757476915,0.9779828997350288,-0.115988639720145,right,0.0033814907073974,-0.3951095104166487,0.6009871406666935,-9.031116293635964,-0.1939461839653113,-0.0041447971016168,0.00240084156394,3.77467080642134,-0.0019862949848175
2025-04-30 00:30:42.429315800,13.43131591796875,0.066448333322109,0.0079522086307406,0.043887196512933,0.0079410066828131,-0.0633118757476915,0.9779828997350288,-0.115988639720145,right,0.0003026723861694,-0.3951095104166487,0.6009871406666935,-9.031116293635964,-0.1939461839653113,-0.0109174828976392,0.002599474042654,3.77467080642134,0.0006436109542846
