time,seconds_elapsed,roll,rotationRateZ,quaternionY,rotationRateY,quaternionZ,quaternionW,yaw,devicelocation,accelerationZ,pitch,gravityX,gravityZ,quaternionX,rotationRateX,accelerationX,gravityY,accelerationY
2025-04-30 00:18:26.636149800,0.450149658203125,-0.7891320642177523,-0.0002316907048225,-0.381133394525071,0.0477244928479194,9.839291711796912e-18,0.9211168270816869,-0.0611037379750209,right,-0.2742443680763244,-0.1465249239449622,-6.885610577362775,-6.834379571819305,-0.0792522609955028,-0.0281081050634384,0.5609116554260254,1.431782715525478,0.1090100556612014
2025-04-30 00:18:26.676149800,0.490149658203125,-0.5386718589631276,0.077861413359642,-0.2670947623032957,0.0457762293517589,0.0522520717927068,0.9575748804801998,0.0505910096739742,right,-0.1284756064414978,-0.2109621917437663,-4.919243869143724,-8.231310900324583,-0.0947645718281014,0.00301294028759,0.3701725006103515,2.0535211139284075,0.0423052608966827
2025-04-30 00:18:26.716149800,0.530149658203125,-0.2795760516854091,0.155954509973526,-0.1484340683660868,0.0438279658555984,0.1035998853375641,0.9774622080173276,0.1764610670181968,right,-0.0321836471557617,-0.245594082986668,-2.624925309497118,-9.14304054507315,-0.1086369976062112,0.0341339893639087,0.1459916681051254,2.3843169566102325,0.005268394947052
2025-04-30 00:18:26.756149800,0.570149658203125,-0.18656356792174,0.1631662249565124,-0.1056676629756752,-0.0110333859920501,0.1231104447033351,0.980494734070362,0.2266771754499303,right,-0.0183354616165161,-0.2460494666282959,-1.7641859934039412,-9.346250164544582,-0.1109423254693084,0.0003491081297397,0.0578137040138244,2.3886484099432823,0.0076901614665985
2025-04-30 00:18:26.796149800,0.610149658203125,-0.1425384428239676,0.1298862695693969,-0.0856205736203013,-0.0550689212977886,0.1341677883152063,0.9808248808150384,0.2542370375817568,right,-0.0019704699516296,-0.2460880370378088,-1.3511264396637677,-9.414746193143724,-0.1124750629145995,-0.0136699937283992,0.0171290263533592,2.3890153435595334,0.0178971737623214
2025-04-30 00:18:26.836150000,0.65014990234375,-0.1297385610604371,0.0783247649669647,-0.0801688519354595,-0.0432295314967632,0.1391671085709113,0.9803814761419972,0.2657653784159778,right,0.0059555768966674,-0.2489315722135874,-1.229627573543042,-9.424494264698028,-0.1142692289159323,-0.0488045662641525,-0.0065025836229324,2.4160510883927344,0.0243655443191528
2025-04-30 00:18:26.876150000,0.69014990234375,-0.1291259659660068,0.0651589632034301,-0.0801510347486025,-0.0247852653264999,0.1400715277877418,0.9800894420707414,0.2675426086974172,right,0.006066620349884,-0.2518481718573647,-1.2229413737773895,-9.418218253168464,-0.1156733696214964,-0.0444074794650077,-0.0117158740758895,2.4437612253561616,0.0132132917642593
2025-04-30 00:18:26.916149800,0.730149658203125,-0.1293534521325466,0.0379614010453224,-0.0806763603267488,-0.0101994564756751,0.1413777714844187,0.9796168139654224,0.2699741997725425,right,0.0075459480285644,-0.2562173201785614,-1.2236948955584317,-9.407261974868176,-0.1177049465390837,-0.0034306459128856,-0.009146437048912,2.48523276116848,0.0182337164878845
2025-04-30 00:18:26.956149800,0.770149658203125,-0.1303020270258301,-0.0059483908116817,-0.0812983982732945,0.0296830758452415,0.1417529906493845,0.9794040642428984,0.2705313639038564,right,0.0038835406303405,-0.2582089728406353,-1.2319722369730473,-9.401170087733863,-0.1185928954617015,0.0349437966942787,-0.0074168592691421,2.5041215860337016,0.0116381347179412
2025-04-30 00:18:26.996149800,0.810149658203125,-0.1310474425503527,-0.0135932974517345,-0.0816470505986009,0.010212056338787,0.1412678131864166,0.9793982462461036,0.2694117943814334,right,0.005537986755371,-0.2590120011006027,-1.238716450536251,-9.39825273898244,-0.1189799117213462,0.0104597099125385,-0.0055741667747497,2.5117346913859246,0.0010600686073303
2025-04-30 00:18:27.036149800,0.850149658203125,-0.1317939129395388,-0.0212382040917873,-0.0819956418028083,-0.0092589613050222,0.1407824943048736,0.9793918553909556,0.268291203585091,right,0.0071914792060852,-0.2598141621012204,-1.2454665093183517,-9.395324868837,-0.1193668562454137,-0.0140243805944919,-0.0037308484315872,2.519338152126968,-0.0095169991254806
2025-04-30 00:18:27.076150000,0.89014990234375,-0.1323483357424157,0.004125190898776,-0.0822644666789939,0.0181810576468706,0.1405472010083705,0.979374447363988,0.2677182992536048,right,0.0154477953910827,-0.2603243373665238,-1.2505055263988674,-9.393357952678205,-0.1196018000610641,-0.0037604579702019,0.0053230673074722,2.5241730249375105,-0.015078842639923
2025-04-30 00:18:27.116150000,0.93014990234375,-0.1309462112669454,0.0324655473232269,-0.0815990276853869,0.0629382655024528,0.1407585637122984,0.979405881073544,0.2683332874389524,right,0.0012145638465881,-0.2600722391462535,-1.2374167661145328,-9.39573228059411,-0.1195514765936254,-0.0087177548557519,0.0054063349962234,2.521784083974361,-0.0004629790782928
2025-04-30 00:18:27.156149800,0.970149658203125,-0.1285776878673165,0.0456528551876544,-0.0805173305589474,0.0060399658977985,0.1415624228569892,0.9794062205922104,0.2702932123131809,right,-0.0139718651771545,-0.2594478778745857,-1.2153608555205166,-9.400196858787536,-0.1193327578179693,-0.0129839908331632,2.1569430828e-05,2.515866384363174,0.0112775564193725
2025-04-30 00:18:27.196149800,1.010149658203125,-0.128212658111107,0.0215715058147907,-0.080442974261904,-0.0019987393170595,0.1420280238741017,0.9793016121653012,0.2712536969540512,right,-0.0036795139312744,-0.2601979726855538,-1.2116877930309622,-9.398765364679694,-0.1196881274482933,-0.0187154728919267,0.004797026515007,2.522975631846488,0.0131279230117797
2025-04-30 00:18:27.236149800,1.050149658203125,-0.1276949080295027,-0.0253531523048877,-0.0802111813907975,0.0225671138614416,0.1419173337322184,0.9792997213117972,0.271066723687762,right,-0.0018860697746276,-0.2607225710144803,-1.206652721473202,-9.398077382415533,-0.1199898514187613,0.0122779048979282,0.0036504790186882,2.527946698257327,0.0063866674900054
2025-04-30 00:18:27.276149800,1.090149658203125,-0.1278350862372742,-0.0336773358285427,-0.0802310690125912,-0.0053214319050312,0.1411759820907399,0.9793551033336296,0.2695020792063501,right,0.0007205009460449,-0.2614464717617881,-1.2077364981219172,-9.396090592512488,-0.1203979728853547,-0.0137963872402906,0.00310580432415,2.5348048935890195,0.0021809339523315
2025-04-30 00:18:27.316149800,1.130149658203125,-0.1279765003618835,-0.0420015230774879,-0.0802509140464426,-0.0332099795341491,0.1404345708675937,0.9794098922944564,0.2679371422574393,right,0.0033264756202697,-0.2621702253886976,-1.2088307961646467,-9.394097957390546,-0.1208060207544426,-0.0398706831037998,0.0025621727108955,2.5416607508331537,-0.0020245313644409
2025-04-30 00:18:27.356150000,1.17014990234375,-0.1286337277862826,-0.0358889736235141,-0.0806179800128863,-0.0039741322398185,0.1396617178178658,0.979336085689904,0.2661620277770629,right,0.0105453729629516,-0.264650681251385,-1.2141921040020882,-9.387019981828333,-0.1220488245118144,-0.0791178047657013,0.0071425735950469,2.565146548099816,-0.0061145424842834
2025-04-30 00:18:27.396149800,1.210149658203125,-0.1280428056301858,-0.0365983732044696,-0.08034474194447,0.0379133261740207,0.1387172172622047,0.979340901923646,0.26420368195251,right,0.0024709701538085,-0.2668774964136245,-1.207912512275949,-9.382047454112769,-0.1232616572317262,-0.0316993817687034,0.0098964199423789,2.5862176854401824,-0.0059961676597595
2025-04-30 00:18:27.436149800,1.250149658203125,-0.1279102528212725,-0.0612286701798439,-0.0801853221926652,0.0165179651230573,0.1378763010033306,0.9794519460179136,0.2624948852422545,right,0.0002605319023132,-0.2670568576182374,-1.2066096860490738,-9.381747009861469,-0.1234274230264407,-0.0180222988128662,0.0099272951483726,2.587914260224998,0.0003460347652435
2025-04-30 00:18:27.476149800,1.290149658203125,-0.1282081065271484,-0.0623142682015895,-0.0801399587167236,-0.0028883647173643,0.1364739731522379,0.979653178375486,0.2596040878668479,right,-0.0021037459373474,-0.2668430990241181,-1.2094747200913727,-9.381935810431838,-0.1234179358182328,-0.0245382748544216,0.0047359988093376,2.585892106747627,0.0036885440349578
2025-04-30 00:18:27.516149800,1.330149658203125,-0.1286292403556502,-0.0166871026158332,-0.08028396823581,0.0083018532022833,0.135377841818073,0.9796979448200948,0.2572472538290122,right,0.00178724527359,-0.2682488070664039,-1.21295817829296,-9.377811423978208,-0.1241739560445203,-0.0530050918459892,0.003722496330738,2.5991870571285483,0.0027444660663604
2025-04-30 00:18:27.556149800,1.370149658203125,-0.1282862353962439,0.0158898085355758,-0.0802095781221475,-0.0033068247139453,0.135319846890682,0.9795991297575384,0.2570905539089047,right,-0.0039294958114624,-0.2699971417179219,-1.2091582745533436,-9.37370574222505,-0.1250617619260217,-0.042534377425909,-0.0036826431751251,2.615715290342272,-0.002290517091751
2025-04-30 00:18:27.596150000,1.41014990234375,-0.1281077285370974,0.039330780506134,-0.0802616552162628,-0.0137544330209493,0.1358849868671259,0.9794475480143638,0.2582128908294978,right,-0.0026537775993347,-0.2711650213091837,-1.207093889369443,-9.370884839585424,-0.1256021119360575,-0.0115092266350984,-0.0051734596490859,2.626751355880499,0.0020070374011993
2025-04-30 00:18:27.636149800,1.450149658203125,-0.1277652941812143,0.0539791919291019,-0.0802555672285162,-0.0043594883754849,0.1370695302300095,0.9792848847439464,0.2606701347922718,right,-0.0012975931167602,-0.2712870521047825,-1.203844020728022,-9.370979532131551,-0.1255867709292636,0.0175452362746,-0.0047419965267181,2.627904325307905,0.0063596367835998
2025-04-30 00:18:27.676149800,1.490149658203125,-0.1277848211231868,0.0506239011883735,-0.0803460859035884,-0.0126590961590409,0.1379050709935825,0.9791976117325673,0.2623949840057307,right,-0.0013701915740966,-0.2708347056379838,-1.2041783672489226,-9.372134547385572,-0.1252941900463965,0.0285491999238729,-0.0057729482650756,2.6236303012505173,0.0060585737228393
2025-04-30 00:18:27.716149800,1.530149658203125,-0.1282411105950036,0.0276989713311195,-0.0806343237874264,-0.0193996056914329,0.1388447843865351,0.979110799670937,0.2642972965115391,right,0.0002055764198303,-0.2699431641368033,-1.2087533470142633,-9.373899803492426,-0.1247485723722433,0.0276458691805601,-0.00278190523386,2.6152050027325746,0.0059598684310913
2025-04-30 00:18:27.756149800,1.570149658203125,-0.1295173884257377,-0.0066583603620529,-0.0812436433837456,-0.0115548074245452,0.1391100839715849,0.979078299750638,0.2647082898565316,right,0.0025835037231445,-0.2692690096091294,-1.2209434779584407,-9.374096202847362,-0.1243124468079947,0.0154599994421005,0.0006512776017189,2.608832545091212,-0.0007731914520263
2025-04-30 00:18:27.796149800,1.610149658203125,-0.1303512395700453,-0.0083689093589782,-0.0816200991005588,-0.0224159955978393,0.1389752378896728,0.9790802015493226,0.2643335535873763,right,-0.0041214227676391,-0.2691299307325049,-1.2288067586794496,-9.373434524068236,-0.1242014916822963,0.0143532324582338,-0.0001904815435409,2.6075179553613066,-0.0058576762676239
2025-04-30 00:18:27.836150000,1.65014990234375,-0.1323652705517368,-0.0279011614620685,-0.0825313323792573,-0.0345917306840419,0.138643013034609,0.9790818169513388,0.2634135604700789,right,0.0024211406707763,-0.2688389908425059,-1.2477826773062348,-9.37169206431508,-0.1239567117632197,-1.51991844177e-05,0.0058312341570854,2.6047674876093865,-0.0044645965099334
2025-04-30 00:18:27.875191300,1.68919140625,-0.1340442729483444,-0.0247325953096151,-0.0832472473484748,0.0032072181347757,0.1379770472486468,0.979131134965694,0.2618481112195122,right,0.0061184018850326,-0.2686886541435532,-1.263568421589583,-9.369971816393733,-0.1238317030880702,0.0051488699391484,0.0050938669592142,2.6033459303736683,-0.0121400021016597
2025-04-30 00:18:28.054382800,1.8683828125,-0.1363080629702601,0.0215680245310068,-0.0844086017428334,0.0128181232139468,0.1378781401714031,0.9789710501708409,0.2612857332055705,right,0.0060478555969893,-0.2701572247346301,-1.2842558203093706,-9.363289562150836,-0.1244197976675764,-0.0444087721407413,0.0034339162521064,2.6172283252537247,0.0084167057648301
2025-04-30 00:18:28.094383000,1.908383056640625,-0.1345933043699019,0.0228117909282445,-0.0837737087413627,0.0114630460739135,0.1381359271957018,0.9788033093689616,0.2618930685450812,right,-0.006703495979309,-0.2729340712785694,-1.2672181762687862,-9.358239877545833,-0.1258750030784055,-0.0341997593641281,-0.0036341547966003,2.643461959923804,0.0108342468738555
2025-04-30 00:18:28.248681500,2.062681396484375,-0.1339539479400913,-0.0091288974508643,-0.0838281509491338,0.0269864369183778,0.1397791500331965,0.9784118078156124,0.265205902103897,right,0.0136395189911127,-0.2755469652388771,-1.2603078123584388,-9.352170786765218,-0.127062271773153,0.0415810458362102,0.0007823306368663,2.668128199146688,0.0046100402250885
2025-04-30 00:18:28.424453400,2.238453369140625,-0.1366790274688347,-0.0554704293608665,-0.0844741249841091,-0.0008874046034179,0.1365634296672871,0.9790777205379936,0.2585039111573535,right,0.0015594745054841,-0.271121944834553,-1.2873846198543906,-9.360306746947764,-0.1249851818602212,-0.0028868864756077,0.0076462924480438,2.626344528645277,-0.0127382092177867
2025-04-30 00:18:28.619421700,2.433421630859375,-0.1406675622280744,0.0435408167541027,-0.0864977220648049,-0.0387181043624877,0.1390269735815854,0.9788443350235204,0.2632239172110946,right,-0.0050079585053026,-0.2674190199569707,-1.3260625794254242,-9.36466201954782,-0.122691645625557,-0.0067795189097523,0.0009255085606127,2.591339850759506,0.0134185478091239
2025-04-30 00:18:28.659421700,2.473421630859375,-0.1419763768448642,0.0293656568974256,-0.087279204361049,0.002495102584362,0.1398831622460387,0.97862580917573,0.2647688228209079,right,0.007788598537445,-0.2681830272704951,-1.338037533248961,-9.360956150767208,-0.1229080959544692,0.0044665178284049,0.0070718526840209,2.598565125837922,0.0104595720767974
2025-04-30 00:18:28.699421700,2.513421630859375,-0.1418813166989259,-0.0074244048446416,-0.0872490853738092,-0.019979765638709,0.1402020832449278,0.9786119799120728,0.2654551212863001,right,-0.0108380913734436,-0.2677586363104017,-1.337303519885987,-9.362174294385314,-0.1226766099752082,0.05176767334342,-0.0052820295095443,2.5945517985433337,0.0036098957061767
2025-04-30 00:18:28.739421700,2.553421630859375,-0.1429096743570606,-0.0490703433752059,-0.0874256850433397,-0.0066227065399289,0.1392503589453346,0.978944517589528,0.2635699977617962,right,-0.0121171474456787,-0.2642577055300533,-1.3482159590445455,-9.369727486243844,-0.1209694180469557,0.0603966526687145,-0.0050327628850936,2.561426943054795,0.002398133277893
2025-04-30 00:18:28.779421700,2.593421630859375,-0.1439302282769492,-0.0907162874937057,-0.0876019430251983,0.0067343516275286,0.1382981655279934,0.979273220573096,0.2616905592922347,right,-0.0134076476097106,-0.2607549559130992,-1.359056063619256,-9.377168449899552,-0.119261754251663,0.0690256357192993,-0.0047908276319503,2.5282532799884674,0.0011913478374481
2025-04-30 00:18:28.819421700,2.633421630859375,-0.1461646375703826,-0.1138929650187492,-0.0883539955999672,-0.008623925037682,0.1364818421942563,0.9795707498094328,0.2578155023649168,right,0.0148542523384094,-0.2588697111073725,-1.3806968175411225,-9.378807449278234,-0.1183531949709611,0.0379846803843975,0.0058243721723556,2.510385907125473,-0.0123753994703292
2025-04-30 00:18:28.859421700,2.673421630859375,-0.1433492175861815,-0.0512518733739852,-0.0867855707650795,0.0144221661612391,0.1350883931820335,0.979911878127532,0.2553523788703267,right,-0.0010828375816345,-0.2581276147847647,-1.3545518840678037,-9.384498354396223,-0.1182877800365863,0.0087149366736412,-0.0041960626840591,2.5033503094002603,-0.0122569799423217
2025-04-30 00:18:28.899421700,2.713421630859375,-0.1405324858283054,0.011389210820198,-0.0852167539502946,0.0374682545661926,0.1336943028163607,0.9802486499131716,0.2528875406817811,right,-0.0170294046401977,-0.2573922448692549,-1.3283704179763791,-9.39009690505564,-0.1182218323926124,-0.0205548033118248,-0.0142202377319335,2.4963769632563,-0.0121448934078216
2025-04-30 00:18:28.939421700,2.753421630859375,-0.1408947874254695,1.36364251375e-05,-0.0855067987438945,0.0020453780889511,0.1336260908032742,0.9800996547873204,0.2525824785022498,right,-0.0112569332122802,-0.2596502163969575,-1.3309773856043814,-9.384010278618335,-0.1193198207727607,-0.0480700321495533,-0.0118563175201416,2.517784200683236,-0.0020259320735931
2025-04-30 00:18:28.979421700,2.793421630859375,-0.1412580064353223,-0.011361937969923,-0.0857967309256517,-0.0333774946630001,0.1335577192215452,0.9799493098656415,0.2522764041333249,right,-0.0054895281791687,-0.2619080641947366,-1.333582015144825,-9.377873967820406,-0.1204176497380716,-0.0755852609872818,-0.0094926208257675,2.539177701845765,0.0080944299697875
2025-04-30 00:18:29.019421700,2.833421630859375,-0.1427036709885036,-0.0216889008879661,-0.0865479345645974,-0.0581728145480155,0.133218564617365,0.9798294758100288,0.2513099670577813,right,-0.0052595138549804,-0.2636705055306875,-1.3464993643850087,-9.371492157828808,-0.1212284252281123,-0.060544267296791,-0.0155584663152694,2.555867847622931,0.002394288778305
2025-04-30 00:18:29.059421700,2.873421630859375,-0.1454485574573543,-0.0402138382196426,-0.0878926887062199,-0.0337964966893196,0.132395299477694,0.9796921429868124,0.2491608622087439,right,0.0023033022880554,-0.2659681988967535,-1.371363172006607,-9.361925288060307,-0.1222681996424899,-0.0756386220455169,-0.0119373053312301,2.5776149845287204,-0.0011590719223022
2025-04-30 00:18:29.099421700,2.913421630859375,-0.1482002899093345,-0.0587387755513191,-0.0892371297946485,-0.0094201769679784,0.1315715641939818,0.9795513230199924,0.2470038904454917,right,0.0098547935485839,-0.2682602026869374,-1.396243492371589,-9.352248528176546,-0.1233075412463532,-0.0907329767942428,-0.0083144903182983,2.5992949014171955,-0.0047055482864379
2025-04-30 00:18:29.139421700,2.953421630859375,-0.1504770072189157,-0.0629946961998939,-0.0902706840670369,-0.0125115867704153,0.1301608301084793,0.9795080063723212,0.2437070120160672,right,0.0073078870773315,-0.270470574401653,-1.4166674178496002,-9.34334216814339,-0.1243917952287579,-0.0503296591341495,-0.0047014653682708,2.6201895131468773,-0.0114190876483917
2025-04-30 00:18:29.356960500,3.17096044921875,-0.1419270325167679,-0.0889421477913856,-0.084467641663467,-0.0930057689547538,0.1315178364935873,0.9818186736343224,0.2494755027007837,right,-0.0011724688811227,-0.2358919389219399,-1.3487455358766018,-9.439194405701755,-0.1077043648077239,0.5456867218017578,0.0078006042167544,2.291915590158105,0.0135229490697383
2025-04-30 00:18:29.396960500,3.21096044921875,-0.1458684281602718,-0.0733783468604087,-0.0849095622967719,-0.0464519709348678,0.1309738851703795,0.9831928060403068,0.2494666009354866,right,0.0026332139968872,-0.2099986687299339,-1.3940988815583288,-9.489351060011982,-0.0947000050012322,0.5362970232963562,0.0212902650237083,2.044280845765769,0.050140380859375
2025-04-30 00:18:29.548224800,3.362224853515625,-0.1471394715291069,0.0458065383136272,-0.0854283820395489,0.0084605617448687,0.1309067464584205,0.9832445874543424,0.2493109798458331,right,-0.0070381462574005,-0.2082935290399472,-1.4066681480132042,-9.491005841481686,-0.0937835382148145,-0.1097439751029014,-0.0023651907686144,2.02792358520478,-0.0058750100433826
2025-04-30 00:18:29.787815700,3.601815673828125,-0.1387963682304946,0.052627507597208,-0.0831430599824964,0.0602061860263347,0.1369654827221368,0.9815889684064772,0.261299086765869,right,0.001147708389908,-0.2288889105694147,-1.321376175174862,-9.459034832203388,-0.1039743214700071,-0.0069701760075986,-0.0024202330969274,2.225085595075041,-0.001536873052828
2025-04-30 00:18:29.827815400,3.6418154296875,-0.1382601216095662,-0.0238640792667865,-0.0827389427660501,0.0071252882480621,0.1364842007046193,0.9817663429397632,0.2604628480774673,right,-0.0060587525367736,-0.2272775224759213,-1.316796153908223,-9.46328138373196,-0.103253071150425,0.0019101505167782,-0.0038043558597564,2.2096925033710897,0.0067610740661621
2025-04-30 00:18:29.867815400,3.6818154296875,-0.139123894902941,-0.0207378938794136,-0.0830541342806397,0.0079693319275975,0.1354245647141474,0.9818761176240828,0.2582064533861509,right,-0.0029743909835815,-0.2274053628438285,-1.3249305066555737,-9.461860411018131,-0.103350771226236,-0.0138690900057554,-0.0015581250190734,2.210914007990062,-0.0010125041007995
2025-04-30 00:18:29.907815400,3.7218154296875,-0.1399880123385304,-0.0176117084920406,-0.0833692271368514,0.0088133756071329,0.1343647277234328,0.9819847263890434,0.2559498256852055,right,0.0001096129417419,-0.2275313187732031,-1.333067343620956,-9.460435931172968,-0.103448346428191,-0.029648333787918,0.0006883442401885,2.2121173924304545,-0.0087842345237731
2025-04-30 00:18:29.947815700,3.761815673828125,-0.140156041975276,0.0058801639825105,-0.0834435558264061,0.0163880679756402,0.1338683937869693,0.982001067745247,0.2548767120990108,right,0.0025660395622253,-0.2283333784699715,-1.334408675227314,-9.45845206387937,-0.1038764474966044,-0.022557670250535,0.0007554292678833,2.2197794514909384,-0.0137428939342498
2025-04-30 00:18:29.987815700,3.801815673828125,-0.140156041975276,0.0062806056812405,-0.0834435558264061,0.0172745771706104,0.1338683937869693,0.982001067745247,0.2548767120990108,right,-0.0015596151351928,-0.2283333784699715,-1.334408675227314,-9.45845206387937,-0.1038764474966044,0.0051729567348957,5.37484884262e-05,2.2197794514909384,-0.0057472586631774
2025-04-30 00:18:30.027815700,3.841815673828125,-0.1397104362852395,0.0022588050924241,-0.0832008505329638,0.0060813063755631,0.1338436010688546,0.9820439582528442,0.2548967513375386,right,-0.0003524422645568,-0.2279108059660746,-1.3303243285231292,-9.459974158880112,-0.1036975202866708,-0.0093295658007264,-0.0007103085517883,2.215742743320763,-0.0020043849945068
2025-04-30 00:18:30.067815400,3.8818154296875,-0.1398451764330425,0.0293293949216604,-0.0833331824034754,-0.0142569756135344,0.1340433895395066,0.9819655513943218,0.2552443030542929,right,-0.0003625154495239,-0.2287252381219004,-1.331346949569136,-9.45800432011187,-0.1040747412595497,-0.0497164092957973,-0.0009959191083908,2.2235224374115465,-0.0023091882467269
2025-04-30 00:18:30.107815400,3.9218154296875,-0.1398403781291995,0.0411134101450443,-0.0835248468450216,0.0075450865551829,0.1345435004774884,0.9817536611269828,0.2561254694816217,right,0.0052001476287841,-0.2312236604483817,-1.3305230659656226,-9.45248000373244,-0.1052674144524473,-0.0555024109780788,0.0014485269784927,2.247378529295325,-0.0089421868324279
2025-04-30 00:18:30.147815400,3.9618154296875,-0.1388603631997834,0.0585630536079406,-0.0832207822402689,0.0315784476697444,0.1353511664884541,0.9815898747371712,0.2577946258413366,right,0.0072286128997802,-0.2327166878511303,-1.3207929684594273,-9.450445867556333,-0.1059983258372729,-0.0187369808554649,0.0039234012365341,2.261627857791632,-0.0085105895996093
2025-04-30 00:18:30.187815700,4.001815673828125,-0.1366793767228735,0.0583714619278907,-0.0823117612159541,0.0414807945489883,0.1364631168523469,0.9814809905211892,0.2602693110691373,right,-0.0011719465255737,-0.233216450545393,-1.3000243211969733,-9.45218306661248,-0.1062899086703341,-0.0065917605534195,0.0041200667619705,2.266396533498168,-0.000545784831047
2025-04-30 00:18:30.227815700,4.041815673828125,-0.1346418988469787,0.0454608798027038,-0.0814461425729613,0.0251238774508237,0.137422357113238,0.981396781422729,0.2624281524558051,right,-0.0077428221702575,-0.2335357754517119,-1.2806658329933882,-9.454094453191756,-0.1064980644034331,-0.011458309367299,0.0028536766767501,2.2694430615872143,0.0062607824802398
2025-04-30 00:18:30.267815700,4.081815673828125,-0.1336877125640467,0.029321564361453,-0.0811204835942608,0.014326611533761,0.1379836621317996,0.9812734526119944,0.2636087627708629,right,-0.0028578639030456,-0.2348367047930515,-1.271249769872427,-9.452378296923635,-0.1071554377211679,-0.0462637469172477,0.0075393170118331,2.281852607435733,0.0073456913232803
2025-04-30 00:18:30.307815400,4.1218154296875,-0.1331520887056249,0.023268399760127,-0.0810504292452329,-0.0060495845973491,0.138353912267403,0.9810887582480348,0.2642923208368303,right,-0.0045907497406005,-0.2373795374272614,-1.265412149760127,-9.447276589870452,-0.1084148445584379,-0.0665823593735694,0.0033795535564422,2.306097406376153,0.0046216994524002
2025-04-30 00:18:30.347815400,4.1618154296875,-0.1337973939626023,0.0050058923661708,-0.0815201055441526,-0.0374340489506721,0.1386674654614053,0.9808987853908128,0.2647536683766764,right,-0.0023396015167236,-0.2394649830940543,-1.2708639854252337,-9.441671024948358,-0.1093764925339512,-0.0256319679319858,0.0014679431915283,2.32597012771219,0.0044257640838623
2025-04-30 00:18:30.387815400,4.2018154296875,-0.1353266349097057,-0.0109679363667964,-0.0822789926913444,-0.0348122343420982,0.1387277712316162,0.9808277661624988,0.2646960355406774,right,0.0035752058029174,-0.2396614328016927,-1.285239424519241,-9.43926337928474,-0.1093693482607597,0.0201382003724575,0.0003554373979568,2.327841620672494,0.0009457468986511
2025-04-30 00:18:30.427815700,4.241815673828125,-0.1362898152509262,-0.0200675576925277,-0.0826415449066576,-0.0089642070233821,0.1385574012596743,0.9809064643415026,0.2643174125886748,right,0.0061471462249755,-0.2382064743064648,-1.2947893431529405,-9.44136707356572,-0.1086030818338223,0.056543480604887,8.59498977661e-05,2.3139786611452697,-0.0017861723899841
2025-04-30 00:18:30.467815700,4.281815673828125,-0.1361524824266776,-0.0343692414462566,-0.0823889932874828,0.0167574565857648,0.1381008515425313,0.9811133312748548,0.2635237885783726,right,0.0041409730911254,-0.2358805562425974,-1.2942197265714406,-9.44685105793476,-0.107501988669164,0.0600438676774501,7.15106725692e-05,2.291807161347568,-0.0019811689853668
2025-04-30 00:18:30.507815700,4.321815673828125,-0.1350836329243457,-0.0333852060139179,-0.0816542871282267,0.0344469621777534,0.1375347856546312,0.9813846117224596,0.2626257250183369,right,0.0001449584960937,-0.2332220565315241,-1.2849378112241625,-9.454232984879612,-0.1063053825360902,0.0635716766119003,0.0001455396413803,2.266450017251074,0.0009188801050186
2025-04-30 00:18:30.547815700,4.361815673828125,-0.134307828129731,-0.0211912393569946,-0.0811418480411716,0.0202026404440403,0.1371472600253889,0.981558940909928,0.2620042771879901,right,-0.0018530488014221,-0.2316006103710176,-1.278093206026405,-9.458856553027031,-0.1055865921352641,0.0431261509656906,0.0016139298677444,2.250976553787291,-0.0028173476457595
2025-04-30 00:18:30.587815400,4.4018154296875,-0.1335312645341302,-0.0089972708374261,-0.0806293255760127,0.0059583187103271,0.1367596248209916,0.9817322986689792,0.26138181391546,right,-0.0038540959358215,-0.2299796185594415,-1.271231503563374,-9.46345031055808,-0.1048676947944754,0.0226806253194808,0.00308059155941,2.235501482888311,-0.0065534114837646
2025-04-30 00:18:30.627815400,4.4418154296875,-0.1330616756052015,0.0079645551741123,-0.0803461548066648,0.002515097381547,0.1367525887405124,0.9818026267663104,0.2614659940518627,right,-0.0037124156951904,-0.2290413676462438,-1.2670650315336882,-9.466120991072058,-0.1044349118123209,0.0144052170217037,0.003380998969078,2.2265416391022503,-0.0081550329923629
2025-04-30 00:18:30.667815700,4.481815673828125,-0.132991590964543,0.0055664246901869,-0.080310372634318,-0.0162045154720544,0.1369607826462363,0.9817994184620256,0.2619187000809275,right,-0.0036370754241943,-0.2286310448239052,-1.2665227413505316,-9.467114093762635,-0.1042196898121853,-0.0028386861085891,0.00196473300457,2.2226227120928463,-0.004253402352333
2025-04-30 00:18:30.707815700,4.521815673828125,-0.1334361605605015,-0.0003811279311776,-0.0805639232206874,-0.020505579188466,0.1371350267368122,0.9817415133744152,0.2622093723373379,right,0.0010119676589965,-0.2289615906691392,-1.270633537670225,-9.46582171586454,-0.1043401252840153,-0.0190482009202241,0.0016117244958877,2.225779714819044,-0.0026088207960128
2025-04-30 00:18:30.747815700,4.561815673828125,-0.1336458633583956,-0.0077778110280632,-0.0807081724203913,-0.0087779769673943,0.1371539710074133,0.98169216563715,0.2621897438099016,right,-0.0009010434150695,-0.2296557200833711,-1.2724123839110135,-9.464021388444303,-0.1046679451861494,-0.0302193891257047,0.0003485530614852,2.232408631439507,-0.000672161579132
2025-04-30 00:18:30.787815700,4.601815673828125,-0.1340992706161312,-0.013997159898281,-0.080971978610452,-0.0131001900881528,0.1369336294769883,0.9816412424233476,0.2616323200362472,right,-0.0004385709762573,-0.2308134146044924,-1.276356883753091,-9.4608760761559,-0.1052288044405194,-0.0434527769684791,0.0001697987318038,2.243462232634425,-0.0003279745578765
2025-04-30 00:18:30.827815400,4.6418154296875,-0.1343561659373068,-0.0089293420314788,-0.0811549585341483,0.0008493000641465,0.1367209405358981,0.9815812236428436,0.2610985197020897,right,0.0011015534400939,-0.2322141042089877,-1.2783651548355817,-9.4574244743973,-0.1059217476387323,-0.0431516729295253,-0.000119924545288,2.256831855686754,0.0011852234601974
2025-04-30 00:18:30.867815400,4.6818154296875,-0.1346139270000187,-0.0038615255616605,-0.0813378862395488,0.0147987902164459,0.136508079359106,0.9815206830237676,0.2605639819831318,right,0.0026397109031677,-0.2336146527329411,-1.2803773714408275,-9.453952998894453,-0.1066146331831225,-0.0428505651652812,-0.0004092305898666,2.270195633520186,0.0026989579200744
2025-04-30 00:18:30.907815400,4.7218154296875,-0.1340012376792481,0.0059965685941278,-0.0811189847838176,0.0246243774890899,0.1363856189368621,0.9814649582062256,0.2602988768534189,right,-0.0004665851593017,-0.2352022892369597,-1.2741016521722075,-9.451151969999074,-0.1074479441537945,-0.0403145961463451,-0.0005803108215332,2.285339280507713,0.0015611350536346
2025-04-30 00:18:30.947815700,4.761815673828125,-0.133152194338485,0.0044660638086497,-0.0807944684597113,0.0176348965615034,0.1363647096115408,0.9814043506277026,0.2602698109471156,right,-0.0022962689399719,-0.2367536089308919,-1.2656046035923063,-9.448705161368846,-0.1082698522095207,-0.0362282283604145,0.0007685422897338,2.3001308991871774,0.0029832124710083
2025-04-30 00:18:30.987815700,4.801815673828125,-0.1325882601344345,6.54738396406e-05,-0.0805811737833265,0.0118231251835823,0.1363316336750795,0.981361810561855,0.2602084175961647,right,-0.0018317103385925,-0.2378591421331367,-1.259938979046047,-9.44689080542326,-0.1088543788401764,-0.0190246123820543,0.0039351657032966,2.3106686598144472,0.0048851817846298
2025-04-30 00:18:31.027815700,4.841815673828125,-0.1320303990929875,0.0019763910677284,-0.0803353860200954,0.0041246628388762,0.1363237934054247,0.98135484656287,0.2602320325534611,right,-0.0053118467330932,-0.2383006588275285,-1.254534343523532,-9.446580424299835,-0.109108545706291,-0.007278885692358,0.0042749121785163,2.3148761945068834,0.0042888820171356
2025-04-30 00:18:31.067815400,4.8818154296875,-0.1318282113440677,0.0099672572687268,-0.0802694622644608,-0.0075701232999563,0.1364711323873977,0.981324768508194,0.2605411149803496,right,-0.0056266784667968,-0.2385722916646265,-1.252541562271118,-9.446209837421774,-0.10924348155283,-0.0074039963074028,0.0032785013318061,2.3174647496953606,0.0017329305410385
2025-04-30 00:18:31.107815400,4.9218154296875,-0.1321092042544179,0.0144225470721721,-0.0804687336827393,-0.0151183195412158,0.1367492203312167,0.9812436591047782,0.2610485512715476,right,-0.0014752149581909,-0.2391284496166736,-1.2550259264327586,-9.444578436827658,-0.1094773408687458,-0.0153526663780212,0.0029720664024353,2.3227638790167866,0.0005472600460052
2025-04-30 00:18:31.147815400,4.9618154296875,-0.1325342445174104,0.0138126462697982,-0.0807669542459329,-0.0123447105288505,0.1370924801898217,0.981126013944126,0.2616536587898584,right,0.000696837902069,-0.2400606454739202,-1.25875342252329,-9.441893727788328,-0.1098821384957047,-0.0315186716616153,0.0016528964042663,2.331644520086795,0.000334694981575
2025-04-30 00:18:31.187815700,5.001815673828125,-0.1331133117378309,0.0016367342323064,-0.0811434098164506,-0.0191693119704723,0.1373241640655211,0.9810018344593832,0.2619997538405864,right,0.0016690492630004,-0.2412686868097808,-1.263845923356712,-9.4383643846184,-0.1104222484703623,-0.0300024468451738,0.0010357052087783,2.3431499567024408,0.001745119690895
2025-04-30 00:18:31.227815700,5.041815673828125,-0.1339374024709767,-0.0136826336383819,-0.0815909807605902,-0.0196357909590005,0.1372293014705793,0.9809260126089284,0.2616612538907266,right,0.0008074641227722,-0.2422922604710374,-1.2713026691034437,-9.434937917301058,-0.1108825794370178,-0.0253413021564483,4.6893954277e-05,2.3528958362996577,0.0021980106830596
2025-04-30 00:18:31.267815700,5.081815673828125,-0.1349081864257391,-0.0302912835031747,-0.0820499447937753,-0.0099321790039539,0.1367809297372373,0.9809147117790568,0.2606018005196909,right,0.0017230510711669,-0.2429815598289498,-1.2802429314061998,-9.432090126654504,-0.111198216207573,-0.0182455610483884,0.000486820936203,2.3594575329028067,0.0019659847021102
2025-04-30 00:18:31.307815400,5.1218154296875,-0.1358366841639841,-0.0308421552181243,-0.0824499158947402,-0.0035520968958735,0.1361864044972543,0.980947435523747,0.2592681060354683,right,0.0027064085006713,-0.2432938970486174,-1.2889001389838757,-9.430166465115546,-0.1113432255995791,-0.0119585692882537,0.0026632398366928,2.3624304112337526,-0.0005124062299728
2025-04-30 00:18:31.347815400,5.1618154296875,-0.1361918599775874,-0.0129838734865188,-0.0825978100294743,-0.0004902912769466,0.1357579825803977,0.9809685876128852,0.2583316739573839,right,0.0022809505462646,-0.2437265963094118,-1.292110479332507,-9.428694638997316,-0.111570406365084,-0.0134227601811289,0.0022584795951843,2.3665485140770675,-0.0010554194450378
2025-04-30 00:18:31.387815400,5.2018154296875,-0.1359085848460909,0.0123002175241708,-0.0824880341920533,0.0079127550125122,0.135728191138285,0.9809492002086342,0.2582748813628676,right,0.001526653766632,-0.2442686391346396,-1.289265611295402,-9.427788045546412,-0.1118584102614287,-0.011432122439146,0.0016859471797943,2.3717066274926064,-0.0037119388580322
2025-04-30 00:18:31.427815700,5.241815673828125,-0.1354587204779952,0.0164902620017528,-0.0823316101861415,0.0111995488405227,0.1360073786451205,0.9808938232143468,0.2588684838303972,right,0.0001345872879028,-0.2447871300939505,-1.2848580239862202,-9.427147409555316,-0.1121193691333893,-0.0104942740872502,0.002295434474945,2.376640138372033,-0.0016630142927169
2025-04-30 00:18:31.467815700,5.281815673828125,-0.1349449624385391,0.0141337383538484,-0.0821279433823142,0.0080507239326834,0.1363230130975007,0.9808575363886696,0.2595627154178913,right,-0.0025810003280639,-0.2449434555188972,-1.279964552856237,-9.42743791693449,-0.1122026405062084,-0.0037788287736475,0.0013296604156494,2.378127454320341,0.0004201680421829
2025-04-30 00:18:31.507815700,5.321815673828125,-0.134739620076931,0.017756275832653,-0.0820853350103766,-0.0047629158943891,0.1366291773429636,0.9807985386358616,0.2601909781445717,right,-0.0030898451805114,-0.2453234791125051,-1.2779071819350123,-9.42680429520607,-0.1123776285247194,-0.0230939965695142,0.0002737194299697,2.381742722208053,0.0019749104976654
2025-04-30 00:18:31.547815700,5.361815673828125,-0.1349542035780628,0.0254292152822017,-0.0823271589668221,-0.004542919807136,0.1370919344566157,0.98063580885798,0.2610340342962522,right,0.0019349455833435,-0.2468025287490102,-1.2794545575074852,-9.423028868320584,-0.1130551471042364,-0.0541161373257637,0.0037002563476562,2.39581041052714,0.0017538517713546
2025-04-30 00:18:31.587815400,5.4018154296875,-0.1348860865060184,0.0546305030584335,-0.0825178886450782,-0.0056887897662818,0.1378472834749828,0.9803854805448252,0.2624615067833317,right,2.31266021728e-05,-0.2491679816371763,-1.2780470287971195,-9.417474156802893,-0.1141632509119881,-0.0544695332646369,0.0014554262161254,2.4182978444062173,-0.0019196569919586
2025-04-30 00:18:31.627815400,5.4418154296875,-0.1347941967980195,0.0794932022690773,-0.0827480300122078,-0.0050497660413384,0.1391650672877749,0.9800723214814882,0.2650552572445633,right,0.0044696927070617,-0.2512448161946793,-1.2765040371388197,-9.412593983545898,-0.1150826371987167,-0.0260061509907245,0.002476081252098,2.4380304266192017,-0.0007124543190002
2025-04-30 00:18:31.667815700,5.481815673828125,-0.1340968436338319,0.077999398112297,-0.0826348953209815,0.0057542072609066,0.1407488405847723,0.9798288145282378,0.2683372434880936,right,0.0036738514900207,-0.2518858922162705,-1.2697305974811317,-9.411931135722996,-0.1153105766240225,0.0144918225705623,0.0025475174188613,2.444119391144067,0.0012500137090682
2025-04-30 00:18:31.707815700,5.521815673828125,-0.1330685725788858,0.056710161268711,-0.0822451867716247,0.0065647601149976,0.1422010967604983,0.9797199232256072,0.2714754197776241,right,0.0002076625823974,-0.2508218768191741,-1.260396221294254,-9.415804177764056,-0.1147315091853698,0.0503467433154583,0.0022055059671401,2.4340128615409133,0.0066298246383666
2025-04-30 00:18:31.747815700,5.561815673828125,-0.1324559766298791,0.0234424620866775,-0.0819431297128083,0.0048802504315972,0.1430844411672518,0.9797244738878378,0.2734393099796756,right,0.0008484721183776,-0.2490132649528071,-1.2552072743490337,-9.420922835952044,-0.1138065911499287,0.0566255301237106,0.0020995438098907,2.4168274795927105,0.0069365948438644
2025-04-30 00:18:31.787815700,5.601815673828125,-0.1323948627194608,-0.0040128249675035,-0.0818398330936322,-0.0054339114576578,0.1433495092134143,0.979794613943627,0.2740720888175055,right,0.0005207061767578,-0.2472930924070876,-1.2551783405154944,-9.42510625911653,-0.1129404554248176,0.0379208624362945,0.0019192993640899,2.400475041337311,0.0055178254842758
2025-04-30 00:18:31.827815400,5.6418154296875,-0.1325649186592701,-0.0111256605014204,-0.0818491765323745,0.0010060081258416,0.1431934052293249,0.9798677933916656,0.2737784443327019,right,0.0017547011375427,-0.2463899119408476,-1.2570672230020166,-9.427038103961944,-0.112496794157287,0.0196675099432468,0.0013414919376373,2.391886368951201,0.0004825890064239
2025-04-30 00:18:31.867815400,5.6818154296875,-0.1326293416191605,-0.0043489141389727,-0.0818293734508302,0.0070016589015722,0.142963444543117,0.979924215296904,0.27332170469565,right,0.0022622942924499,-0.245985115913052,-1.257802551539242,-9.427916055840251,-0.1123120967076608,0.0106243779882788,0.0013160556554794,2.3880364155247804,-0.0010720640420913
2025-04-30 00:18:31.907815400,5.7218154296875,-0.1325243356684999,-0.0075462972745299,-0.081759844748497,0.0034556554164737,0.1427834324069545,0.9799518968830864,0.2729647901805357,right,-0.0018563866615295,-0.2460159813018404,-1.2568027268469333,-9.427975092551112,-0.1123493607103418,0.0065475422888994,0.0009742379188537,2.388329991643876,-0.0016636252403259
2025-04-30 00:18:31.947815700,5.761815673828125,-0.1324193972169299,-0.0107436804100871,-0.0816903249489664,-9.03483014553e-05,0.1426033586365382,0.9799796805088292,0.2726077948641421,right,-0.0059751272201538,-0.2460469471428525,-1.2558036328069866,-9.42803354474008,-0.1123866387947779,0.0024707065895199,0.000632494688034,2.388624444545805,-0.0022552758455276
2025-04-30 00:18:31.987815700,5.801815673828125,-0.1326979141919137,-0.0266601294279098,-0.0817816645453344,-0.0100037716329097,0.1422679093906618,0.9800243318779416,0.271895274759695,right,-0.0045139193534851,-0.2459662626942927,-1.2584550240986048,-9.427874554786085,-0.1123562950781353,-0.0035544163547456,0.0015215277671813,2.3878571134351194,-0.0006608664989471
2025-04-30 00:18:32.027815700,5.841815673828125,-0.1333985613675611,-0.0221502240747213,-0.0820843807384638,-0.0105456421151757,0.1417549505938857,0.9800522876251476,0.2707492048973709,right,0.0002512335777282,-0.2463447712758417,-1.2649400022037327,-9.42609351658821,-0.1125393950894854,-0.0145272370427846,0.0007580667734146,2.3914570376232267,-0.0041323602199554
2025-04-30 00:18:32.067815400,5.8818154296875,-0.1340633952496475,-0.0064430441707372,-0.0824142664866138,-0.0142019465565681,0.1414718042314698,0.9800290241068832,0.270060588501908,right,0.0008825063705444,-0.24702955345408,-1.2709873195439576,-9.423625665169954,-0.1128569532384896,-0.0206819232553243,-0.0007272064685821,2.397969195996225,-0.0065352767705917
2025-04-30 00:18:32.107815400,5.9218154296875,-0.1345166813762459,0.017323100939393,-0.0826829790553747,-0.0083743510767817,0.1415799233432697,0.979960006494114,0.2701976790375914,right,0.0039722323417663,-0.2476507783089562,-1.2750586606360972,-9.421570486205816,-0.1131243047862913,-0.0123610524460673,-0.0005084723234176,2.40387593582198,-0.0073703974485397
2025-04-30 00:18:32.147815400,5.9618154296875,-0.1343260058272195,0.0369545929133892,-0.082672891719632,0.0071430942043662,0.1421206719518114,0.9798677127845224,0.2713068389026622,right,0.0053909420967102,-0.2479787414600807,-1.273156626407057,-9.421031557023523,-0.1132530319940747,-0.004655597731471,0.0005632936954498,2.406993921712041,-0.0024542212486267
2025-04-30 00:18:32.187815700,6.001815673828125,-0.1333270209242237,0.0409992933273315,-0.0822860480966193,0.025675605982542,0.142781657916917,0.9797843300674411,0.2727553136967396,right,0.002024233341217,-0.2483036790954906,-1.263640463912487,-9.42152313993275,-0.1134240128833306,-0.0089386217296123,0.0008301883935928,2.4100828276380897,0.0001812279224395
2025-04-30 00:18:32.227815700,6.041815673828125,-0.1320073067225201,0.0385857671499252,-0.0817611848269567,0.030070723965764,0.143452101340387,0.9796933597694856,0.2742482784431054,right,0.0001358985900878,-0.2488844176548839,-1.2510212208360434,-9.421793189045786,-0.1137423634505712,-0.0102420561015605,0.0047598481178283,2.415602906233817,0.0030805170536041
2025-04-30 00:18:32.267815700,6.081815673828125,-0.1306487152070735,0.0276090558618307,-0.0812124630876789,0.0192844755947589,0.1440039089309324,0.9796119239725216,0.2754982304249233,right,-0.0048003196716308,-0.2495985671480793,-1.237994566002488,-9.421771561735868,-0.1141396691406015,-0.0148527268320322,0.0061442106962203,2.4223899360254406,0.0054523944854736
2025-04-30 00:18:32.307815400,6.1218154296875,-0.1301813311364698,0.0349166467785835,-0.081108364833099,6.10928982496e-05,0.1448143947996102,0.979479783485,0.2771863591933349,right,-0.0026112794876098,-0.2500411171696458,-1.233451661875844,-9.421285239523648,-0.1143221556099841,-0.0019300645217299,0.0034712255001068,2.426595132630318,0.0043890178203582
2025-04-30 00:18:32.347815400,6.1618154296875,-0.1297130886777668,0.0422242358326911,-0.0810041984806888,-0.0191622879356145,0.1456248317010937,0.9793469170797844,0.2788750043065723,right,-0.0004224777221679,-0.2504828890906604,-1.228901158964634,-9.42079774826765,-0.1145045530732977,0.0109925987198948,0.0007974430918693,2.4307924381896853,0.0033264756202697
2025-04-30 00:18:32.387815400,6.2018154296875,-0.1299750937126721,0.0183065608143806,-0.0811973643035216,-0.0156083023175597,0.1463852960924887,0.9792474420071484,0.2804143497298106,right,0.0048115849494934,-0.2501264422422394,-1.2314816769771275,-9.421334339362382,-0.1142480739321622,0.0270042605698108,0.0028191283345222,2.427405864491313,0.0050728321075439
2025-04-30 00:18:32.427815700,6.241815673828125,-0.1298803270867711,-0.0014160852879285,-0.0811110115816239,0.0042183334007859,0.146685155709047,0.9792810792593551,0.2810949724390265,right,0.0054641366004943,-0.2489203661956492,-1.230967151583731,-9.424346965181828,-0.1136354958000673,0.0403112955391407,0.0040722116827964,2.415944559278339,0.0040666908025741
2025-04-30 00:18:32.467815700,6.281815673828125,-0.1292972688140786,-0.0096921268850564,-0.0807314987155571,0.0129828602075576,0.146688556185876,0.9793964974379892,0.2812433815238484,right,0.0018209218978881,-0.2473545573363479,-1.2259582373805344,-9.428802775546908,-0.1129037733354496,0.0402756631374359,0.006279818713665,2.401059563226997,0.0033660233020782
2025-04-30 00:18:32.507815700,6.321815673828125,-0.1286121602827224,0.0029539475217461,-0.0803083235340244,0.011780665256083,0.1466607747214099,0.9795099324389928,0.2813320014836133,right,-0.0014553070068359,-0.2459399346728372,-1.219932620415464,-9.432999642714858,-0.1122560956463389,0.0359814316034317,0.0061611086130142,2.3876066458053886,0.0007198750972747
2025-04-30 00:18:32.547815700,6.361815673828125,-0.1279004669543032,0.0115470765158534,-0.0799106145637121,0.0026871003210544,0.1468887788352231,0.9795760684021042,0.2819380986954948,right,-0.0055605173110961,-0.2446739859492849,-1.213603490459174,-9.43685573362112,-0.1116626341655223,0.0339398384094238,0.0034820288419723,2.375563595181704,-0.0006186813116073
2025-04-30 00:18:32.587815400,6.4018154296875,-0.1279475422271608,0.0133017627522349,-0.0798906183822155,-0.0281652435660362,0.1472432178616703,0.9796016584331196,0.2827176860997475,right,-0.0034046173095703,-0.243360800281381,-1.214444690523669,-9.439884726053476,-0.1109834009937742,0.0370221138000488,0.0017686113715171,2.363067101702094,0.00053571164608
2025-04-30 00:18:32.627815400,6.4418154296875,-0.1284272105498298,0.0023858482018113,-0.0800138609969926,-0.0109251383692026,0.1472251557518035,0.9796915089613067,0.28270563594861,right,-0.0010636448860168,-0.241676919177765,-1.2194804927337914,-9.44323403648138,-0.110121930452753,0.0372820608317852,0.0029634535312652,2.347037173399329,0.0009509176015853
2025-04-30 00:18:32.667815700,6.481815673828125,-0.1289066975555809,-0.0085300644859671,-0.080137048268883,0.0063149668276309,0.1472069320207079,0.9797807047942338,0.2826943457600647,right,0.0012743473052978,-0.2399930540483497,-1.2245145413782448,-9.4465541208148,-0.1092603786099461,0.0375420078635215,0.0041581019759178,2.3310006692253054,0.0013667941093444
2025-04-30 00:18:32.707815700,6.521815673828125,-0.1288951522040696,-0.0132922073826193,-0.0800105583888587,0.0077367099002003,0.1467857418433622,0.9799145059504348,0.2818915137242413,right,0.0012510418891906,-0.2388231454091192,-1.224755218266323,-9.449266302382943,-0.1087189335895421,0.0292010065168142,0.003406248986721,2.3198550058327614,0.0001069605350494
2025-04-30 00:18:32.747815700,6.561815673828125,-0.1288826045430775,-0.0180543512105941,-0.0798840239948227,0.0091584529727697,0.1463645229014756,0.9800476630258492,0.2810889491538806,right,0.0012264847755432,-0.2376531874975853,-1.2249846431080251,-9.451966793513298,-0.1081774181603684,0.0208600051701068,0.0026532411575317,2.308705689178407,-0.0011525154113769
2025-04-30 00:18:32.787815700,6.601815673828125,-0.1285166012432081,0.001502064988017,-0.0796447819788282,0.0054175797849893,0.1461761717483816,0.9801265023207624,0.2807761819437416,right,-0.0007586479187011,-0.2369980300423005,-1.2217187001146377,-9.453912666884063,-0.1078948957923427,0.0132176652550697,-0.0011667534708976,2.3024609495699404,-0.0040626972913742
2025-04-30 00:18:32.827815400,6.6418154296875,-0.1282445078934303,0.0372251495718956,-0.0795310719570781,-0.0040910514071583,0.1466308578288357,0.9800972602855464,0.2817579702932483,right,0.0012433528900146,-0.236491663256479,-1.219295272359997,-9.455399690571427,-0.1076270589550712,0.014554401859641,-0.0029628351330757,2.297633675543964,-0.0038656443357467
2025-04-30 00:18:32.867815400,6.6818154296875,-0.1277469377167518,0.063631996512413,-0.0793777285449261,0.0034701600670814,0.1477316132697348,0.9799785501957516,0.2840835134201422,right,0.0054141283035278,-0.2359700680092645,-1.2147428697526454,-9.457192419207097,-0.1073151453294182,0.0206805262714624,-0.0010170489549636,2.2926605633065105,-0.0020703673362731
2025-04-30 00:18:32.907815400,6.7218154296875,-0.1267873295812028,0.0521951913833618,-0.0789987114786579,0.0169594809412956,0.1489648870839012,0.9798673255970812,0.2867413291881031,right,0.0035261511802673,-0.2352035362161421,-1.2058889705590905,-9.460094570389389,-0.1069047047666332,0.0228795707225799,-0.000868022441864,2.2853511170759795,0.0024249106645584
2025-04-30 00:18:32.947815700,6.761815673828125,-0.1258063374399068,0.0211741011589765,-0.0785617549225785,0.0149492044001817,0.1496500338968111,0.9798269472801172,0.2882728553165657,right,-0.0016329288482666,-0.2346376270219709,-1.196770209884271,-9.462554238501191,-0.1066397588472507,0.0177947711199522,0.000644527375698,2.2799539342075583,0.0030394047498703
2025-04-30 00:18:32.987815700,6.801815673828125,-0.1258063374399068,-0.015799717977643,-0.0785617549225785,-0.004511022940278,0.1496500338968111,0.9798269472801172,0.2882728553165657,right,-0.0044414401054382,-0.2346376270219709,-1.196770209884271,-9.462554238501191,-0.1066397588472507,0.0020677037537097,0.0039761289954185,2.2799539342075583,0.0023282915353775
2025-04-30 00:18:33.027815700,6.841815673828125,-0.1258842430734022,-0.0175134241580963,-0.0785463731565159,-0.006181058473885,0.149307412498263,0.979891081342795,0.2875762395316169,right,-0.0039742588996887,-0.2343941194066045,-1.197577069287747,-9.463011919140817,-0.1065417410905339,0.0050758104771375,0.0033400431275367,2.2776311903484165,-0.0027330219745635
2025-04-30 00:18:33.067815400,6.8818154296875,-0.1259531994057069,-0.0018718466162681,-0.0785472009362283,-0.0131008140742778,0.1491870999267355,0.9799249498464716,0.2873370345084776,right,-0.004123568534851,-0.234093922272296,-1.1983154665648936,-9.463606962424516,-0.106398586071149,0.0045688650570809,0.0024008378386497,2.2747677637413144,-0.003323808312416
2025-04-30 00:18:33.107815400,6.9218154296875,-0.1258295153962321,0.0204715393483638,-0.0785091402506177,-0.0042621241882443,0.1494466062221292,0.9798950087936432,0.2878846167053595,right,-0.0007137656211853,-0.2339962478549057,-1.1971727993357926,-9.463975795736909,-0.1063383597310714,0.0051434938795864,0.0013710409402847,2.273836035849154,-0.0034073740243911
2025-04-30 00:18:33.147815400,6.9618154296875,-0.1253830447622069,0.0314383059740066,-0.0783463707066225,-0.0043372060172259,0.1500087516722982,0.9798297749796018,0.2890857773528845,right,-0.0012641549110412,-0.2338797228248846,-1.192980462212488,-9.464771914550662,-0.1062674746124471,0.0024015726521611,-0.0006447285413742,2.2727244213454423,-0.0015984773635864
2025-04-30 00:18:33.187815700,7.001815673828125,-0.1251474679802445,0.0307692382484674,-0.0783035964881323,0.0020859534852206,0.1506369394790555,0.9797378621374074,0.290391429001532,right,0.0016330480575561,-0.2339277029709328,-1.190737140265107,-9.46494434850812,-0.106257605940066,-0.0031170831061899,-0.0006654560565948,2.273182101985067,0.001500204205513
2025-04-30 00:18:33.227815700,7.041815673828125,-0.1248457491698331,0.0133942645043134,-0.0782118049420371,0.0087177492678165,0.1509794934377238,0.979679258060609,0.2911116810170935,right,-7.13467597961e-05,-0.2341876324368687,-1.1878076626844702,-9.46471696949303,-0.1063797720353098,-0.0041448934935033,-0.0001602545380592,2.2756616438411177,0.0015256255865097
2025-04-30 00:18:33.267815700,7.081815673828125,-0.1248457491698331,0.0042651677504181,-0.0782118049420371,0.0053532375022768,0.1509794934377238,0.979679258060609,0.2911116810170935,right,-0.0003795027732849,-0.2341876324368687,-1.1878076626844702,-9.46471696949303,-0.1063797720353098,-0.0049313297495245,-0.0002867430448532,2.2756616438411177,0.0019354075193405
2025-04-30 00:18:33.307815400,7.1218154296875,-0.1248457491698331,0.0008085134904831,-0.0782118049420371,-0.0011250018142163,0.1509794934377238,0.979679258060609,0.2911116810170935,right,-0.0011028051376342,-0.2341876324368687,-1.1878076626844702,-9.46471696949303,-0.1063797720353098,-0.0035203520674258,-0.0001482591032981,2.2756616438411177,-0.0006748884916305
2025-04-30 00:18:33.347815400,7.1618154296875,-0.1247057582086779,0.0060004126280546,-0.0781920985555163,0.0044962610118091,0.1510364521965932,0.979637413194233,0.2912144359658248,right,-0.0009600520133972,-0.2348230509213075,-1.1863025918837635,-9.463446218904853,-0.1066982432604472,-0.0102466400712728,0.0007272958755493,2.281722405184805,-0.0012278407812118
2025-04-30 00:18:33.387815400,7.2018154296875,-0.1241488315636333,0.0180758833885192,-0.077994111637368,0.0146053805947303,0.1512669343730246,0.9795774764043574,0.2917140939499159,right,-0.0006073713302612,-0.2355266006439342,-1.1808329283010215,-9.462509814837574,-0.1070661711819718,-0.0096600512042641,0.001325748860836,2.2884319858260453,-0.0002295523881912
2025-04-30 00:18:33.427815700,7.241815673828125,-0.1235215982330296,0.0164150632917881,-0.0777576552521125,0.0163306146860122,0.1515412486410447,0.9795211752467066,0.2923178324927807,right,0.0011544227600097,-0.2360869521045905,-1.1747392876010387,-9.461974977308511,-0.1073651827265737,-0.0062453360296785,0.0030189752578735,2.29377510041967,0.0018854886293411
2025-04-30 00:18:33.467815700,7.281815673828125,-0.1229056202212455,0.0007370952516794,-0.0774974645872421,0.0028937151655554,0.1517363543970639,0.9794950204392316,0.2927727792617455,right,-0.0017465353012084,-0.2363352749241605,-1.168840804146975,-9.462131044653058,-0.1075161086412428,-0.0070157316513359,0.0022715404629707,2.2961427063338458,0.0055184066295623
2025-04-30 00:18:33.507815700,7.321815673828125,-0.122720582134796,-0.0160579159855842,-0.0774091959850893,0.0055580344051122,0.1515297986358076,0.9795111952731764,0.2923554497629409,right,-0.0002201199531555,-0.2366967046618737,-1.166988308148086,-9.461523141887785,-0.1077236893465418,-0.0119441542774438,0.0016683638095855,2.299588316743076,0.0043093711137771
2025-04-30 00:18:33.547815700,7.361815673828125,-0.1225729118370356,-0.0335500910878181,-0.0773084754083142,0.0030520814470946,0.1509288741084286,0.9795751492459884,0.2911201851223824,right,-0.0015865564346313,-0.2372552568828662,-1.1654338452477009,-9.460418980038163,-0.1080567933110839,-0.0134855257347226,0.0005302354693412,2.304912872766703,0.0018858462572097
2025-04-30 00:18:33.587815400,7.4018154296875,-0.1225510861802505,-0.0317027047276496,-0.0772414273986554,0.0115675963461399,0.1502013506111447,0.979665971426995,0.289621314400126,right,0.0015075802803039,-0.2376180532245845,-1.165125071559474,-9.459613508874178,-0.1082944348823194,-0.0066353902220726,0.001537375152111,2.3083707581356165,-0.0018917471170425
2025-04-30 00:18:33.780723500,7.594723388671875,-0.1187419771208998,-0.0157456118613481,-0.0752194096845063,-0.0072771715931594,0.148866900586823,0.9800116797084272,0.2873392893442752,right,-0.0061326920986175,-0.2371422608210097,-1.129214019418508,-9.46507294332385,-0.1084326200557245,-0.004421878606081,-0.0015975954011082,2.303835745054484,0.0016592496540397
2025-04-30 00:18:33.820650200,7.634650146484375,-0.1202452848739655,-0.0622996799647808,-0.0759233572589481,-0.0464413613080978,0.1482407988841224,0.9800202472587636,0.2858649905350776,right,-0.000311262323521,-0.2378461789252004,-1.1432468556199222,-9.46175227446854,-0.1087222997826549,-0.034728355705738,0.0018289478030055,2.3105450334347784,0.0006105426582507
2025-04-30 00:18:33.860650200,7.674650146484375,-0.1219906618841816,-0.0748544260859489,-0.0766262820976327,-0.0174738112837076,0.1461886950754112,0.9801953445942244,0.2814243906207247,right,0.0022487640380859,-0.2391964295231732,-1.1593787099272013,-9.456637123411893,-0.1094262587822954,-0.0353906080126762,0.0018300637602806,2.3234115292705595,0.0008444786071777
2025-04-30 00:18:33.900650200,7.714650146484375,-0.1237428077444191,-0.0874091759324073,-0.077328815683977,0.0114937387406826,0.1441358393118025,0.9803654615190932,0.2769799756046299,right,0.0048052668571472,-0.2405391901296526,-1.1755601755298672,-9.451486901041864,-0.1101296550469041,-0.0360528640449047,0.001836247742176,2.336202621782571,0.0010861158370971
2025-04-30 00:18:33.940650500,7.754650390625,-0.1239735829461763,-0.0914152264595031,-0.0772830822341818,0.0327827930450439,0.1420904520793958,0.980585351721728,0.2727280627670703,right,0.0005292296409606,-0.2417238684289006,-1.177398277677223,-9.448462000262737,-0.1108594752645403,-0.0487465932965278,0.0012385696172714,2.3474841865144667,0.0017477422952651
2025-04-30 00:18:33.980650500,7.794650390625,-0.1233077330307576,-0.0619558617472648,-0.0769012694825383,0.0351395644247531,0.1404312474148625,0.98071533354668,0.2693235099537867,right,-0.0004332661628723,-0.2438502203583444,-1.1704901787891984,-9.444268640226126,-0.1120824925629056,-0.0538247004151344,0.002128392457962,2.367725010510534,-0.0010765343904495
2025-04-30 00:18:34.020650500,7.834650390625,-0.1226490161233134,-0.0324964933097362,-0.0765191265996513,0.0374963358044624,0.1387714726193135,0.9808410714932077,0.2659187314021217,right,-0.0014020204544067,-0.2459787970258263,-1.1636495921794323,-9.440014489912986,-0.1133050188618154,-0.058902807533741,0.0030250772833824,2.3879762097701427,-0.0039018392562866
2025-04-30 00:18:34.060650200,7.874650146484375,-0.1216716800571888,-0.0070159304887056,-0.0760639131586777,0.0258199572563171,0.137981875452204,0.9808677298945344,0.264339685701302,right,-0.0016356706619262,-0.247824666334263,-1.1538860307950525,-9.436755780377984,-0.1143399757784392,-0.0406048670411109,0.0074635967612266,2.405529109856486,-0.0014130622148513
2025-04-30 00:18:34.259842300,8.07384228515625,-0.1215404386347721,0.018613863736391,-0.0762130309739656,-0.0697437077760696,0.1398178010635176,0.980613028055294,0.2680999097804092,right,-0.0010965631809085,-0.2478027502358085,-1.1526538586515933,-9.436959778517483,-0.114195170746364,-0.0256935246288776,0.0081494525074958,2.405320727802813,-0.0031034767162054
2025-04-30 00:18:34.299768000,8.11376806640625,-0.1234441519665992,0.0107275852933526,-0.0772860515973244,-0.0592516809701919,0.1403142138790971,0.9803865091958484,0.2688200523428224,right,-0.0016110292635858,-0.2493783318762045,-1.1701489641360938,-9.430975443410873,-0.1148082436160747,-0.0597383938729763,0.0042895870283246,2.420296909268945,0.0050728749483823
2025-04-30 00:18:34.339768000,8.15376806640625,-0.1248119598819035,0.0230072643607854,-0.0781307155128895,-0.0364092290401458,0.1408721879039411,0.9801415371289012,0.2697090062589527,right,0.0009107589721679,-0.251343324641897,-1.182453296044469,-9.424629289254543,-0.1156426910355416,-0.0436815991997718,0.0019318163394927,2.43896624616459,0.0040389001369476
2025-04-30 00:18:34.379768000,8.19376806640625,-0.1261786320632777,0.0352869443595409,-0.078975231205402,-0.0135667771100997,0.1414298811442209,0.9798947242446808,0.2705955465948719,right,0.0034270882606506,-0.2533094432605268,-1.1947267944231628,-9.418228774562476,-0.1164769227131568,-0.0276248063892126,-0.0004291012883186,2.457636605973541,0.0030047893524169
2025-04-30 00:18:34.419768000,8.23376806640625,-0.1262174752193553,0.0410139225423336,-0.0791539549036466,0.0059281382709741,0.1421962598327476,0.9797101774091233,0.272103113827539,right,0.0010272860527038,-0.2544476370406036,-1.1947397269699722,-9.415401442182064,-0.1169734077626895,-0.0150559823960065,-0.0011951401829719,2.4684409085825085,0.0040923655033111
2025-04-30 00:18:34.459768000,8.27376806640625,-0.1255934535884795,0.0444611720740795,-0.0789886403887139,0.0198828931897878,0.1429581485691938,0.979571453458403,0.2736995459824194,right,0.0008544325828552,-0.2551867024921949,-1.188635199549794,-9.414332351645829,-0.1173175928098336,-0.0048631727695465,-0.0006514862179756,2.475454586736858,0.0023824274539947
2025-04-30 00:18:34.499768000,8.31376806640625,-0.1246101760428956,0.0201000366359949,-0.0786298077840015,0.01419866271317,0.1436272120254825,0.9794666280661294,0.2751574074631337,right,-0.0022195577621459,-0.2557687809586632,-1.1791984589669853,-9.41406522514224,-0.1176163068681254,-0.0136366197839379,0.0030626356601715,2.4809774418115613,0.008538544178009
2025-04-30 00:18:34.539768000,8.35376806640625,-0.1241873969249767,0.0056466832756996,-0.0784869069716504,0.0012780111283063,0.1438969783478671,0.9794100170373972,0.2757382843872025,right,-0.0030513405799865,-0.2562366148333777,-1.1750743647743016,-9.413410560625792,-0.1178534937991645,-0.0087335985153913,0.0023089051246643,2.4854157165199515,0.0056059956550598
2025-04-30 00:18:34.579768000,8.39376806640625,-0.1247697565521828,-0.022029360756278,-0.0787838837123266,-0.0270781107246875,0.1437900272819584,0.9793777263177602,0.2754288726910598,right,-0.0011374950408935,-0.2567057495502123,-1.180410976561904,-9.41156639406383,-0.1180540216050199,-0.0171686001121997,0.0022132992744445,2.4898659739270803,0.006071001291275
2025-04-30 00:18:34.619768000,8.43376806640625,-0.1259548393076963,-0.0131362881511449,-0.0793464698633991,-0.0085989460349082,0.14337288540314,0.9793591066457856,0.2744038345711339,right,0.0037888884544372,-0.2573769843920794,-1.191353372467309,-9.408500576752424,-0.1183388953983006,-0.0094501925632357,0.0021101087331771,2.496232294088602,-0.0025299787521362
2025-04-30 00:18:34.659768000,8.47376806640625,-0.1266043148510095,0.0051659606397151,-0.0796711263652513,-0.0077847405336797,0.1431277990370794,0.9793313964344325,0.2737942280186765,right,-0.0003784894943237,-0.2580491442710215,-1.197251636725664,-9.406058444297312,-0.1186464925859466,-0.0152003178372979,0.0009655430912971,2.502606213034689,-0.0053176432847976
2025-04-30 00:18:34.699768000,8.51376806640625,-0.1268307245497656,0.0238529480993747,-0.0798737345430107,-0.0143197709694504,0.1434354478489991,0.9792196771874762,0.2743530908741435,right,-0.0008451342582702,-0.2589701583614202,-1.19908915435113,-9.403496484854816,-0.1190599733461588,-0.0277919806540012,0.002162329852581,2.511338093283772,-0.0017019808292388
2025-04-30 00:18:34.739768000,8.55376806640625,-0.1266054686698285,0.0300348531454801,-0.0798852823349528,-0.011881886050105,0.1441393090563109,0.9790866391831236,0.2757925094121777,right,-0.0012965202331542,-0.2595353884479777,-1.1967914718680084,-9.402357251691818,-0.1192960357468202,-0.0152467573061585,0.0006840229034423,2.51669582092464,0.0017986595630645
2025-04-30 00:18:34.779768000,8.59376806640625,-0.126379328376462,0.0362167581915855,-0.0798967856128823,-0.0094440011307597,0.1448431106819549,0.9789530081177648,0.277232312746327,right,-0.0017480850219726,-0.2601002944659608,-1.1944858252741395,-9.40121568044126,-0.1195320277387123,-0.0027015330269932,-0.0007950961589813,2.522049749173224,0.0052997469902038
2025-04-30 00:18:34.819768000,8.63376806640625,-0.1264910872752174,0.0169645436108112,-0.0800334372438178,-0.0083116423338651,0.1453739494599141,0.9788518736484456,0.2782901271556497,right,0.0014306902885437,-0.2603905070667969,-1.1954440758470446,-9.40035526421964,-0.1196240038861056,-0.0034387977793812,0.0017037540674209,2.5247999246641992,0.0069984197616577
2025-04-30 00:18:34.859768000,8.67376806640625,-0.1263282322589239,0.0017109969630837,-0.0799709480151065,0.0125992186367511,0.1454120638798732,0.9788393822784666,0.2783796744339383,right,0.0024291276931762,-0.2605743040874943,-1.1938546877637506,-9.400089306759831,-0.1197224152507037,0.0085130454972386,0.002102293074131,2.5265417998954653,0.0005488991737365
2025-04-30 00:18:34.899768000,8.71376806640625,-0.1257928593904285,-0.0016819911543279,-0.079677119317391,0.0124924974516034,0.1453166072069875,0.978895506254797,0.2782674917732666,right,-0.00122731924057,-0.2601858459128461,-1.188944996151328,-9.40170024908781,-0.1195752397885482,0.0185972303152084,0.0014400705695152,2.5228604810342192,-0.0021766424179077
2025-04-30 00:18:34.939768000,8.75376806640625,-0.1255965614111294,-0.0022198418155312,-0.0795437328820893,0.0007571233436465,0.1452066355815035,0.9789445340838648,0.2780850449976046,right,-0.0007916688919067,-0.2597768723604615,-1.1872286206874996,-9.402956386628746,-0.1193961217280367,0.0107160042971372,-0.0003840774297714,2.518984808644652,-0.0010659992694854
2025-04-30 00:18:34.979768000,8.79376806640625,-0.1255965614111294,-0.0161417312920093,-0.0795437328820893,-0.0035602995194494,0.1452066355815035,0.9789445340838648,0.2780850449976046,right,0.0022380948066711,-0.2597768723604615,-1.1872286206874996,-9.402956386628746,-0.1193961217280367,-0.0065810531377792,4.46513295173e-05,2.518984808644652,0.0025147795677185
2025-04-30 00:18:35.019768000,8.83376806640625,-0.1259556173783533,-0.0234920177608728,-0.079661374414217,0.00877589546144,0.1446591396132005,0.9790024614259348,0.2769144979671026,right,0.0039820671081542,-0.2599599372135814,-1.1905467322595418,-9.40207200500965,-0.1195065144695425,-0.0072725368663668,0.0022303760051727,2.520719669613242,0.0008569657802581
2025-04-30 00:18:35.059768000,8.87376806640625,-0.1256922128083588,-0.0166348870843648,-0.0794690467274858,0.0139704812318086,0.1441353247382745,0.9790893158392374,0.2758775960694368,right,-0.000478982925415,-0.2599378982089071,-1.188077127275616,-9.402440253800153,-0.1195559686675972,-0.0012911111116409,0.0015004128217697,2.520510703037679,-0.0020354688167572
2025-04-30 00:18:35.099768000,8.91376806640625,-0.1255588939577444,-0.0122299753129482,-0.0793665789614775,0.0030476618558168,0.14378540338036,0.979140057764284,0.2751757741729601,right,-0.0022124648094177,-0.2600125094075426,-1.186800020011887,-9.402412196749449,-0.1196300405844128,-0.0053728651255369,0.0024241283535957,2.5212179745242,-0.0022871792316436
2025-04-30 00:18:35.139768000,8.95376806640625,-0.1256600759043975,0.005189536139369,-0.079393453203436,-0.0040240152738988,0.1436711871181078,0.9791622194572738,0.2749359765499146,right,-0.002131164073944,-0.2598821426763506,-1.1877926112458108,-9.402617948454616,-0.1195683135926259,0.0053690653294324,0.0020305439829826,2.5199822952494024,-0.0041801333427429
2025-04-30 00:18:35.179768000,8.99376806640625,-0.1258225870509324,0.010007731616497,-0.0794892717934664,-0.0121230278164148,0.1438799524492202,0.9791351236633437,0.2753484764717821,right,-0.0008224844932556,-0.2597506832631329,-1.1893621986500915,-9.402753557533025,-0.1194757371902625,-0.0054935440421104,0.0036792978644371,2.518736386841536,-0.0004063844680786
2025-04-30 00:18:35.219768000,9.03376806640625,-0.1258225870509324,0.0079385582357645,-0.0794892717934664,-0.0070249857380986,0.1438799524492202,0.9791351236633437,0.2753484764717821,right,-0.0013544559478759,-0.2597506832631329,-1.1893621986500915,-9.402753557533025,-0.1194757371902625,-0.0081970579922199,0.0036888793110847,2.518736386841536,-8.66949558258e-05
2025-04-30 00:18:35.259768000,9.07376806640625,-0.1261369584030537,0.0022847196087241,-0.0796971937442066,-0.0187477357685565,0.1441554445689002,0.9790607327733792,0.2758561718582062,right,-0.0012467503547668,-0.2601210120151878,-1.1922006369464098,-9.401452996328471,-0.1196146051913429,-0.0119663951918482,0.0025927498936653,2.522246148528158,0.0020845234394073
2025-04-30 00:18:35.299768000,9.11376806640625,-0.1270074398362168,-0.0043188906274735,-0.0801454416822117,-0.0151053322479128,0.1441637414482005,0.9790030736525736,0.2757463689022854,right,0.0044344663619995,-0.2605697814216,-1.200240443278104,-9.399287927249071,-0.1197764409698811,-0.0058421664871275,0.0021979436278343,2.526498837536573,-0.0024065375328063
2025-04-30 00:18:35.339768000,9.15376806640625,-0.1270074398362168,0.0123709049075841,-0.0801454416822117,0.0071690334007143,0.1441637414482005,0.9790030736525736,0.2757463689022854,right,0.0012112855911254,-0.2605697814216,-1.200240443278104,-9.399287927249071,-0.1197764409698811,-0.0084422640502452,-0.0009199827909469,2.526498837536573,-0.0031239092350006
2025-04-30 00:18:35.379768000,9.19376806640625,-0.1262844385624655,0.0303776022046804,-0.0798978210752108,0.008713524788618,0.1445658866686107,0.9789111782036374,0.2766184507607084,right,-0.0005374550819396,-0.2614123507635542,-1.193175911719352,-9.398037634927034,-0.12020711541818,-0.0241818614304065,-0.0004758983850479,2.534481652984023,-0.0004089772701263
2025-04-30 00:18:35.419768000,9.23376806640625,-0.1254779968438683,0.0528537482023239,-0.0796629138681256,0.0102627631276845,0.1453252274686749,0.9787594952562768,0.2782254470964067,right,0.0017586946487426,-0.262391641029574,-1.1852853776652366,-9.396530152973533,-0.120681848480356,-0.0137210246175527,0.0007857605814933,2.543757723112404,-0.0006109178066253
2025-04-30 00:18:35.459768000,9.27376806640625,-0.1242104146450945,0.0676531717181205,-0.0792266049448731,0.0214826464653015,0.1464895136075862,0.9785923255238188,0.2807394537891569,right,-0.0005137920379638,-0.2628869694329005,-1.1732173387307674,-9.39677389860153,-0.1209174010437536,0.0003278497606515,0.0015396550297737,2.548448803538084,0.0019603669643402
2025-04-30 00:18:35.499768000,9.31376806640625,-0.1232179054231758,0.0470141246914863,-0.0789108942967631,0.0073009897023439,0.1475279074627123,0.9784307946692749,0.2829612308610161,right,-0.003234326839447,-0.2634277528929724,-1.1637207577195017,-9.396564055243134,-0.1211677229682798,-0.0114083169028162,0.0056002810597419,2.5535695075526834,0.0025734901428222
2025-04-30 00:18:35.539768000,9.35376806640625,-0.1227521446556333,0.0323143154382705,-0.0788244645478893,-0.0125518962740898,0.1482206819572857,0.9782859071127852,0.2844001888289857,right,-0.0046993494033813,-0.2642481824270601,-1.15908717963472,-9.39502267102003,-0.1215476923398693,-0.0200243163853883,0.0046194642782211,2.5613366344228385,0.0003873407840728
2025-04-30 00:18:35.579768000,9.39376806640625,-0.122538255112727,0.0359849110245704,-0.0788896731866032,-0.019536193460226,0.1490054243082776,0.9780997789572584,0.2859844906648566,right,-0.0043821930885314,-0.2653545535968521,-1.1567306065712124,-9.39245252827108,-0.1220435048553313,-0.0297047365456819,0.0012396574020385,2.5718083440765738,0.0021081566810607
2025-04-30 00:18:35.619768000,9.43376806640625,-0.123370668235197,0.0327987223863601,-0.0795240507347524,-0.0203590430319309,0.1497961261070457,0.9778132868341852,0.2874083648788482,right,-0.0005623698234558,-0.2674578218388854,-1.163880332195386,-9.386097606286404,-0.1229558413029649,-0.0389897897839546,0.0008802339434623,2.5917066382452845,0.0023982524871826
2025-04-30 00:18:35.659768000,9.47376806640625,-0.1242004431471803,0.0296125300228595,-0.0801582730831159,-0.0211818926036357,0.1505865779383762,0.9775249028740588,0.288831335722465,right,0.0032526850700378,-0.2695622509719091,-1.1709900911353528,-9.379695338028668,-0.1238679447382559,-0.0482748448848724,0.000516727566719,2.6116046401530504,0.002688318490982
2025-04-30 00:18:35.699768000,9.51376806640625,-0.1243127776948099,0.0393682569265365,-0.0804037698851294,0.0011444631963968,0.1513287327914479,0.9773048340704522,0.2902717984293673,right,0.0034964680671691,-0.2710673343304714,-1.171555031541735,-9.375652784639597,-0.1245390080067254,-0.0206970330327749,-0.0007629841566085,2.625828395816684,0.0020865499973297
2025-04-30 00:18:35.739768000,9.55376806640625,-0.1234177336365003,0.041009422391653,-0.0801240134625965,0.0184751395136117,0.1521845419126049,0.977155991525854,0.2921108094394603,right,0.0003142952919006,-0.271702348947661,-1.1629574451968072,-9.375041374742985,-0.1248441668069403,-0.0035918541252613,-0.0003334805369377,2.631827928492427,0.0066691637039184
2025-04-30 00:18:35.779768000,9.59376806640625,-0.1223529871736275,0.022466093301773,-0.07969114811498,0.0196864996105432,0.1527781668645839,0.9770923635441684,0.2934600199481402,right,-0.0006834268569946,-0.2717477010723382,-1.152960148121789,-9.376155473464728,-0.1248936569140855,0.0102503346279263,0.0022870153188705,2.632256383037567,0.0051634311676025
2025-04-30 00:18:35.819768000,9.63376806640625,-0.1209075875824666,0.0284293442964553,-0.0790292781495699,0.0291031189262866,0.1532985766592325,0.9770889629690552,0.2947307034552402,right,-0.0032854676246643,-0.2712356557267112,-1.139569043890014,-9.379148810061812,-0.1247030614972748,0.0208444893360137,0.0034524798393249,2.6274188798785207,0.0036517977714538
2025-04-30 00:18:35.859768000,9.67376806640625,-0.1200172886341338,0.0006699487566947,-0.0785951350148467,0.0051079373806715,0.1535660038272489,0.9771148480509412,0.2954160644153145,right,-0.0039952993392944,-0.2706259842457201,-1.1314099220275875,-9.381748178905248,-0.1244457643146884,0.0172778479754924,0.0052987188100814,2.6216581243947146,0.0025958120822906
2025-04-30 00:18:35.899768000,9.71376806640625,-0.1198732079057148,-0.0211978517472744,-0.0784650958760247,-0.0082326354458928,0.1534540298177425,0.9771842529464552,0.2952331807518816,right,-0.0021626353263854,-0.2699238132122251,-1.130278068453446,-9.383736722373962,-0.1241201125837802,0.0147094344720244,0.0039717406034469,2.6150220473811028,0.0017233192920684
2025-04-30 00:18:35.939768000,9.75376806640625,-0.1198527405033709,-0.0146632501855492,-0.0783447229974384,0.0064562773331999,0.1530023500453611,0.9773100827868508,0.294343502558602,right,-0.0005667805671691,-0.2691192142275372,-1.1303372512947767,-9.38584567735195,-0.1237624621081834,0.019866406917572,0.0029035359621047,2.6074165408134458,-0.0025080144405364
2025-04-30 00:18:35.979768000,9.79376806640625,-0.1198315327781032,-0.0081286486238241,-0.0782243234104434,0.0211451910436153,0.1525506915019262,0.9774356469138704,0.2934541935252311,right,0.0010285377502441,-0.2683146739455033,-1.130388616155833,-9.387949371632931,-0.1234047693873239,0.025023378431797,0.0018345266580581,2.5998098652020096,-0.0067391693592071
2025-04-30 00:18:36.019768000,9.83376806640625,-0.1191989478302544,0.0066025918349623,-0.0778485547782496,0.0171222910284996,0.1523202505218228,0.9775335591277974,0.2930882468374877,right,-0.0024641156196594,-0.2676701495209165,-1.1246486842643468,-9.39032428407073,-0.1231515008965094,0.0125301610678434,0.0002117231488227,2.5937147631973025,-0.0076183378696441
2025-04-30 00:18:36.059768000,9.87376806640625,-0.1185329642507209,0.0184747762978076,-0.0775179934590429,0.010978328064084,0.1525073456338705,0.9775581336695062,0.2935751460703844,right,-0.0024062395095825,-0.2671580871526882,-1.118551536433026,-9.392388815385102,-0.1229324759517386,0.0098502030596137,0.0005493313074111,2.5888717070803047,-0.002357393503189
2025-04-30 00:18:36.099768000,9.91376806640625,-0.1183653204463409,0.005220697261393,-0.0774133902719552,-0.0049781054258346,0.1526727087496987,0.9775826031524814,0.2939612587786757,right,-0.0006816983222961,-0.2664814833384896,-1.117183609080687,-9.39431364596784,-0.1225988084908696,0.0173047147691249,0.0015753433108329,2.5824711923882364,6.95884227752e-05
2025-04-30 00:18:36.139768000,9.95376806640625,-0.1184004977794845,0.0189841017127037,-0.0773542074655517,0.0109910015016794,0.1527162910641491,0.9776569753671138,0.2940947003018159,right,0.0022963285446166,-0.2652489533531424,-1.117889200066775,-9.39742797859609,-0.1219870740607642,0.0392917916178703,-0.001100480556488,2.5708091039061545,-0.0028699338436126
2025-04-30 00:18:36.179768000,9.99376806640625,-0.1183678972756074,0.012527871876955,-0.077289861436295,0.0111635960638523,0.1528609340737254,0.9777021448645834,0.2944344588534933,right,0.0043052434921264,-0.2642428062413803,-1.1178877387620507,-9.400027931961416,-0.1214834351852101,0.0228165201842784,-0.0003754571080207,2.561285781018436,-0.0001823604106903
2025-04-30 00:18:36.219768000,10.03376806640625,-0.1179109036244577,0.0236694570630788,-0.0770737842480526,0.023669833317399,0.1530955986563237,0.9777039929140487,0.2949862664000796,right,0.0055902600288391,-0.263862565723019,-1.1137063614241778,-9.401504434254765,-0.1213107735627137,0.0088549014180898,-0.0019432678818702,2.5576862952217456,0.0004623234272003
2025-04-30 00:18:36.259768000,10.07376806640625,-0.1170853642166766,0.0030329227447509,-0.0767190449911082,0.0143219390884041,0.153343002681081,0.97767725654329,0.2955878596211758,right,0.0013803243637084,-0.2640410511051546,-1.105891303759068,-9.401966791069508,-0.1214383450406783,-0.0003887843340635,0.0016313418745994,2.559375855743885,0.0033623278141021
2025-04-30 00:18:36.299768000,10.11376806640625,-0.1167835930607559,-0.0185396876186132,-0.0765393913308042,0.0176390931010246,0.153061176870622,0.9777295079849048,0.2950484922932149,right,0.0007984638214111,-0.2640500966562056,-1.1030513310927896,-9.40227717219293,-0.1214865588912918,0.0070165926590561,0.0047003179788589,2.559461488200724,0.0013817250728607
2025-04-30 00:18:36.339768000,10.15376806640625,-0.1172524996430429,-0.038541030138731,-0.0766494998989325,0.0013053342700004,0.1521625395802077,0.9778601410644088,0.29315444238231,right,-0.0009735226631164,-0.2639905449389283,-1.107477769232914,-9.401910676968097,-0.1214941392231594,-0.002212319523096,0.0051673129200935,2.5588977168381213,0.0003494322299957
2025-04-30 00:18:36.379768000,10.19376806640625,-0.117721302547952,-0.0585423745214939,-0.0767595461474413,-0.0150284264236688,0.1512637714856913,0.977990068428872,0.2912604784415406,right,-0.002745509147644,-0.2639301706007125,-1.1119034767206757,-9.401543597221377,-0.1215016209827503,-0.0114412326365709,0.0056342408061027,2.5583263466909525,-0.0006821453571319
2025-04-30 00:18:36.419768000,10.23376806640625,-0.1186431832153864,-0.0440637096762657,-0.0771057441623673,-0.0243186224251985,0.1503758845368518,0.978087225028822,0.2893225047812631,right,4.74452972412e-05,-0.2641244251901292,-1.1205112191334363,-9.40002091769874,-0.1216018684893017,-0.0134278573095798,0.0040619298815727,2.5601652525559064,-0.0021587908267974
2025-04-30 00:18:36.459768000,10.27376806640625,-0.1192622653143551,-0.0179931186139583,-0.0773488636133022,-0.0044814553111791,0.1498082142029696,0.9781402781635516,0.2880750567081323,right,0.0038002729415893,-0.2643658067564539,-1.1262568501133472,-9.398711588665842,-0.1217218917551379,-0.0082201370969414,0.0047576501965522,2.562450148622692,-0.004297137260437
2025-04-30 00:18:36.499768000,10.31376806640625,-0.1186547839911706,0.014227982610464,-0.0770589495849966,0.0182451698929071,0.1498065747673948,0.978155442998202,0.2881455782404398,right,0.0009142756462097,-0.2644089139578572,-1.1205340154871344,-9.399284420117736,-0.1217858045177005,-0.0002251444384455,0.0035649985074996,2.5628581449016927,-0.0031279027462005
2025-04-30 00:18:36.539768000,10.35376806640625,-0.1179492420371857,0.0133398249745368,-0.0767777090682015,0.0148381572216749,0.150260221223987,0.9781044042540344,0.2891598040347121,right,0.0002559423446655,-0.2644393939919849,-1.1138929700374602,-9.399995198735594,-0.121814664278962,0.0010123316897079,0.0028536543250083,2.563146606454253,-0.0016224384307861
2025-04-30 00:18:36.579768000,10.39376806640625,-0.1172436493842257,0.0124516673386096,-0.0764964418429981,0.0114311445504426,0.150713837889745,0.9780530689793632,0.2901740856791219,right,-0.0004026293754577,-0.2644691659166701,-1.107251193935424,-9.400703054744003,-0.1218434817949617,0.0022498078178614,0.0021422505378723,2.5634286382660267,-0.0001163482666015
2025-04-30 00:18:36.619768000,10.43376806640625,-0.1162949427130534,0.0131587702780961,-0.076071668319041,0.0216124765574932,0.1510366648089538,0.9780388832466658,0.2909573254313513,right,-0.002345860004425,-0.264343131565385,-1.0983696760825812,-9.402069666922092,-0.1218234033606314,0.001294081332162,-0.0004758313298225,2.562235629089177,0.0032978355884552
2025-04-30 00:18:36.659768000,10.47376806640625,-0.115873963187215,7.45616853237e-05,-0.0759048020917327,0.0027717221528291,0.1511366968997938,0.9780118445870476,0.2912006183423987,right,0.0003387928009033,-0.2646986316526423,-1.09430607990548,-9.40162601480782,-0.1220202020636238,-0.0100918784737586,-0.0004649683833122,2.5656004293471573,0.0030113458633422
2025-04-30 00:18:36.699768000,10.51376806640625,-0.115873963187215,-0.0012735966593027,-0.0759048020917327,0.0108250863850116,0.1511366968997938,0.9780118445870476,0.2912006183423987,right,0.0049037337303161,-0.2646986316526423,-1.09430607990548,-9.40162601480782,-0.1220202020636238,0.0006821360439062,0.0007474273443222,2.5656004293471573,0.0015558302402496
2025-04-30 00:18:36.739768000,10.55376806640625,-0.1152485538735993,-0.0080816261470317,-0.0755980862054269,0.0129536725580692,0.1510544343890967,0.9780377090539843,0.2911077632636844,right,0.0008944272994995,-0.264769048270341,-1.0884052583638577,-9.40212928815484,-0.1221054755188865,0.0030528290662914,0.0015443041920661,2.5662670765623448,0.003059834241867
2025-04-30 00:18:36.779768000,10.59376806640625,-0.1147778253643216,-0.0085184872150421,-0.0753425767615881,0.0114369392395019,0.1508038144780599,0.978087292661342,0.2906526760941877,right,-0.0003058314323425,-0.2648056186966223,-1.083968518025428,-9.402547221305966,-0.1221760946702879,-0.0033697008620947,0.0013095736503601,2.5666131135210395,-0.0006835162639617
2025-04-30 00:18:36.819768000,10.63376806640625,-0.1142504579268587,0.0053546279668807,-0.0750963761850156,0.0072837527841329,0.1507048657449776,0.978097089737177,0.2905047021230785,right,1.722574234e-05,-0.2651112805380116,-1.0789202947251495,-9.402337962469458,-0.1223712280050354,-0.0050590583123266,0.000803418457508,2.569506204614043,-0.0041224062442779
2025-04-30 00:18:36.859768000,10.67376806640625,-0.1131875541529792,0.0400724411010742,-0.0746251033181896,0.0309289190918207,0.1509826881448259,0.9780782120269068,0.2912026020542423,right,-0.0003097653388977,-0.2651966563430141,-1.0689011511445046,-9.403260922533272,-0.1224671270128296,0.005943841766566,-0.0005412250757217,2.5703140138655898,-0.0076589882373809
2025-04-30 00:18:36.899768000,10.71376806640625,-0.1116810064175663,0.0476677976548671,-0.0740036577448129,0.0229944214224815,0.1517902060938518,0.9779922566916808,0.2930411528005347,right,-0.0037053227424621,-0.2652356590610679,-1.0547222575359043,-9.4047613902241,-0.1225319684823536,-0.0040423762984573,0.0011036023497581,2.570683139438927,0.0038616061210632
2025-04-30 00:18:36.939768000,10.75376806640625,-0.1109294022221385,0.0122354589402675,-0.0737412777029111,0.000450799241662,0.1522784468744635,0.9778988163773612,0.2941133370708059,right,-0.0041669607162475,-0.2658084797734609,-1.0474901143252848,-9.40408626744151,-0.1228302058108349,-0.0257490519434213,0.003114990890026,2.576103703182936,0.0127685070037841
2025-04-30 00:18:36.979768000,10.79376806640625,-0.1111911653904718,-0.02673926576972,-0.0738867639298779,-0.0083721997216343,0.1520401550538687,0.977879109731408,0.2935664429554651,right,-0.0013918280601501,-0.2665518876701141,-1.049738989230618,-9.40190600079298,-0.1231947562993164,-0.0168820656836032,0.0051797628402709,2.5831372550815344,0.0134124755859375
2025-04-30 00:18:37.019768000,10.83376806640625,-0.1120185082509155,-0.0504629202187061,-0.074214995460214,-0.0146231949329376,0.1512528740790252,0.977948738704898,0.2918359701853917,right,-0.0009755492210388,-0.2669955055871928,-1.0573889925271271,-9.399894660970569,-0.1234134881526269,-0.0051716435700654,0.0031977966427803,2.587333829988539,0.0103963613510131
2025-04-30 00:18:37.059768000,10.87376806640625,-0.1132190883451511,-0.0594983398914337,-0.0746762980475749,-0.0206050872802734,0.150268808531976,0.9780591760986236,0.2896676804090994,right,0.0019334554672241,-0.2671136957038572,-1.06863899307698,-9.398314113780856,-0.1234616282285818,0.0027684522792696,0.0029742419719696,2.5884517281025645,0.0049353539943695
2025-04-30 00:18:37.099768000,10.91376806640625,-0.1138316123776027,-0.0274681001901626,-0.0748446748813172,0.0023962594568729,0.1494424267757377,0.9781914638686092,0.2879133919005096,right,0.0032460689544677,-0.2667733596158156,-1.0744954640202224,-9.398532724967598,-0.1233144945097804,0.0207823850214481,0.0030790343880653,2.585232473795116,-0.0049449503421783
2025-04-30 00:18:37.139768000,10.95376806640625,-0.1131669750099357,0.0078076645731925,-0.0744371525348631,0.0305345617234706,0.1492221610135598,0.9783052709150816,0.2875812472204874,right,0.0016964077949523,-0.2658511444044865,-1.0685174125239252,-9.401609648194908,-0.1229244428560386,0.0323928743600845,0.0044571235775947,2.576507607808709,-0.0079191625118255
2025-04-30 00:18:37.179768000,10.99376806640625,-0.111577936108295,0.0453660748898983,-0.0736531536616407,0.0262195281684398,0.149713716061185,0.9783564430008582,0.288831031073506,right,-0.0039763450622558,-0.2646143348345669,-1.0539305957015603,-9.40645533466041,-0.122390603734712,0.0326332449913024,0.0028586760163307,2.564802556967736,-0.0084774792194366
2025-04-30 00:18:37.219768000,11.03376806640625,-0.1103658664977127,0.0537357330322265,-0.0730842865360091,0.0065673552453517,0.1505594815293998,0.9783513863083826,0.2907612702740879,right,-0.0051406025886535,-0.2632326211431111,-1.042917837973684,-9.411239061805606,-0.1217334153448816,0.0337353348731994,0.0021071210503578,2.551721833859384,-0.0079595148563385
2025-04-30 00:18:37.259768000,11.07376806640625,-0.1093000936842448,0.0416627861559391,-0.0725988567079748,0.0104283904656767,0.1514806704840247,0.9783240635940482,0.2928231770416509,right,-0.0025092959403991,-0.2619276599525052,-1.0332493344616145,-9.415647525897622,-0.1210990847486478,0.0260823331773281,0.003863126039505,2.5393632875457404,-0.0023228824138641
2025-04-30 00:18:37.299768000,11.11376806640625,-0.1089286733826926,0.0189813375473022,-0.0724296369768044,-0.0067927120253443,0.1519880144024102,0.978307478750052,0.293934217882061,right,-0.0011605620384216,-0.2611328886417188,-1.0299711895737795,-9.418033544251324,-0.1206973935230098,0.0124995894730091,0.0024885386228561,2.5318340610846874,-0.0031886994838714
2025-04-30 00:18:37.339768000,11.15376806640625,-0.1093214988645346,0.0025642365217208,-0.072629997324908,-0.0128635950386524,0.1521840052879252,0.9782792821311932,0.2942933385175373,right,0.0022000074386596,-0.2609381408100741,-1.0337245507579296,-9.418118299925329,-0.120559029012136,8.7346881628e-05,0.0018518269062042,2.529989017739892,-0.0055548548698425
2025-04-30 00:18:37.379768000,11.19376806640625,-0.1093906362007687,0.0259729828685522,-0.0726965640682303,0.0006630579009652,0.1524957105113306,0.978233937098094,0.294924805073232,right,0.0036351680755615,-0.2608614722473381,-1.0343968970615416,-9.418239880478382,-0.1204932364450455,-0.0013152713654562,-9.68426465988e-05,2.529262749291956,-0.0068057775497436
2025-04-30 00:18:37.419768000,11.23376806640625,-0.1087447438908054,0.0268164202570915,-0.0724935537297336,0.0027493680827319,0.1530536893554288,0.9781257988127736,0.2961248170705791,right,0.0003395676612854,-0.2614453064258488,-1.0281530342359095,-9.417436162880062,-0.1207851797402766,-0.0153053514659404,-0.0004811733961105,2.5347940799340605,-0.0020000636577606
2025-04-30 00:18:37.459768000,11.27376806640625,-0.1080980446718444,0.0276598595082759,-0.0722905141574982,0.0048356782644987,0.153611567186259,0.9780172513429152,0.2973253467845023,right,-0.0029564499855041,-0.2620283986879739,-1.0219029608651995,-9.416628353628516,-0.1210770705606337,-0.0292954333126544,-0.0008661746978759,2.540317519530654,0.0028064548969268
2025-04-30 00:18:37.499768000,11.31376806640625,-0.1078011186142854,0.0090288911014795,-0.0722611159412698,0.0059259673580527,0.1538191365917227,0.977907056108838,0.2977423228142199,right,-0.001773715019226,-0.2633233963637869,-1.0187520225536078,-9.413652552688122,-0.1217194092139773,-0.0401366576552391,0.0013683512806892,2.552581373298168,0.0042408108711242
2025-04-30 00:18:37.539768000,11.35376806640625,-0.1078059095551651,0.0152084222063422,-0.0723595837969378,0.0087947715073823,0.15374119708991,0.9778155523282126,0.2975290910585747,right,-7.65919685363e-05,-0.2648853998963498,-1.0183668956935406,-9.409672543141244,-0.1224921040022165,-0.0332253165543079,0.001687578856945,2.5673683158025145,-0.0008604526519775
2025-04-30 00:18:37.579768000,11.39376806640625,-0.1079790036332122,0.027053914964199,-0.0725674440492275,-0.0005907053127884,0.1538438456338793,0.977684807403978,0.2976612655499007,right,0.0002489686012268,-0.2665339429808502,-1.01953813143,-9.405275184965133,-0.1232816778764443,-0.0407901518046855,0.0019179135560989,2.582967743733525,-0.0019866824150085
2025-04-30 00:18:37.619768000,11.43376806640625,-0.108444850043643,0.0298134181648492,-0.0729558954363889,-0.004065244924277,0.1541575183412436,0.9774993633134542,0.2981814688192733,right,0.0045517086982727,-0.2683741282728268,-1.0234032824255526,-9.40005832709968,-0.1241283250458351,-0.0370553396642208,0.0029831230640411,2.600372175259888,-0.0049552321434021
2025-04-30 00:18:37.659768000,11.47376806640625,-0.1081585461452241,0.033619076013565,-0.072986823486313,-0.000145377125591,0.1548640293610326,0.9773170930079532,0.299624387492604,right,0.0033053755760192,-0.2695313274330195,-1.0203864188224077,-9.39735315979421,-0.1246645786836698,-0.0140762422233819,0.0033187195658683,2.611312379208207,-0.0024022161960601
2025-04-30 00:18:37.699768000,11.51376806640625,-0.1072245110278874,0.0444902256131172,-0.0726872766935949,-0.0004416022275108,0.1558788148060792,0.9771608692934862,0.3018107647378951,right,-0.0023339390754699,-0.2698218398958434,-1.0115273319970817,-9.397547221061586,-0.1247997753044915,0.0020781084895133,0.0024402812123298,2.6140584630459545,0.0043686926364898
2025-04-30 00:18:37.739768000,11.55376806640625,-0.1067873498593744,0.0208851695060729,-0.0725594097986544,-0.0027461352292448,0.1565960028710677,0.9770668681659406,0.3033390025572846,right,-0.0011963248252868,-0.2696863714332603,-1.0074567215573045,-9.398340417265892,-0.1247121043300806,0.0075843688100576,0.0033236145973205,2.612777775585651,0.0055027604103088
2025-04-30 00:18:37.779768000,11.59376806640625,-0.1063477915936786,0.0080949869006872,-0.0723518761962147,0.0030569506343454,0.1569889199126432,0.9770606889126212,0.3042211628340363,right,-0.0017106533050537,-0.2690172429609866,-1.0035108334757388,-9.400518930348753,-0.124386986584165,0.0211092010140419,0.0036519318819046,2.6064526642173527,0.0040114521980285
2025-04-30 00:18:37.819768000,11.63376806640625,-0.106189125481751,-0.0054246997460722,-0.0722168040002365,-0.0107295922935009,0.1571019413577974,0.9771177453997536,0.3045068939228674,right,-0.0014028549194335,-0.2679641725124347,-1.0023096409924328,-9.403402376830575,-0.1238735121435623,0.0280227325856685,0.0029794499278068,2.5964956260874867,0.0026603937149047
2025-04-30 00:18:37.859768000,11.67376806640625,-0.1064361119096368,-0.0137290442362427,-0.0722397734637201,-0.0071441675536334,0.1570048620692229,0.9772075670375376,0.3043161239675598,right,0.0006796717643737,-0.266762922859441,-1.00496278584972,-9.406248998433352,-0.1232728136251141,0.0320685021579265,0.0037738531827926,2.5851336895957586,-0.0019656419754028
2025-04-30 00:18:37.899768000,11.71376806640625,-0.1059847071437475,-0.0012028273195028,-0.0719321340305375,0.0040229423902928,0.1569592394285431,0.9773083454378912,0.3043194204229036,right,-0.002678096294403,-0.2655428404481978,-1.0010495579287408,-9.409830948573353,-0.1227106551398029,0.0243654213845729,0.001968502998352,2.5735902590572834,-0.0031893849372863
2025-04-30 00:18:37.939768000,11.75376806640625,-0.1056641961210653,0.0059382016770541,-0.0717321305310458,0.0025503647048026,0.1569727026019468,0.9773600684123112,0.3044093863080151,right,-0.0017579793930053,-0.2648596740651448,-0.9982187184169888,-9.411897233453391,-0.1223980153326896,0.0084652118384838,0.0024328455328941,2.56712486243546,-0.002920925617218
2025-04-30 00:18:37.979768000,11.79376806640625,-0.1056641961210653,0.0071647479198873,-0.0717321305310458,-5.90127892792e-05,0.1569727026019468,0.9773600684123112,0.3044093863080151,right,0.0006032586097717,-0.2648596740651448,-0.9982187184169888,-9.411897233453391,-0.1223980153326896,0.0049943584017455,0.001872643828392,2.56712486243546,-0.0030013620853424
2025-04-30 00:18:38.019768000,11.83376806640625,-0.1056532181805615,0.0157657340168952,-0.0717112161447601,-0.0069617182016372,0.1571836279696224,0.9773665178893978,0.3048619580195964,right,-0.0006768703460693,-0.2642565483487872,-0.9982784857802092,-9.41344621646106,-0.122087279241384,0.0078467261046171,-0.0006893351674079,2.561415837138891,-0.000668317079544
2025-04-30 00:18:38.059768000,11.87376806640625,-0.105838993587026,0.0135701270774006,-0.0718149294986903,-0.0007552076131105,0.1575125292607226,0.9773342057738518,0.305524291126884,right,0.0056880712509155,-0.2638741632765137,-1.0001306895181536,-9.41423415196836,-0.1218616221752351,0.0107128201052546,-0.0005912035703659,2.557795893076062,0.0035935044288635
2025-04-30 00:18:38.099768000,11.91376806640625,-0.105838993587026,-0.0083324080333113,-0.0718149294986903,0.0059804036282002,0.1575125292607226,0.9773342057738518,0.305524291126884,right,0.0026808381080627,-0.2638741632765137,-1.0001306895181536,-9.41423415196836,-0.1218616221752351,0.0117200436070561,0.0026502609252929,2.557795893076062,0.0029572546482086
2025-04-30 00:18:38.139768000,11.95376806640625,-0.1049265542043535,-0.0127846151590347,-0.0712916776033323,0.0096639599651098,0.1572936971852064,0.9774471379469256,0.3052165205020305,right,-0.0054287910461425,-0.2630583999941663,-0.9917585094269364,-9.41721462908387,-0.1215449305263981,0.0117337154224514,0.0023238882422447,2.5500720208257435,-0.0002856850624084
2025-04-30 00:18:38.179768000,11.99376806640625,-0.1042155140158623,0.0180064905434846,-0.070904901787907,0.0068730013445019,0.1573300059033835,0.9775061145559224,0.305401653709934,right,-0.0063693523406982,-0.2623560756930506,-0.985248323815316,-9.41969650902748,-0.1212502834616052,0.0153605621308088,0.0026783719658851,2.543421038503945,-0.0035870671272277
2025-04-30 00:18:38.219768000,12.03376806640625,-0.1036737150489115,0.0262851640582084,-0.070659967298022,-0.0006871069781482,0.1577968655087127,0.9774841559751688,0.3064429875711226,right,-0.00458425283432,-0.2617567295230286,-0.9803021726500244,-9.421743504685162,-0.1209625731413329,0.0100992573425173,0.004196174442768,2.537744161911309,0.0005956590175628
2025-04-30 00:18:38.259768000,12.07376806640625,-0.1034285080956171,0.0160099025815725,-0.0705501063606473,-0.0016387463547289,0.1581776764663303,0.977465163279546,0.3072698745058892,right,-0.0021048188209533,-0.2612039796627063,-0.9781365190487354,-9.423377243366836,-0.1206820376976538,0.0125966351479291,0.0038583949208259,2.5325077225625514,0.0029355883598327
2025-04-30 00:18:38.299768000,12.11376806640625,-0.1034689562029111,-0.0051750056445598,-0.0705389332008086,-0.0057870675809681,0.1582387320400147,0.9774898563027176,0.3074068739704312,right,-0.0016257762908935,-0.260663148435895,-0.978659008552879,-9.424698847359418,-0.1204091127411272,0.0121381878852844,0.0048027485609054,2.527383511416614,0.0055581331253051
2025-04-30 00:18:38.339768000,12.15376806640625,-0.1037855697130352,-0.0241913944482803,-0.0706243200676081,-0.0116469264030456,0.1578912360511493,0.9775604465973036,0.3066677952272571,right,-0.0022005438804626,-0.2603191316524372,-0.9817330091707408,-9.425252389588952,-0.1202416806362991,0.0047261528670787,0.003633439540863,2.524123632837832,0.0041898488998413
2025-04-30 00:18:38.379768000,12.19376806640625,-0.1041962987045163,-0.0114722633734345,-0.070767712183628,-0.0001211604103446,0.1574262214778785,0.9776222361451218,0.3056646238182198,right,-0.0016863346099853,-0.2603599757122438,-0.9855934109259396,-9.424746193632483,-0.1202647691467009,0.0064825704321265,0.0025171488523483,2.5245105863288044,-0.0024360716342926
2025-04-30 00:18:38.419768000,12.23376806640625,-0.1046070751586115,0.0012468677014112,-0.0709110967236568,0.011404606513679,0.1569612281335541,0.977683759979564,0.3046615385090555,right,-0.0011722445487976,-0.2604004224972772,-0.9894541049420832,-9.424238828632236,-0.1202878269682626,0.0082389879971742,0.001400887966156,2.524894032688439,-0.0090614855289459
2025-04-30 00:18:38.459768000,12.27376806640625,-0.1040264085396235,0.0371103063225746,-0.0706353058540171,0.0144829833880066,0.1571554005434615,0.977686357340795,0.3051394054462968,right,-0.0021562576293945,-0.2601128411002256,-0.9840569951388984,-9.42553354461789,-0.1201756357911819,0.0102209169417619,-0.0005825459957122,2.522168699377775,-0.0064537823200225
2025-04-30 00:18:38.499768000,12.31376806640625,-0.1035298788786956,0.0404678657650947,-0.0704655978478537,0.0020712018013,0.1577401576118422,0.9776072063876092,0.3063978218217298,right,0.0003848075866699,-0.2600766775488059,-0.9793862268488852,-9.426111636766793,-0.120152624180043,-0.0084522720426321,0.0005038231611251,2.5218261695504185,-0.0009999573230743
2025-04-30 00:18:38.539768000,12.35376806640625,-0.1024656598326782,0.027905311435461,-0.0700508222255713,0.0281437523663043,0.1582712049577533,0.9775185231127944,0.3076009431714798,right,0.0010875463485717,-0.2605329510740165,-0.969236442625895,-9.426002915695308,-0.1204179216475855,-0.0215864665806293,0.0025577768683433,2.52614987796843,0.0051893889904022
2025-04-30 00:18:38.579768000,12.39376806640625,-0.1011359235210792,0.008599180728197,-0.0694770372343679,0.0261446833610534,0.1584267783039745,0.9774831129569104,0.3080629958295853,right,-0.0012590289115905,-0.2611973154980612,-0.9565317862883208,-9.425611870551108,-0.1208324683881618,-0.0147763649001717,0.0039141699671745,2.532444594198465,0.0052563548088073
2025-04-30 00:18:38.619768000,12.43376806640625,-0.1001723222294237,0.0063953474164009,-0.0690418795796131,0.0163385160267353,0.1584672403397261,0.9774787244618752,0.3082550808979004,right,-0.0020764470100402,-0.2615298250661245,-0.947364583361894,-9.425690781006216,-0.1210649909424966,0.0004418576136231,0.0015001818537712,2.5355945826619863,0.002251923084259
2025-04-30 00:18:38.659768000,12.47376806640625,-0.0995629202938454,0.0103851426392793,-0.068754815848817,0.0063614770770072,0.158646616690626,0.9774794176987656,0.3087041995290656,right,-0.0028178095817565,-0.2613046231885349,-0.9416771123100072,-9.426834105822444,-0.1209875448088268,0.0122396275401115,5.9306621551e-06,2.5334610777646303,0.0019971132278442
2025-04-30 00:18:38.699768000,12.51376806640625,-0.0994199987251462,-0.0079182498157024,-0.0686375762570727,0.0051494729705154,0.1585546765988871,0.977532025417813,0.3085490678369548,right,-0.0012411475181579,-0.2607831517785232,-0.9404607953228056,-9.428281966543198,-0.1207488243133976,0.0109956441447138,0.0010217577219009,2.528520698753,0.0018808245658874
2025-04-30 00:18:38.739768000,12.55376806640625,-0.0992770509894611,-0.0262216422706842,-0.0685203455681314,0.0039374688640236,0.1584627567098018,0.977584714973768,0.3083939987735959,right,0.0003352761268615,-0.2602618002486657,-0.9392436015527696,-9.429726904654505,-0.1205101178997223,0.0097516607493162,0.0020374953746795,2.523580319741368,0.0017645061016082
2025-04-30 00:18:38.779768000,12.59376806640625,-0.0992035355549604,-0.0427610166370868,-0.068387088958166,0.0015794755890965,0.157907997274363,0.9777034324707328,0.3072803766601074,right,-0.0011722445487976,-0.2598456264392356,-0.938654257357493,-9.430839834332463,-0.1203502102161724,0.0037034968845546,0.0021120980381965,2.519636258290708,-3.76999378204e-05
2025-04-30 00:18:38.819768000,12.63376806640625,-0.0995726348693529,-0.0416587144136428,-0.0684442965169599,-0.0027105244807899,0.1570512447901837,0.9778463433762332,0.3054888343791688,right,-0.0012853145599365,-0.2596319621721208,-0.9421886420287192,-9.431028634902834,-0.1202777635159962,0.0035503096878528,0.0022807121276855,2.517611182203889,-0.0044577419757843
2025-04-30 00:18:38.859768000,12.67376806640625,-0.1000035027068413,-0.0242871977388858,-0.068543362841705,-0.001619016053155,0.1563406876491083,0.9779691394535058,0.3039916206962457,right,0.0006619095802307,-0.2593315249323958,-0.9463274953991174,-9.431373502817747,-0.120148092845418,0.0100396666675806,0.0025032460689544,2.5147636838182805,-0.0075818747282028
2025-04-30 00:18:38.899768000,12.71376806640625,-0.1000542869591678,0.0024200771003961,-0.068501588342509,-0.0001233635703101,0.1561499525823334,0.9780383219962324,0.3036138247750881,right,-0.000304102897644,-0.2587191385368476,-0.946960167279467,-9.432856434851884,-0.1198570060341788,0.0111164720728993,0.0009353831410408,2.5089585046708582,-0.0066484808921813
2025-04-30 00:18:38.939768000,12.75376806640625,-0.0995251672379425,0.0079377796500921,-0.0682579403054517,0.0054282248020172,0.156500786573843,0.9780246891880532,0.3044096477471633,right,0.0009779930114746,-0.2582657460869288,-0.9420818206533788,-9.43448666640222,-0.1196490029447325,0.0063626910559833,0.000880017876625,2.504659930694104,-0.0033762753009796
2025-04-30 00:18:38.979768000,12.79376806640625,-0.0989965097299513,0.0134554840624332,-0.0680142833655912,0.0109798135235905,0.1568516003626988,0.978010974542966,0.3052052010635749,right,0.0022597312927246,-0.2578120116236481,-0.9372063235715032,-9.436113390821218,-0.1194409857735324,0.0016089105047285,0.0008249282836914,2.500357557325065,-0.0001036524772644
2025-04-30 00:18:39.019768000,12.83376806640625,-0.0981895783290212,0.0261049419641494,-0.0676674118107112,0.0208816360682249,0.1572611220058986,0.9779723480857462,0.3061446202320196,right,0.0036745071411132,-0.2576960033113282,-0.929620179291442,-9.437155593350528,-0.1194156493573119,0.0022998014464974,0.0008960515260696,2.499257487128675,-0.0002805292606353
2025-04-30 00:18:39.059768000,12.87376806640625,-0.0969553045834131,0.0330252423882484,-0.0671701144700511,0.0121140480041503,0.1580018263828093,0.9778765355185428,0.3078075145052932,right,-0.000457227230072,-0.2577909217676026,-0.9179484461981804,-9.438059264191985,-0.1195033755620887,-0.0021985610947012,0.0022630169987678,2.5001576508387924,0.003788024187088
2025-04-30 00:18:39.099768000,12.91376806640625,-0.0960205996560063,0.0268827192485332,-0.0668434921960369,0.0129404468461871,0.1588244042630079,0.9777446658442432,0.3095952817335669,right,0.0002911686897277,-0.2581119301450491,-0.9090492465581744,-9.438114209249616,-0.1196747655551155,-0.0025661790277808,0.0061832070350646,2.503201548579335,0.0074914395809173
2025-04-30 00:18:39.139768000,12.95376806640625,-0.0955348418681746,-0.011725191026926,-0.0666841052402992,0.0079060122370719,0.1591385299432419,0.9776723721298708,0.3102834780679681,right,-0.0024296641349792,-0.2586139575032676,-0.9043445029333234,-9.43730230834484,-0.1199363066456095,-0.0141124073415994,0.0091748237609863,2.507961310327053,0.0107726752758026
2025-04-30 00:18:39.179768000,12.99376806640625,-0.0955052006164343,-0.0350981429219245,-0.0667011368094941,-0.0111077688634395,0.1587982857310516,0.9776619016953624,0.309563085291356,right,-0.005492627620697,-0.2596333933984591,-0.9038204790592194,-9.434778927347065,-0.1204619904420977,-0.0276202820241451,0.0087710991501808,2.517624918468296,0.0075165927410125
2025-04-30 00:18:39.219768000,13.03376806640625,-0.0962603084353008,-0.0186358764767646,-0.0670850381642857,-0.0193397179245948,0.1583195185839412,0.977648814231204,0.3084596789623248,right,-0.0016983151435852,-0.2607462005314674,-0.9106746558029204,-9.431299268537758,-0.1209840668914715,-0.015979690477252,0.0046873465180397,2.528170570141077,0.0027286112308502
2025-04-30 00:18:39.259768000,13.07376806640625,-0.0975388180260779,0.0051560495048761,-0.067739414813244,-0.0273155160248279,0.158255326732028,0.9775853904281822,0.308151462722185,right,0.0064829587936401,-0.2614058951919731,-0.9225693109318612,-9.42846550641656,-0.1212163644608464,-0.0042587658390402,0.0025338307023048,2.534420570446551,-0.0019620358943939
2025-04-30 00:18:39.299768000,13.11376806640625,-0.0981700160757965,0.048557810485363,-0.0681134489196058,-0.0025206841528415,0.1587366856425589,0.9774823618625575,0.3090538072540305,right,0.0097842216491699,-0.2615545074339015,-0.928483430346474,-9.427506305995584,-0.1212084760105742,0.0088603226467967,-0.0013847276568412,2.5358283914178608,-0.0058168768882751
2025-04-30 00:18:39.339768000,13.15376806640625,-0.0973775046992869,0.0546580851078033,-0.0678580477108845,0.0184882376343011,0.1597383046084128,0.9773366383118124,0.3112009170731186,right,0.0046128034591674,-0.2615786616501878,-0.921005787942186,-9.428178506168722,-0.121210423017652,0.0006542913615703,-0.0006626024842262,2.536057231737673,-0.0021208524703979
2025-04-30 00:18:39.379768000,13.19376806640625,-0.0961295447839536,0.0335704982280731,-0.0673781262720162,0.0326055735349655,0.160638001001005,0.9772108229901536,0.3131935758353401,right,0.0026571750640869,-0.2617013312129742,-0.90920918636024,-9.429010280817746,-0.121303073943079,-0.0003068684018217,0.0046570301055908,2.53721926125437,0.0023887753486633
2025-04-30 00:18:39.419768000,13.23376806640625,-0.0947803351267562,0.0220508631318807,-0.0668103858802822,0.0222335904836654,0.1611911467713294,0.9771400835193936,0.3144886226659273,right,-0.0040143132209777,-0.2618745406748877,-0.8964450549203902,-9.429791202062368,-0.1214529805121245,-0.0003872110974043,0.0071791335940361,2.53886001419872,0.0006883442401885
2025-04-30 00:18:39.459768000,13.27376806640625,-0.0943820829590182,0.005084678530693,-0.0666741755666372,-0.0069911759346723,0.1615190505456026,0.9770821006210144,0.3152040505533847,right,-0.0053339600563049,-0.2620743101465065,-0.892641717114672,-9.429642148980498,-0.1215590228783205,-0.0025239984970539,0.008006602525711,2.5407524038165805,0.0015270411968231
2025-04-30 00:18:39.499768000,13.31376806640625,-0.0951182147375803,-0.0068276552483439,-0.0670393195125412,-0.0250985193997621,0.1615728464519342,0.9770520632324996,0.3152210148472262,right,0.0011516213417053,-0.2621344745494959,-0.8995684476379304,-9.428830248075723,-0.1215284431060915,0.0023788555990904,0.0078911408782005,2.54132202039808,-0.0020177662372589
2025-04-30 00:18:39.539768000,13.35376806640625,-0.0957816769510442,0.0040602693334221,-0.0673445319343351,-0.0276248399168252,0.1616677629206666,0.9770438693511332,0.3153422833857827,right,-0.0009791851043701,-0.2617825295132068,-0.9059094141624868,-9.429121339976788,-0.121298484644221,0.0078390184789896,0.00361979752779,2.537988492061197,-0.0041109919548034
2025-04-30 00:18:39.579768000,13.39376806640625,-0.0967134825643006,0.0037810704670846,-0.0678112746622144,-0.036183726042509,0.1618515066262086,0.9769952535914908,0.3156044023736288,right,-0.0002428293228149,-0.2617245297741939,-0.914709318146482,-9.428419329187273,-0.1211858615825827,-0.0072525003924965,0.0010033026337623,2.5374390414848924,-0.0036074817180633
2025-04-30 00:18:39.619768000,13.43376806640625,-0.0976530344451313,0.003511844901368,-0.0683097161292505,-0.0184977613389492,0.1619594151472399,0.9769248553688707,0.3156961074968664,right,0.0031944513320922,-0.2621787780892645,-0.9234549346599727,-9.42640798936486,-0.1213290278659833,-0.0196788497269153,0.0006118863821029,2.541741707114875,-0.0039862096309661
2025-04-30 00:18:39.659768000,13.47376806640625,-0.097774933653789,0.0121445227414369,-0.0684309226917318,0.0036405362188816,0.1620559603339566,0.976860127549108,0.3158592770896688,right,0.0024116039276123,-0.2628717116471149,-0.9244318899333476,-9.424539857405424,-0.1216527304719292,-0.0188065767288208,-0.0009408518671989,2.5483044266313315,-0.00293830037117
2025-04-30 00:18:39.699768000,13.51376806640625,-0.097856891999388,0.0126566467806696,-0.0685485768369171,-0.0075160106644034,0.1621848930577347,0.9767802847992216,0.3160892929269308,right,0.0005145668983459,-0.2637229526887374,-0.9249920080341398,-9.422302307611703,-0.1220548278038476,-0.0276521239429712,-0.0023460537195205,2.55636439896822,-0.0010649561882019
2025-04-30 00:18:39.739768000,13.55376806640625,-0.0981016646578532,0.0172432661056518,-0.0687520561562383,-0.0059104631654918,0.1623779403796495,0.9766861772478382,0.3164304297059837,right,0.000998318195343,-0.2645666991801092,-0.927086715291068,-9.419925641608238,-0.1224361720398889,-0.0148341199383139,0.0001264065504074,2.5643518905907867,-0.0034246742725372
2025-04-30 00:18:39.779768000,13.59376806640625,-0.097492821999532,0.0281163044273853,-0.0685224827333142,0.0168005563318729,0.1627844089913001,0.9766221703853176,0.3173345737387373,right,-0.0021945238113403,-0.2647317379251097,-0.921310104651004,-9.420066511383652,-0.1225354003629898,0.0039835637435317,0.0007676780223846,2.565914025340974,0.0004609823226928
2025-04-30 00:18:39.819768000,13.63376806640625,-0.0969858515741003,0.0057441275566816,-0.0683177532267957,-0.0062964484095573,0.1631515407887391,0.976579595669242,0.3181527063911308,right,-0.0045127868652343,-0.2646347770308881,-0.9165583800792694,-9.42078021261096,-0.1225012709653477,-0.0008854763582348,0.0009663850069046,2.5649960337132214,0.0054433345794677
2025-04-30 00:18:39.859768000,13.67376806640625,-0.0977127072395108,-0.0185538753867149,-0.068657473099132,-0.0147122386842966,0.16306966409269,0.9765751934799356,0.3178936128777799,right,0.0024459362030029,-0.2646436574872249,-0.923403423668444,-9.42008872321546,-0.1224552126076597,0.0036806687712669,0.0029898583889007,2.5650802048653363,0.0039997994899749
2025-04-30 00:18:39.899768000,13.71376806640625,-0.098117657653793,-0.0152643071487545,-0.0687782394504432,-0.0026856092736124,0.1627881167139536,0.9766473891743748,0.3172808964220638,right,-5.61475753784e-05,-0.2641176534222223,-0.9273500424023716,-9.421055522421002,-0.1221858895775499,0.0171667318791151,0.000681959092617,2.560101247408986,0.0010786950588226
2025-04-30 00:18:39.939768000,13.75376806640625,-0.0985885966274969,-0.0227053090929985,-0.068941300055566,-0.011682222597301,0.162458540603603,0.9767109075434334,0.3165555932723718,right,0.0007659792900085,-0.2638155174262741,-0.9318627705864608,-9.421386946332454,-0.1220247166324495,0.0007750745862722,-9.5896422863e-05,2.557240889541805,0.0020082890987396
2025-04-30 00:18:39.979768000,13.79376806640625,-0.0986740383892559,-0.0130196781828999,-0.0689259289057795,-0.0035942876711487,0.1621416125918914,0.9767767734663442,0.3159024810322004,right,-0.0005159974098205,-0.2635844451741368,-0.9327259632870556,-9.42189548037648,-0.1219272144867072,0.007100136950612,0.0001063495874404,2.555053024108708,0.0002613067626953
2025-04-30 00:18:40.019768000,13.83376806640625,-0.0987593476481566,-0.0033340482041239,-0.0689105666587969,0.0044936463236808,0.1618247355999604,0.976842670206382,0.3152496203813003,right,-0.0017980933189392,-0.2633534274444315,-0.9335879138786344,-9.422402845376729,-0.1218297264227184,0.0134251983836293,0.0003084763884544,2.5528657431975006,-0.0014857351779937
2025-04-30 00:18:40.059768000,13.87376806640625,-0.0990905888138465,-0.0083650462329387,-0.0689841880355706,-0.0014671166427433,0.161575765523304,0.9769254909195336,0.3147200746152678,right,0.0004257559776306,-0.2626016057007612,-0.9368985727965832,-9.424000343701245,-0.1214532228664996,0.0309640541672706,0.0011982843279838,2.545746266581118,-0.0032230615615844
2025-04-30 00:18:40.099768000,13.91376806640625,-0.0998718904697398,-0.0534547045826911,-0.0692109719699086,-0.0268073715269565,0.1613090222244252,0.9770557206224004,0.3141234854834109,right,0.0028348565101623,-0.2610032981335673,-0.9446657727319748,-9.427301723334192,-0.1206283767622833,0.0507558956742286,0.0067358165979385,2.530606272855401,-0.0005450844764709
2025-04-30 00:18:40.139768000,13.95376806640625,-0.1003107270470413,-0.0999411940574646,-0.0689392098890362,0.0310104899108409,0.1599827028545392,0.977552362627142,0.3114870970332022,right,0.0105948448181152,-0.2565598465220816,-0.9499193824112416,-9.437981522780657,-0.1185084062877019,0.1526745855808258,-0.0023956596851348,2.4884821183532475,-0.0015634000301361
2025-04-30 00:18:40.179768000,13.99376806640625,-0.1013893807982033,-0.1710116863250732,-0.0684323075327039,0.0229499265551567,0.1566318306918343,0.978628326474646,0.3047790926486588,right,0.008137047290802,-0.2477255219997734,-0.9622867696184664,-9.458453817445038,-0.1143244017970195,0.2556744217872619,-0.0050605162978172,2.4045865683093663,-0.0210774540901184
2025-04-30 00:18:40.219768000,14.03376806640625,-0.1044830531163722,-0.2913851141929626,-0.0686023920904773,-0.0432242453098297,0.1515331574020294,0.9800076951956178,0.2943704737525066,right,0.0110257863998413,-0.2369597480143966,-0.9941858827043324,-9.480629408895968,-0.109161054093495,0.2728082835674286,-0.0009979829192161,2.302095915649831,-0.0500072538852691
2025-04-30 00:18:40.259768000,14.07376806640625,-0.1052038187198899,-0.0905268937349319,-0.0678048558884229,0.037252701818943,0.1484414980208986,0.9811634928527652,0.2884156611682329,right,0.0080450177192687,-0.2248691160077872,-1.0038684878069908,-9.506896653574705,-0.1033714910879376,0.244081512093544,0.0005919784307479,2.186675200399012,-0.0184353739023208
2025-04-30 00:18:40.299768000,14.11376806640625,-0.105816705304443,-0.0952015593647956,-0.0674776068130404,-0.006806630641222,0.1461707716180756,0.9818167401651252,0.2839416012533673,right,-0.0009137392044067,-0.2189773852883687,-1.0110381602406502,-9.518925529542566,-0.1005814151821485,0.0421599000692367,-0.0028605386614799,2.130313992360234,-0.0023474544286727
2025-04-30 00:18:40.339768000,14.15376806640625,-0.1081502244712095,-0.0394370593130588,-0.0684495888992562,-0.0544276870787143,0.1445336150981464,0.981992071266394,0.2803643879144838,right,-0.0137510895729064,-0.2190706213435003,-1.0332265381079166,-9.51634311183393,-0.10057923246663,-0.0785063654184341,-0.0006835535168647,2.1312065572857857,0.0034595429897308
2025-04-30 00:18:40.379768000,14.19376806640625,-0.1106046022770684,-0.0327733010053634,-0.069852139749048,-0.073150485754013,0.1438336462360878,0.9817831896627705,0.2785118862208248,right,-0.0112245678901672,-0.2234826119698015,-1.055531966483593,-9.504340539351103,-0.1026360968230696,-0.1331579536199569,0.0056376382708549,2.173418390071392,0.0119297057390213
2025-04-30 00:18:40.419768000,14.23376806640625,-0.1110103414886142,0.0475316867232322,-0.0702933777625056,0.0100950449705123,0.1438534484697672,0.9815540776263264,0.2783587154380593,right,-0.011756420135498,-0.2272848924067618,-1.0584649511955675,-9.495629409629109,-0.1044818581786796,-0.0717343091964721,0.004105158150196,2.209762938258797,0.0106578171253204
2025-04-30 00:18:40.459768000,14.27376806640625,-0.1097308479135542,0.0614890977740287,-0.0699300914110695,0.0091094905510544,0.1446830363196856,0.9813157240077082,0.2800830635937544,right,-0.014546513557434,-0.2299240722989582,-1.0456721781831233,-9.49114612673521,-0.1058111032136041,-0.0633393749594688,0.0011005103588104,2.234971175403893,0.0195812731981277
2025-04-30 00:18:40.499768000,14.31376806640625,-0.1092554817409823,0.0466433018445968,-0.0699797047341289,-0.0034550614655017,0.14555128464946,0.9810322719599738,0.2817934314945752,right,-0.0061492919921875,-0.2328158678885532,-1.0404512286644427,-9.48517815824151,-0.1072070033698442,-0.0605369992554187,0.0018142908811569,2.262574344861507,0.0149511843919754
2025-04-30 00:18:40.539768000,14.35376806640625,-0.1084794409538232,0.0759691298007965,-0.0698786448241587,0.0007688696496188,0.1468104496337821,0.9807415716483416,0.284366299623603,right,-0.000586450099945,-0.2349261344158447,-1.0325707776129245,-9.481215099829434,-0.1082106260917163,-0.0258596166968345,0.0027782991528511,2.282705571003258,0.0102627128362655
2025-04-30 00:18:40.579768000,14.39376806640625,-0.1074748313364997,0.0829361453652381,-0.0696458104754621,0.0100901462137699,0.1483497624240233,0.9804614607514924,0.2875698465389783,right,0.0034013986587524,-0.2361988795923054,-1.022732908883318,-9.479351059523225,-0.1087981910359306,0.0034572575241327,0.0039124116301536,2.2948422912597657,0.0051446557044982
2025-04-30 00:18:40.619768000,14.43376806640625,-0.1062588559158425,0.0748306363821029,-0.0691953000925512,0.0038605090230703,0.1499312184416366,0.9802861185095888,0.29095106754224,right,-0.0018641948699951,-0.2356409552832725,-1.0113410887099803,-9.48185982747376,-0.1084975093103215,0.0366885364055633,0.0029685646295547,2.289522411411256,0.0055724829435348
2025-04-30 00:18:40.659768000,14.47376806640625,-0.1065331976824916,0.0275391414761543,-0.0693268768208015,-0.0090539222583174,0.1507311715180961,0.9802349370650996,0.2926008715203673,right,0.0024471879005432,-0.2343062778916386,-1.014266401572153,-9.484611756530404,-0.1077643859288164,0.0500348322093486,0.0022269487380981,2.276793424350023,0.0009043663740158
2025-04-30 00:18:40.699768000,14.51376806640625,-0.1076985782686105,-0.0095102451741695,-0.0695049998623539,-0.0127925146371126,0.1502543484698612,0.980567364214438,0.2916834297390228,right,-0.0057919025421142,-0.2293254238781625,-1.0265251407731324,-9.494580192837118,-0.1052624277574877,0.0765056759119033,0.0022451281547546,2.229254551322758,0.0151797831058502
2025-04-30 00:18:40.739768000,14.55376806640625,-0.1088579253999494,-0.0465596355497837,-0.0696826592306318,-0.0165311060845851,0.1497765224729987,0.9808932666664156,0.2907729756095883,right,-0.0140557289123535,-0.2243435192428692,-1.038725646980852,-9.504306052559611,-0.1027597673604007,0.1029765233397483,0.0022573769092559,2.181650211843848,0.029461845755577
2025-04-30 00:18:40.779768000,14.59376806640625,-0.1118434848020405,-0.0507091507315635,-0.0708263533966914,-0.0053607411682605,0.1479710235132773,0.9811841732483708,0.2868493509262874,right,0.0024261474609375,-0.2225861760209166,-1.0675229215938598,-9.504957794466614,-0.101811791555838,-0.0106446370482444,-0.0010428056120872,2.164845207515359,0.0036197006702423
2025-04-30 00:18:40.819768000,14.63376806640625,-0.1138267420527925,-0.0402331687510013,-0.0717863969624303,-0.0231419466435909,0.1466594133523759,0.9812101999716216,0.2838860698354659,right,0.0043161511421203,-0.2246420416750661,-1.0858637571875005,-9.49838016964197,-0.1027818047830903,-0.069822758436203,-0.000811830163002,2.184504286100715,-0.0141729116439819
2025-04-30 00:18:40.859768000,14.67376806640625,-0.1139488539130809,0.0214617736637592,-0.0719404370601339,0.0178431756794452,0.1466162467052557,0.9811266086011616,0.2837226664523818,right,0.0005806684494018,-0.2261732772984497,-1.0866420480836183,-9.49491278579235,-0.1035313060449336,-0.0137942023575305,0.0019723400473594,2.199140714218468,-0.0058660209178924
2025-04-30 00:18:40.899768000,14.71376806640625,-0.1139488539130809,0.0111425016075372,-0.0719404370601339,-0.0011742617934942,0.1466162467052557,0.9811266086011616,0.2837226664523818,right,-0.0010040402412414,-0.2261732772984497,-1.0866420480836183,-9.49491278579235,-0.1035313060449336,-0.0023840740323066,0.0014159977436065,2.199140714218468,-0.0032057166099548
2025-04-30 00:18:40.939768000,14.75376806640625,-0.1140791059763958,0.0138978790491819,-0.0720182083989259,-0.0166202709078788,0.1468820140359146,0.9810949482717478,0.2842591701533644,right,-0.0077558159828186,-0.2259661904973797,-1.087930553524196,-9.495223751437663,-0.1034006627056876,-0.0026564532890915,0.0026233568787574,2.1971615230999886,-0.0019052922725677
2025-04-30 00:18:40.979768000,14.79376806640625,-0.114474845098709,0.0468188971281051,-0.0722900528403406,-0.0125013999640941,0.1473533093854342,0.9809866766882526,0.2851592214607619,right,-0.0024638175964355,-0.2264298734420357,-1.09157161344029,-9.493779397848249,-0.1035669563983705,-0.0181914512068033,0.0004037395119667,2.201592929676175,-0.0040234923362731
2025-04-30 00:18:41.019768000,14.83376806640625,-0.11409569283455,0.0406880602240562,-0.0722795849651255,-0.0018282290548086,0.1481202215562111,0.9808014772076185,0.2867054975635,right,-0.001401662826538,-0.2278403989909722,-1.0876173228565602,-9.491097611418366,-0.1042321667965448,-0.0469601601362228,-2.83122062683e-05,2.2150702508866784,-0.0012584924697875
2025-04-30 00:18:41.059768000,14.87376806640625,-0.1133292749778409,0.0378964990377426,-0.072098173711631,0.0207372233271598,0.1488199332572151,0.9806162837293904,0.2881433874975137,right,0.0048053264617919,-0.2295974704284168,-1.0799010493908077,-9.488046991676091,-0.1051003782926875,-0.0299447234719991,0.0014277100563049,2.23185245886147,-0.0039416253566741
2025-04-30 00:18:41.099768000,14.91376806640625,-0.1117573719391033,-0.0135870724916458,-0.0714113914567158,0.0505219995975494,0.149194203022317,0.9805727283136936,0.2890545826525229,right,0.0113011002540588,-0.2301252309895557,-1.0648539215803146,-9.488560786417128,-0.105444052089218,0.0100123118609189,0.0005781352519989,2.236891914333403,0.0031765401363372
2025-04-30 00:18:41.139768000,14.95376806640625,-0.1089045776962793,-0.0599735789000988,-0.0699488279148714,0.0978621542453765,0.148657256822372,0.9807516455605144,0.2882792739154626,right,0.0091403126716613,-0.2297901498465795,-1.0378620889540762,-9.492304649120568,-0.1055192686445928,-0.003708491101861,-0.0034119188785552,2.233692387639731,0.0126712918281555
