time,seconds_elapsed,roll,rotationRateZ,quaternionY,rotationRateY,quaternionZ,quaternionW,yaw,devicelocation,accelerationZ,pitch,gravityX,gravityZ,quaternionX,rotationRateX,accelerationX,gravityY,accelerationY
2025-04-30 00:16:49.678270200,0.470270263671875,-0.730548621713983,-0.0166392810642719,-0.3477465505761133,0.0434238575398922,-4.726006002441544e-17,0.9273319130461676,-0.0996836296521569,right,-0.2029251456260681,-0.2594056362672524,-6.324828459703922,-7.059699900811911,-0.138303295591054,-0.0027274806052446,0.5722870826721191,2.515465986868739,0.1178328990936279
2025-04-30 00:16:49.718270000,0.51027001953125,-0.3247951438527497,-0.0068836584687232,-0.1680403266340848,0.0141184367239475,0.0794804021768581,0.9674343243253656,0.1030924813374076,right,-0.0377589464187622,-0.3673319323108687,-2.9206770190656184,-8.673911459717154,-0.171802261668534,0.00474843243137,0.2313172519207,3.521829725557565,0.0112850666046142
2025-04-30 00:16:49.758270200,0.550270263671875,-0.1359447535141058,0.0211513172835111,-0.0859135394863023,0.0200736578553915,0.1138617176277164,0.972877651989938,0.206601385749671,right,-0.0065284371376037,-0.3832134044931761,-1.2326609498895704,-9.011437195175883,-0.1821083037848729,-0.0054486817680299,0.061772271990776,3.666733578793704,0.0008447170257568
2025-04-30 00:16:49.798270200,0.590270263671875,-0.0790497525751689,0.039260484278202,-0.0610471918538636,0.0084137376397848,0.1241301752671868,0.973254654649472,0.2384471535988254,right,-0.0037155151367187,-0.3813464614211822,-0.7187764847449958,-9.07375833453238,-0.1834129150855951,-0.0117706712335348,0.0112687349319458,3.6497467881575214,0.006988525390625
2025-04-30 00:16:49.838270200,0.630270263671875,-0.0740841762428002,0.028829138725996,-0.0589504873443913,-0.0095456540584564,0.1253195696539809,0.9731763007408488,0.241825371050636,right,-0.0012835264205932,-0.3815193080218873,-0.6736646927341818,-9.076586251434684,-0.183705495459289,-0.0010971333831548,0.008450262248516,3.651320028823614,0.008829653263092
2025-04-30 00:16:49.878270200,0.670270263671875,-0.0715844205758736,0.0169534403830766,-0.0580215704107265,-0.0153217893093824,0.1262053461707401,0.9729723706896488,0.2441010321031917,right,0.0006125569343566,-0.3829089814580012,-0.6506098342306912,-9.073172059077024,-0.184473429291968,-0.0021692565642297,0.0058377757668495,3.663964698602259,0.0049306750297546
2025-04-30 00:16:49.917824500,0.709824462890625,-0.070476888252811,0.0107129700481891,-0.0577674738019318,-0.0336890146136283,0.1269032168521429,0.9726711263574948,0.245718760003613,right,-0.0011441358365118,-0.3852949075817115,-0.6399431865267455,-9.06514131283462,-0.185659198674648,-0.0223881285637617,0.0015461653238162,3.685657767233253,0.0041570612229406
2025-04-30 00:16:49.957824500,0.749824462890625,-0.0708800089872748,0.003252204041928,-0.0580188158446921,-0.0225577075034379,0.1269652327436797,0.9725686303379204,0.245759038511669,right,-0.0002071857452392,-0.3862035317419329,-0.6433600092329085,-9.061538319906592,-0.1860750694650458,-0.0260634403675794,-0.0001470148563385,3.693913554403186,0.0038191676139831
2025-04-30 00:16:49.997824500,0.789824462890625,-0.0712832595999068,-0.0042085614986717,-0.0582701405480882,-0.0114264003932476,0.1270271453787696,0.9724658547544958,0.2457987721437088,right,0.0007288455963134,-0.3871121279139486,-0.6467747130472212,-9.057926559150218,-0.1864908847079353,-0.0297387521713972,-0.0018404275178909,3.702165834441781,0.0034815967082977
2025-04-30 00:16:50.037824500,0.829824462890625,-0.0716866089497735,-0.0116693265736103,-0.0585214479121204,-0.0002950942143797,0.1270890548947991,0.9723628642861049,0.2458381950552363,right,0.0016639828681945,-0.388020734706719,-0.6501870057087391,-9.0543060305655,-0.1869066444033134,-0.0334140621125698,-0.0035341009497642,3.7104154841318726,0.0031443834304809
2025-04-30 00:16:50.077824300,0.86982421875,-0.0717625910768199,-0.0142836598679423,-0.0585822610398932,0.0110137537121772,0.1268931310249814,0.9722769750136429,0.2454074053637535,right,0.0006002783775329,-0.3891543096019481,-0.6505729362864047,-9.0500553873837,-0.1874664981625446,-0.0374797768890857,-0.0021081939339637,3.720703361651301,0.0036483407020568
2025-04-30 00:16:50.117824500,0.909824462890625,-0.0717343879732477,-0.0087910369038581,-0.0586021005476887,0.028023362159729,0.1264952765227867,0.9721355888162246,0.2445714232952096,right,0.0007861256599426,-0.3911406187463905,-0.6497867543447763,-9.042684566354753,-0.1884600062894166,-0.043780505657196,-0.0012673214077949,3.738718618552386,0.0011054277420043
2025-04-30 00:16:50.157824500,0.949824462890625,-0.0711287185348259,-0.0257833786308765,-0.0583233608310448,0.0202350188046693,0.1260281926267703,0.972037118873343,0.243708442641803,right,-0.001241385936737,-0.3928683168865759,-0.6438496924459934,-9.036620151749252,-0.1893646843086792,-0.0247348025441169,-0.0023350864648818,3.754376206411421,0.0061986744403839
2025-04-30 00:16:50.197824500,0.989824462890625,-0.0712993318624662,-0.0313292890787124,-0.0583100271261834,0.008359714411199,0.1255288707290395,0.9720913866638056,0.2426470012756591,right,-0.000851571559906,-0.3929443853649627,-0.6453711298596113,-9.036225014951825,-0.1894219377021576,0.0052257012575864,-0.0006268620491027,3.755065357719361,0.0013940632343292
2025-04-30 00:16:50.237824500,1.029824462890625,-0.07154552751162,-0.0115519016981124,-0.0582686062761881,0.0049479287117719,0.1249071709442954,0.972231088226885,0.2413275690876138,right,-0.0018872618675231,-0.3922939260535213,-0.6477702268905937,-9.038499974146484,-0.1891282622423312,0.0234353449195623,0.0005882680416107,3.749171915766597,-0.0027309954166412
2025-04-30 00:16:50.277824500,1.069824462890625,-0.0716208368698057,0.0058655068278312,-0.0582853328100481,-0.0074499119073152,0.1248995452367863,0.9722615702077853,0.2413009492292217,right,-0.0011383891105651,-0.3919814806042602,-0.6485347084570676,-9.039619333565234,-0.1889721578341356,0.0136443758383393,0.0011107549071311,3.746340491732955,-0.0039102733135223
2025-04-30 00:16:50.317824300,1.10982421875,-0.0717326871729064,0.0252884477376937,-0.0583996718145671,-0.0205513443797826,0.1253760704484231,0.9722530331889954,0.2422660231490989,right,6.1392784118e-06,-0.3914215307818923,-0.6496960803866386,-9.041637687650322,-0.1886643507339621,0.0149387959390878,0.0003409907221794,3.741265088164806,-0.0010197758674621
2025-04-30 00:16:50.357824500,1.149824462890625,-0.0718851202350804,0.0365861691534519,-0.0586158322227611,-0.0292756259441375,0.1263379401836943,0.9722000039243942,0.2442240604310721,right,0.0002387166023254,-0.390663951260202,-0.6512776504896581,-9.04436331322193,-0.188228562706603,0.0137198511511087,-0.0013124868273735,3.734396663700044,-0.000707983970642
2025-04-30 00:16:50.397824500,1.189824462890625,-0.0721559402334057,0.0320263467729091,-0.058926360961446,-0.0197210162878036,0.1274447476067492,0.9721042821411788,0.2464550811810039,right,-0.0033787488937377,-0.3901175075708397,-0.6538740967236459,-9.046220339265464,-0.1878797329799622,-0.0076708793640136,-0.0044734925031661,3.729441087119281,0.0025922060012817
2025-04-30 00:16:50.437824500,1.229824462890625,-0.0726922259629916,0.0171585418283939,-0.0592782125846599,-0.0204479452222585,0.1278614891557979,0.9720046227539484,0.2472045429337977,right,0.0024003386497497,-0.3904827843269027,-0.6586263327520341,-9.044508859172463,-0.1880012156165496,-0.012166641652584,-0.0044055357575416,3.73275386492908,0.0072704255580902
2025-04-30 00:16:50.477824500,1.269824462890625,-0.0730746842065013,0.001628890633583,-0.0595216082087658,0.0118313338607549,0.1280583973177339,0.9719259603950928,0.2475301086606041,right,0.0077051520347595,-0.3909552612579186,-0.6619566462185233,-9.042496350306273,-0.1881970966494981,-0.0084475167095661,-0.0032060891389846,3.737038118119538,0.0070876777172088
2025-04-30 00:16:50.517824500,1.309824462890625,-0.0721924569870647,-0.024558825418353,-0.0590746992781262,0.041081890463829,0.1276769185724885,0.9719218091703542,0.2469077896263775,right,0.0008419156074523,-0.3916655928387915,-0.653787149092555,-9.040427142816782,-0.1886177747840073,0.000871536321938,-0.001465804874897,3.74347750351727,0.0016953349113464
2025-04-30 00:16:50.557824300,1.34982421875,-0.0720830572818195,-0.0092788375914096,-0.0589494782480317,0.0251283925026655,0.1273641672215465,0.971988232133432,0.246288231305276,right,-0.0001475811004638,-0.3914254667511085,-0.652862873854488,-9.041395111066102,-0.1885261266546234,0.0067747007124125,0.000405266880989,3.741300744000077,-0.0023913383483886
2025-04-30 00:16:50.597824500,1.389824462890625,-0.0719735192730094,0.0060011493042111,-0.0588242608704881,0.0091748945415019,0.1270514304807951,0.9720545226196802,0.2456687649797292,right,-0.0011371374130249,-0.3911853867803316,-0.6519370642464608,-9.042361910271644,-0.1884344454060342,0.0126778651028871,0.0022761896252632,3.739124276743829,-0.0064780712127685
2025-04-30 00:16:50.637824500,1.429824462890625,-0.0718637984870687,0.0212811380624771,-0.0586990265434615,-0.0067786034196615,0.1267387083502349,0.9721206806290988,0.2450493989505632,right,-0.0021268129348754,-0.3909453566166328,-0.651009354942292,-9.043328124955297,-0.1883427354705523,0.0185810308903455,0.0041469261050224,3.736948101748526,-0.0105648040771484
2025-04-30 00:16:50.677824500,1.469824462890625,-0.0718878707048703,0.0346866995096206,-0.058800994451745,-0.027842940762639,0.1273054481455815,0.9720798015256924,0.2462147265918853,right,-0.0057526230812072,-0.3906024328573235,-0.6513190784785896,-9.04459069223702,-0.1881399897585002,0.0064255697652697,0.0033972188830375,3.733838737556338,-0.0036497116088867
2025-04-30 00:16:50.717824500,1.509824462890625,-0.0724368310143599,0.0366618111729621,-0.059245653246327,-0.0388995148241519,0.1283364766869096,0.9719550729134572,0.2482323353492317,right,-0.0017439723014831,-0.3903945525639823,-0.6563402676414698,-9.045005702778695,-0.1879441571686987,-0.0067420713603496,0.0014372691512107,3.731953654462099,0.0015617609024047
2025-04-30 00:16:50.757824500,1.549824462890625,-0.073362590710155,0.0104793328791856,-0.0598207403583119,-0.0245841089636087,0.1291177611291816,0.971851180296783,0.2496630261836832,right,0.0041010379791259,-0.3902347504509704,-0.664757163657248,-9.044988751643896,-0.1877641838252672,-0.0001894063025247,-0.0011315122246742,3.730504332436621,0.0054057538509368
2025-04-30 00:16:50.797824300,1.58982421875,-0.073362590710155,-0.0067276861518621,-0.0598207403583119,-0.0168806668370962,0.1291177611291816,0.971851180296783,0.2496630261836832,right,0.0042733550071716,-0.3902347504509704,-0.664757163657248,-9.044988751643896,-0.1877641838252672,0.0015692141605541,-0.0019558370113372,3.730504332436621,0.0043514966964721
2025-04-30 00:16:50.837824300,1.62982421875,-0.0745152927795172,-0.0190126411616802,-0.0602992121740058,-0.0020275833085179,0.1287974451234053,0.9718714204080366,0.2487809028409058,right,0.00611013174057,-0.390254591425518,-0.6751773623194545,-9.04414236394763,-0.1877260201870191,0.0093213049694895,-0.0012374520301818,3.730684365178644,0.0009714663028717
2025-04-30 00:16:50.877824500,1.669824462890625,-0.074816313991533,-0.0111779328435659,-0.0603264551540893,0.0105205224826931,0.1283126323105027,0.9719650743590266,0.2477296897351368,right,0.0042806267738342,-0.3898970829878472,-0.6779995070680975,-9.045268153107166,-0.187564317553178,0.0182151086628437,-0.001132033765316,3.727441729995608,-0.0005032420158386
2025-04-30 00:16:50.917824500,1.709824462890625,-0.0744685837500682,-0.0065949498675763,-0.0601169169345939,0.0277764536440372,0.1281463651999687,0.972019037914123,0.2474580616129374,right,0.0029709935188293,-0.3896324766602413,-0.6749274792116134,-9.046486881247162,-0.187465945001015,0.0206732153892517,-0.0003854110836982,3.72504139085561,-0.0015505254268646
2025-04-30 00:16:50.957824500,1.749824462890625,-0.073889398896094,-0.0071196178905665,-0.0597660969339252,0.0239880830049514,0.1279363362537505,0.9721254844533396,0.2471464177456676,right,-0.00221449136734,-0.3889271333773838,-0.669881593998894,-9.0494942463696,-0.1871689341137441,0.0219946634024381,-0.0013501867651939,3.7186417529463767,0.0015239119529724
2025-04-30 00:16:50.997824500,1.789824462890625,-0.0741049268087408,-0.0505924262106418,-0.0596697107680397,-0.0070491563528776,0.1272444111134126,0.9723249143546686,0.2456962778911023,right,-0.0070562958717346,-0.3877697636182788,-0.6721501965180039,-9.053635583958028,-0.1866348510176236,0.0167925767600536,-0.0014022290706634,3.7081370178058735,0.0067529380321502
2025-04-30 00:16:51.037824500,1.829824462890625,-0.0745393493816794,-0.0598365254700183,-0.0596602289203556,-0.0056778015568852,0.1264954803887917,0.9725369101915884,0.2440891779030931,right,-0.008389413356781,-0.3865101621701953,-0.6764305041857064,-9.057993194645643,-0.1860416923373055,0.0501658916473388,-0.0008616000413894,3.696698801207542,0.0126934647560119
2025-04-30 00:16:51.077824300,1.86982421875,-0.0753246928620274,-0.0605094954371452,-0.0596221212940855,0.015201455913484,0.125210009003526,0.9729738395846336,0.2413371703592889,right,0.0019032955169677,-0.3835527441883784,-0.6843637083377688,-9.068321111914514,-0.1846333591813946,0.0729449540376663,0.0027746930718421,3.669819854371249,0.0105186998844146
2025-04-30 00:16:51.117824500,1.909824462890625,-0.0749438949500843,-0.0269058793783187,-0.0591370343935553,0.0299314446747303,0.1243866251664362,0.9733529579632628,0.2397566936374589,right,0.0037751197814941,-0.380761696962347,-0.681674688449502,-9.078760088342428,-0.1833435690489507,0.0682879537343978,0.0055480226874351,3.6444235473081465,-0.0034774839878082
2025-04-30 00:16:51.157824500,1.949824462890625,-0.0738401240194903,0.0240313336253166,-0.0584578112378138,0.0088897682726383,0.1241023614362679,0.9735982853533142,0.2394081681751324,right,0.0001261234283447,-0.3787652806947502,-0.6721888480279594,-9.086744657355547,-0.1824489870808261,0.0136522836983203,0.0065149068832397,3.626240240363777,-0.0225726068019866
2025-04-30 00:16:51.197824500,1.989824462890625,-0.0743344192046968,0.0430288016796112,-0.0590933980451813,-0.033983264118433,0.1252012540556005,0.9731030735836326,0.241522896756988,right,0.0011039972305297,-0.3823993508531345,-0.6756971484098583,-9.073209468477964,-0.1841276975341685,-0.1037856787443161,0.0032017901539802,3.659328270973265,-0.0200151801109313
2025-04-30 00:16:51.237824500,2.029824462890625,-0.0748211102619569,0.062026273459196,-0.0597286993378821,-0.0768563002347946,0.1262995836067983,0.9726032407202144,0.2436388277162457,right,0.0020697116851806,-0.3860343227060458,-0.6791141172464936,-9.059555621656775,-0.185805531744532,-0.2212236225605011,-0.0001206547021865,3.69237626183331,-0.0174536108970642
2025-04-30 00:16:51.277824500,2.069824462890625,-0.0770206106513287,0.0258910581469535,-0.0613867934395272,-0.0858949273824691,0.1273036209828439,0.9716589120534256,0.2451709250615608,right,0.0053488612174987,-0.3939708719539264,-0.6967620752051472,-9.028536798536775,-0.1894844872055611,-0.2390000224113464,-0.000903271138668,3.764362470635772,-0.0156329572200775
2025-04-30 00:16:51.317824300,2.10982421875,-0.0811766848515965,-0.0460371747612953,-0.0638395330260894,-0.0589456409215927,0.1274138419577976,0.9706687324208856,0.2444451991501473,right,0.0061608552932739,-0.4029875356096155,-0.7314971423693001,-8.991366467049717,-0.1936295102464177,-0.1225734949111938,0.0002566426992416,3.845857681539655,0.012749046087265
2025-04-30 00:16:51.357824500,2.149824462890625,-0.0835534226347403,-0.1135734990239143,-0.0647012270325111,-0.0289406459778547,0.1262198931558232,0.9707932466830822,0.241513777114454,right,-0.0031102299690246,-0.4028392635854622,-0.752912782298401,-8.990170535263418,-0.1935009032365321,0.0265446901321411,0.0028881356120109,3.844520295456052,0.0346672236919403
2025-04-30 00:16:51.397824500,2.189824462890625,-0.0862531757844241,-0.1360451877117157,-0.0650604947063599,0.0089914333075284,0.1234817751310499,0.9717769640745642,0.2354679295117226,right,-0.0121611952781677,-0.3959602750504951,-0.779441089066118,-9.014240562158822,-0.1901808669753579,0.2237927764654159,6.0349702835e-06,3.782369836491346,0.0298852622509002
2025-04-30 00:16:51.437824500,2.229824462890625,-0.0870218739635019,-0.0671773925423622,-0.0643596052582745,0.0193667244166135,0.1210271506456326,0.9731946935153548,0.2305054013751204,right,-0.00718754529953,-0.384412469182979,-0.7901137281194329,-9.056549425578115,-0.1846681000375454,0.2687149345874786,-0.0004748702049255,3.677636957862973,-0.0027832388877868
2025-04-30 00:16:51.477824500,2.269824462890625,-0.0865451539136781,-0.0076904296875,-0.0638254145295486,0.019007658585906,0.1208133754206038,0.9737424131011848,0.2302691091511923,right,0.0017745494842529,-0.3790479452135025,-0.7874901746828109,-9.076450057834386,-0.1820883169550265,0.1844819039106369,0.0001211166381835,3.628815643809736,-0.0154789388179779
2025-04-30 00:16:51.517824500,2.309824462890625,-0.0857717092560592,0.0296399518847465,-0.0634136985590041,-0.0004253443330526,0.1212723802170467,0.9739506147126726,0.2314113136095608,right,0.0055053830146789,-0.3764050391170647,-0.7812886896941811,-9.086579822182657,-0.1808094276455851,0.0518836826086044,0.0005605965852737,3.604724574126303,-0.0227702260017395
2025-04-30 00:16:51.557824300,2.34982421875,-0.0856946703430142,0.0319826491177082,-0.0636304383285391,-0.0402885302901268,0.1221998732815836,0.9736877008090586,0.2332979553975443,right,0.0068194270133972,-0.37798088609161,-0.7801015257362276,-9.080968996563554,-0.1815229727264085,-0.1054855734109878,0.0018282383680343,3.6190921221748,-0.0243171155452728
2025-04-30 00:16:51.597824500,2.389824462890625,-0.0875647016295651,-0.0034791380167007,-0.064939137872804,-0.0499680750072002,0.1226647129183763,0.9729515466391756,0.2337622718929964,right,0.0121604800224304,-0.3846918876800616,-0.7949399061668664,-9.055095135116575,-0.18466596858954,-0.1956541836261749,0.0017972290515899,3.680176997734606,-0.0150330364704132
2025-04-30 00:16:51.637824500,2.429824462890625,-0.0890577214215675,-0.0280451420694589,-0.0657987140092324,-0.0267730597406625,0.1222154048534197,0.9725092775422208,0.2324504299899123,right,0.002937912940979,-0.3895283010007754,-0.8068659062821417,-9.03606427143216,-0.1869744945475585,-0.1742313206195831,0.0009407103061676,3.724096218959987,-0.0037045776844024
2025-04-30 00:16:51.677824500,2.469824462890625,-0.0909672037900859,-0.034737542271614,-0.0667875341224026,-0.0282932203263044,0.1213992650080285,0.9720764332278164,0.2302910072865822,right,-0.0129991769790649,-0.3945804892681871,-0.8223989909786731,-9.015654520609974,-0.1893909883523345,-0.1074513867497444,-0.0005685463547706,3.769882110840082,0.0170078873634338
2025-04-30 00:16:51.717824500,2.509824462890625,-0.0932007816046004,-0.0281826797872781,-0.0678079543285677,-0.0313515625894069,0.1205880425658238,0.9718582162928632,0.2281220938422851,right,-0.0153053402900695,-0.3973184130841642,-0.8415703591123223,-9.003484774866699,-0.190662267831355,-0.0071351155638694,-0.0003385618329048,3.794654733046889,0.0275388956069946
2025-04-30 00:16:51.872949200,2.66494921875,-0.1000616796432919,0.0132478745654225,-0.0707951292323773,-0.0537336505949497,0.1218751159252745,0.9724861767933662,0.229689234934316,right,0.0192574970424175,-0.387658709908865,-0.9069415336892008,-9.033550827306508,-0.1854862177488235,0.0222778040915727,-0.0007418363820761,3.7071290098071095,-0.019200250506401
2025-04-30 00:16:52.015554800,2.807554931640625,-0.1003105864692884,0.0177809260785579,-0.0713735299587579,0.0300645548850297,0.122420770380285,0.9716988369726508,0.2305648121526965,right,0.0013759199064224,-0.3949624972526406,-0.9064542616289109,-9.006143764942884,-0.1889980488864129,-0.0800107792019844,-0.0028498941101133,3.773340142339468,0.0092386342585086
2025-04-30 00:16:52.055554800,2.847554931640625,-0.0985304360910962,0.0057267872616648,-0.0705730597076763,0.0444583594799041,0.1224385951813347,0.9716818963417204,0.2309328177426966,right,-0.0120762586593627,-0.3955368536350277,-0.8902072565093636,-9.005584962016343,-0.1893736603517345,0.0422696992754936,-0.0002668425440788,3.778538587765396,0.011541873216629
2025-04-30 00:16:52.095554800,2.887554931640625,-0.0983199688521622,-0.0060026589781045,-0.0702999711575791,0.0088682435452938,0.1224084988214808,0.9720277425821736,0.2310014321969859,right,-0.0092687010765075,-0.3921044992514931,-0.8895796991955488,-9.018625645375252,-0.1877124480813503,0.0736354514956474,0.0003583058714866,3.747455174976587,0.0090433657169342
2025-04-30 00:16:52.135554800,2.927554931640625,-0.0981100568736081,-0.0177321042865514,-0.0700266845693884,-0.0267218723893165,0.1223780969601885,0.972370766097691,0.2310693002205807,right,-0.0064719915390014,-0.3886721833946671,-0.8889412551615387,-9.031559945750235,-0.1860506910267684,0.1050012111663818,0.000982329249382,3.716328215306997,0.0065493881702423
2025-04-30 00:16:52.175554800,2.967554931640625,-0.0995882316439019,-0.0054194377735257,-0.0705446523648721,-0.0254940036684274,0.1222676441098195,0.972651299156112,0.2306441096122963,right,0.0057737827301025,-0.3855512000103822,-0.9034392246566711,-9.04173296471834,-0.1844542203299397,0.0344628915190696,0.0022409930825233,3.687986794702709,-0.0079955458641052
2025-04-30 00:16:52.215554800,3.007554931640625,-0.1006952663648953,0.003190491348505,-0.0712283077484554,-0.0220048651099205,0.1224448616385086,0.972344848585604,0.2307245712121439,right,0.0111898779869079,-0.3882230243939062,-0.9124543788265436,-9.030891252708434,-0.1856857651134756,-0.0493401512503623,0.001846894621849,3.712251759648322,-0.0141566097736358
2025-04-30 00:16:52.255554800,3.047554931640625,-0.1018033119379925,0.0118004214018583,-0.0719118086372906,-0.0185157246887683,0.1226217183440552,0.9720363200824432,0.2308016944378249,right,0.0165984630584716,-0.3908949003449489,-0.9214491477955132,-9.019975306418536,-0.1869169174119004,-0.1331431865692138,0.0014507174491882,3.736490713369846,-0.0203150510787963
2025-04-30 00:16:52.295554800,3.087554931640625,-0.1013923850034054,0.0172777716070413,-0.0720162149929743,0.0117601789534091,0.1228076790259775,0.9714995853976078,0.2311160932267127,right,0.0024676322937011,-0.3962249706012014,-0.915713672883436,-9.000411358770728,-0.189526717547478,-0.0890124142169952,-0.0006146878004074,3.784764622673392,0.0017830431461334
2025-04-30 00:16:52.335554800,3.127554931640625,-0.1010789894232072,-0.0019938126206398,-0.0719008959869377,0.0055830092169344,0.122810740112853,0.9714450809532594,0.2311665280846343,right,-0.0032374262809753,-0.3968488158769988,-0.912654504508525,-8.998347411978244,-0.189847879004531,-0.0219165682792663,-0.0006120949983596,3.7904078892573714,0.0122874677181243
2025-04-30 00:16:52.375554800,3.167554931640625,-0.1010690886478618,-0.0109584145247936,-0.0718004391767522,-0.0013620983809232,0.1226346255569693,0.971591739705006,0.2308402418227881,right,-0.0071212649345397,-0.3955915744299463,-0.9130455496527254,-9.003090222591162,-0.1892480594648371,0.0475510880351066,-0.0002637207508087,3.77903367780596,0.0132065713405609
2025-04-30 00:16:52.415554800,3.207554931640625,-0.1017060245168004,-0.0108688622713088,-0.0719041687540588,-0.019219359382987,0.1224625755907143,0.9719216088064304,0.2304536889767514,right,-0.0032159090042114,-0.3922988719705483,-0.9200381119538098,-9.014836774486303,-0.1876193066624018,0.0784177854657173,-0.0008060187101364,3.7492166316911577,0.0044869184494018
2025-04-30 00:16:52.455554800,3.247554931640625,-0.1024598659093403,-0.0037934673018753,-0.072152318550459,-0.0239607822149992,0.122513005262481,0.9721257549196872,0.2304785229108331,right,0.0032883286476135,-0.3899533393807666,-0.9277304930873216,-9.022864013597369,-0.1864296163747014,0.0468334257602691,-0.0005559176206588,3.727952017605305,-0.0030187666416168
2025-04-30 00:16:52.495554800,3.287554931640625,-0.1033060826542015,0.0168832503259181,-0.0725559201124929,-0.0247127842158079,0.122832283266435,0.9721718275945136,0.2310049563053446,right,0.0058317184448242,-0.3888511125460062,-0.9357886387933044,-9.026157209923864,-0.1858216413546727,0.0137356594204902,0.001347616314888,3.7179520171165454,-0.0097465217113494
2025-04-30 00:16:52.535554800,3.327554931640625,-0.1036153188243525,0.0238229688256979,-0.0727982156870875,-0.0048522930592298,0.1232997107469512,0.9720889410439588,0.2319026938767127,right,0.0081174969673156,-0.3890171680570235,-0.938515944865346,-9.025252954560518,-0.1858508971492578,-0.0146644618362188,0.0004773363471031,3.71945891454816,-0.008918285369873
2025-04-30 00:16:52.575554800,3.367554931640625,-0.1033214166323768,0.0267692729830741,-0.0727968377169015,0.0019987914711236,0.123756450291525,0.971941747093046,0.2328701749794248,right,0.0034244656562805,-0.3900100179903336,-0.935482057062164,-9.02185103716254,-0.1863175058900152,-0.0378161445260047,-0.0001556426286697,3.728466104607284,-0.0004244744777679
2025-04-30 00:16:52.615554800,3.407554931640625,-0.1026290310327886,0.0184365883469581,-0.0726206494352313,0.0153238857164978,0.1240932475877298,0.9717516382185674,0.2336485589023172,right,-0.0002306103706359,-0.3916930616470592,-0.9285909823741764,-9.01624196510911,-0.1871519011485954,-0.0517657026648521,0.0011936351656913,3.743726509842277,0.0053883790969848
2025-04-30 00:16:52.655554800,3.447554931640625,-0.1016458877620116,-0.0091964770108461,-0.0722276612316468,0.0140850087627768,0.1239696496727858,0.9716117766928614,0.2335330282285037,right,-0.0074456334114074,-0.3935249767673207,-0.9190288618460296,-9.010312575060128,-0.1881092131461189,-0.0271486919373273,-0.0025632008910179,3.760324301160872,0.00592041015625
2025-04-30 00:16:52.695554800,3.487554931640625,-0.1022616748659941,-0.0149593809619545,-0.0724885713139574,-0.0306775793433189,0.123772137718342,0.9715998630026428,0.2330009495109773,right,-0.0130968689918518,-0.3937522861014462,-0.9244898306656628,-9.00889452495575,-0.1882009955925169,0.0111313592642545,0.0024340227246284,3.762382987256348,0.0034713149070739
2025-04-30 00:16:52.735554800,3.527554931640625,-0.1050343833526693,-0.0193569175899028,-0.0737548899347728,-0.0811970829963684,0.1236959654816984,0.9715722341463074,0.232316478952335,right,-0.006288468837738,-0.3934378808955431,-0.949589273674041,-9.007472383198142,-0.1879013787392209,0.0034840237349271,0.0049115121364593,3.75953548887074,0.0005349516868591
2025-04-30 00:16:52.775554800,3.567554931640625,-0.1082075907425431,0.0061611197888851,-0.0752749868110987,-0.0665347799658775,0.1239047026258744,0.9714736099943018,0.2321353706801044,right,0.0047333240509033,-0.393354125698782,-0.9782010356523096,-9.004726883882284,-0.187670914835813,-0.0088543407618999,0.0055314823985099,3.758777071718872,-0.0052119493484497
2025-04-30 00:16:52.815554800,3.607554931640625,-0.1083280958955233,0.0167210437357425,-0.0754848455579947,-0.022548709064722,0.1244627591930901,0.9713072054171384,0.2332320940089843,right,0.0105421543121337,-0.3942906586538067,-0.9789050922684372,-9.001105186253785,-0.1880781209477846,-0.0122291557490825,0.0019429698586463,3.767258192077279,-0.0036440193653106
2025-04-30 00:16:52.855554800,3.647554931640625,-0.1084475070827421,0.0272809695452451,-0.0756946574988735,0.0214373655617237,0.1250207917929349,0.9711402886619076,0.2343292274264807,right,0.0163502693176269,-0.3952273504858919,-0.979597531512007,-8.997476474362612,-0.1884852347404952,-0.0156039707362651,-0.0016467273235321,3.775737558870017,-0.0020758807659149
2025-04-30 00:16:52.895554800,3.687554931640625,-0.1065632780189686,-0.0168790388852357,-0.0748316824748862,0.062935397028923,0.124903699209398,0.9711228429292228,0.234429588219947,right,0.0014766454696655,-0.3960442864752244,-0.9623140960168092,-8.996236118912696,-0.1889968639874044,-0.0234645530581474,0.0003775656223297,3.783130007208884,0.0060625970363616
2025-04-30 00:16:52.935554800,3.727554931640625,-0.1044482499414032,-0.0564165562391281,-0.0736538492636467,0.0511946901679039,0.1238722098911912,0.971285306739303,0.2327106790274624,right,-0.0168327093124389,-0.3962713417441032,-0.9431951156575232,-8.997396394863724,-0.1893027665853635,-0.0020821895450353,-0.00350172072649,3.785184309390187,0.015542984008789
2025-04-30 00:16:52.975554800,3.767554931640625,-0.1047628673037951,-0.0282776243984699,-0.0735534892415686,-0.0455942675471305,0.1229796662468558,0.9715401411966996,0.2308558355175105,right,-0.02321058511734,-0.394758639841364,-0.9466234826710076,-9.002783933120966,-0.1886150763862902,0.0729981362819671,0.0032824873924255,3.771494806733727,-0.0015683472156524
2025-04-30 00:16:53.015554800,3.807554931640625,-0.1078159299227733,0.0576097257435321,-0.0749691855588844,-0.1382142901420593,0.1236944604367691,0.9716758523750249,0.2318303707373721,right,-0.0247117280960083,-0.3916633562798816,-0.9753566060066222,-9.011414398822188,-0.186883205423434,0.0939264893531799,0.0071796774864196,3.74345704525113,-0.0101641118526458
2025-04-30 00:16:53.055554800,3.847554931640625,-0.1115370047504576,0.1496863514184951,-0.077132277810341,-0.1542410403490066,0.1265619509747908,0.9714622038556736,0.237102796231649,right,0.0002704858779907,-0.3890678762364188,-1.009960009615123,-9.017347880524396,-0.1851858445013508,0.0620561614632606,0.0075161755084991,3.7199189332753417,-0.009911835193634
2025-04-30 00:16:53.095554800,3.887554931640625,-0.1126731821423167,0.1347642689943313,-0.0782720016780492,-0.0346274971961975,0.1300864555075502,0.9710860380265716,0.2441842241990742,right,0.0338068008422851,-0.3878314760284294,-1.020720984539017,-9.020757981228828,-0.1842357766310532,0.0247628539800643,0.0052693933248519,3.708697282037139,0.0065472424030303
2025-04-30 00:16:53.135554800,3.927554931640625,-0.109745832279366,0.042670615017414,-0.0772043559568107,0.0803597047924995,0.1318042375457838,0.9709750992001178,0.2482914693614244,right,0.0245811343193054,-0.3873842823428196,-0.9944912953916936,-9.025355245891213,-0.1840500822591813,0.0129756461828947,-0.0109498649835586,3.704637192991376,0.0094006657600402
2025-04-30 00:16:53.175554800,3.967554931640625,-0.106172414535494,-0.0435278713703155,-0.0754263855435565,0.0752629488706588,0.1313511438687876,0.9711638870694872,0.2480465991518511,right,-0.0022900700569152,-0.3870165450978718,-0.9623779550332576,-9.030205024009945,-0.1841154842367874,0.0155108626931905,-0.0160686522722244,3.701297819435596,0.0048638880252838
2025-04-30 00:16:53.215554800,4.007554931640625,-0.1055795937099079,-0.049342356622219,-0.0749232157735698,0.0163044221699237,0.1301387461849004,0.9713341020394172,0.2456600995125828,right,-0.0112317204475402,-0.3870981335190664,-0.9569926087331028,-9.030473904079198,-0.1842836713279797,-0.0088059697300195,-0.0011539533734321,3.702038993191719,-0.0011268556118011
2025-04-30 00:16:53.255554800,4.047554931640625,-0.107305704706684,-0.0034961253404617,-0.0756593983028755,-0.0482447184622287,0.1295101728507423,0.9712861535710724,0.2440113655847675,right,-0.0147294998168945,-0.3880109208500495,-0.9722164813499896,-9.025445262262224,-0.18467813120338,-0.0215029250830411,0.0049964785575866,3.710326344543695,-0.0123287737369537
2025-04-30 00:16:53.295554800,4.087554931640625,-0.1097236812473388,0.0457025542855262,-0.0769399551237493,-0.0840197429060936,0.1301513381599683,0.9710876423307508,0.2448561513173554,right,-0.0096158981323242,-0.3885314628790056,-0.993825305763632,-9.02114668828547,-0.1847423705600149,-0.0148650836199522,0.0070435106754302,3.7150513272389767,-0.011506050825119
2025-04-30 00:16:53.335554800,4.127554931640625,-0.1118954528849342,0.0841181948781013,-0.0783065045533799,-0.0777790993452072,0.1317905704047053,0.9707374359749,0.2477964307467248,right,0.0062112808227539,-0.3892706995420454,-1.013107879186794,-9.016235535368322,-0.1848458946633207,-0.0281623676419258,0.0077690929174423,3.72175930044502,-0.0072003304958343
2025-04-30 00:16:53.375554800,4.167554931640625,-0.1120613272785079,0.0925938040018081,-0.0788252836783681,-0.0093909054994583,0.1337573101701509,0.970341903613274,0.2517784092941385,right,0.0214824676513671,-0.3905258443565598,-1.0140802313502877,-9.011418490475416,-0.1852892282459331,-0.0348984710872173,0.0048067867755889,3.733144325551392,-0.0033135712146759
2025-04-30 00:16:53.415554800,4.207554931640625,-0.1094010554586075,0.0597218722105026,-0.0779094511795879,0.0627442896366119,0.1351509975816219,0.9701081988790202,0.2551259456404568,right,0.0144598484039306,-0.391658499763321,-0.9896415903382004,-9.009875352686644,-0.1858879109157891,-0.0116525329649448,-0.0035901367664337,3.743413206109405,0.0006997883319854
2025-04-30 00:16:53.455554800,4.247554931640625,-0.1052216805243478,0.0056981891393661,-0.0760151771905157,0.0932605117559433,0.1355392770273677,0.9701890475777776,0.2567355720998936,right,0.0018402338027954,-0.391369094505752,-0.952091173492372,-9.01500979296565,-0.1859680146386665,0.0196800604462623,-0.0075250566005706,3.740789871868491,0.0199827253818511
2025-04-30 00:16:53.495554800,4.287554931640625,-0.1025656508983023,-0.0570028945803642,-0.0745647594800017,0.0686572268605232,0.1349390447646889,0.9705046802989498,0.2560518473290828,right,-0.0132430791854858,-0.3896629252651273,-0.9287957842312752,-9.023842503240704,-0.1853433798531759,0.0524778254330158,0.0005796924233436,3.7253175774484872,0.0233465433120727
2025-04-30 00:16:53.535554800,4.327554931640625,-0.1033075199221415,-0.1058530583977699,-0.0744855679210672,-0.0203870758414268,0.1331967222072596,0.9708943099493172,0.2523660759074388,right,-0.0217266678810119,-0.387942388677321,-0.9361496541254222,-9.029512950092554,-0.1845937490967903,0.0307186972349882,0.00310879945755,3.709704120992124,0.0184888541698455
2025-04-30 00:16:53.575554800,4.367554931640625,-0.1076268231861552,-0.1096774563193321,-0.0760920848850102,-0.0928686186671257,0.1312135756152336,0.9711254108727804,0.2474814777644094,right,-0.0112872123718261,-0.3872240011535208,-0.9754279907424004,-9.028032356145978,-0.1841424258743793,-0.001211991533637,0.0039842054247856,3.703181733486056,0.0100296735763549
2025-04-30 00:16:53.615554800,4.407554931640625,-0.1119499128298483,-0.0555794797837734,-0.0778891663860659,-0.0640196949243545,0.1299470137279856,0.9711576828805684,0.2440454166293714,right,0.0146148204803466,-0.3874841333494744,-1.0143401243954897,-9.022773412704469,-0.184119089855036,0.0025531791616231,0.005317747592926,3.70554378644228,-0.0106117725372314
2025-04-30 00:16:53.655554800,4.447554931640625,-0.1123270058884394,0.0042761974036693,-0.0779753388714712,0.0295968949794769,0.129518186079187,0.971222004619314,0.2430965356510473,right,0.0189200639724731,-0.3873066407349545,-1.0178162030082196,-9.023044046339391,-0.1840451905807012,0.0209740065038204,-0.0028285011649131,3.703932259592414,-0.0074752569198608
2025-04-30 00:16:53.695554800,4.487554931640625,-0.1090954934449793,0.0573885887861251,-0.0765358362421879,0.0515098050236702,0.130146190126307,0.9713081858538576,0.2450292396254639,right,0.0001236796379089,-0.3864257498212217,-0.9890076763488352,-9.029525809574126,-0.18375138164022,0.0253180023282766,-0.0063888058066368,3.695932200749218,-0.0033858120441436
2025-04-30 00:16:53.735554800,4.527554931640625,-0.1071745092414863,0.0670810863375663,-0.0757823852938755,-0.0325710996985435,0.1311726719686961,0.9713076040875892,0.2475332482411415,right,-0.0242934226989746,-0.3855116935654721,-0.9720212510388344,-9.0347642947495,-0.1833364461071798,0.0437359623610973,-0.0182091444730758,3.687627606001496,-0.0051046311855316
2025-04-30 00:16:53.775554800,4.567554931640625,-0.1104989608278973,0.0807080119848251,-0.0776334745513141,-0.1491537243127823,0.133138548714703,0.9710918155335166,0.2509990389811454,right,-0.0130571722984313,-0.3840757935089437,-1.0026343429021536,-9.036735887083411,-0.1822847239667722,0.0253767650574445,0.003371462225914,3.674576108987629,-0.0004467368125915
2025-04-30 00:16:53.815554800,4.607554931640625,-0.1147224881649383,0.1721025109291076,-0.0799792601101003,-0.2590726315975189,0.1356817527193081,0.9708196349583992,0.2555119168830294,right,-0.0481685400009155,-0.3820549875240352,-1.0416400731228292,-9.03977890804112,-0.1808392692560664,0.1593218594789505,-0.0625655129551887,3.6561949413836,-0.0494453608989715
2025-04-30 00:16:53.855554800,4.647554931640625,-0.1286455314933903,0.1707026958465576,-0.0870467504864907,-0.3825410008430481,0.1417705106866922,0.970534843386268,0.2658887515989024,right,0.0440198183059692,-0.3715289483712494,-1.1722688788995146,-9.062067312216758,-0.1743158253825865,0.3767309188842773,0.030451089143753,3.5602114786610004,0.0283959209918975
2025-04-30 00:16:53.895554800,4.687554931640625,-0.1325613986906653,0.0878332555294036,-0.0889534251759104,0.0682975351810455,0.145547030433133,0.9708251058344732,0.2734071273357523,right,0.0861214995384216,-0.3609011808122078,-1.2126784115035083,-9.09440014054477,-0.1685286498288883,0.2011499553918838,0.0310509875416755,3.462900274465978,0.0426749587059021
2025-04-30 00:16:53.935554800,4.727554931640625,-0.1250954850365323,0.0922038331627845,-0.0854344315148701,0.1685504168272018,0.147185920042727,0.97124519775152,0.2782624087335096,right,0.025130808353424,-0.3560348888867953,-1.146836185348779,-9.119812229698896,-0.1664929972353359,0.1527798175811767,0.0094648003578186,3.4182118224337694,-0.0163911879062652
2025-04-30 00:16:53.975554800,4.767554931640625,-0.1170709315172189,0.0269284769892692,-0.0815397864802146,0.1108809858560562,0.14860912359979,0.9717761003903288,0.2827636981471361,right,-0.0129519701004028,-0.3502225252940048,-1.0759201630610973,-9.14829948851466,-0.1640664555396831,0.1750483065843582,0.0167911946773529,3.3647292385712264,0.0168845951557159
2025-04-30 00:16:54.015554800,4.807554931640625,-0.1187287111928757,-0.0263720713555812,-0.0820617918529939,0.0328317210078239,0.1473314520809567,0.9719883806316152,0.2798801079901357,right,-0.007104218006134,-0.3494816751749256,-1.0913794518690556,-9.14897578034103,-0.1637006684707965,0.0864138379693031,0.0135829374194145,3.357904068726301,0.0018826127052307
2025-04-30 00:16:54.055554800,4.847554931640625,-0.1203837372369552,-0.0796726122498512,-0.0825836144340131,-0.0452175363898277,0.1460534698076755,0.9721986152796918,0.2769985981565072,right,-0.0012577772140502,-0.3487363120052528,-1.106820035976544,-9.149639212685823,-0.1633345327269038,-0.0022206231951713,0.0103727579116821,3.351035352000594,-0.0131149291992187
2025-04-30 00:16:54.095554800,4.887554931640625,-0.1218335644055428,-0.0805505961179733,-0.0830621147657402,0.0146407522261142,0.1445474983679296,0.972312183580618,0.2736281101141761,right,0.007011592388153,-0.3495286281976651,-1.1197612044837326,-9.145386815938354,-0.1637550876915367,-0.0398001596331596,0.0100822821259498,3.358336614924669,-0.0002241432666778
2025-04-30 00:16:54.135554800,4.927554931640625,-0.1201731772611198,-0.0705871880054473,-0.082118272107911,0.0954183340072631,0.1426028558171661,0.972392820025456,0.269803609118004,right,0.0007649064064025,-0.3524336971462262,-1.1034005829218774,-9.137508629909156,-0.1654487422968397,-0.1127615794539451,-0.0003347098827362,3.3850887205109,-0.0067307949066162
2025-04-30 00:16:54.175554800,4.967554931640625,-0.1164246687459151,-0.0396250486373901,-0.0803259354622625,0.1401887387037277,0.1407911039597939,0.9723206630668936,0.2665453157325196,right,-0.0059072375297546,-0.3574239906163376,-1.0671652672626075,-9.124688895824551,-0.168279789937989,-0.1532745063304901,-0.0005024597048759,3.430976611460745,-0.0055240392684936
2025-04-30 00:16:54.215554800,5.007554931640625,-0.1132855310112533,-0.0152524523437023,-0.0789911532902668,0.054160326719284,0.1396049291600787,0.9720228257826384,0.2644491097090297,right,-0.0206795930862426,-0.3635878123368672,-1.0361060390669852,-9.106807786697148,-0.1715878801248434,-0.1327564567327499,-0.0070032328367233,3.4875372875943778,-0.0134506523609161
2025-04-30 00:16:54.255554800,5.047554931640625,-0.1139806589449954,-0.0183196812868118,-0.0793769896549926,-0.0382487997412681,0.1392187454156884,0.9718551313696566,0.2634586736324256,right,-0.0120810866355896,-0.365827735156305,-1.041545088315755,-9.09830182415843,-0.172670204911456,-0.0185189247131347,0.0046287029981613,3.5080586820974946,-0.0009852945804595
2025-04-30 00:16:54.295554800,5.087554931640625,-0.1161436971368519,-0.0108551578596234,-0.0803354897340083,-0.0432681031525135,0.1390694904657656,0.9718703424335564,0.262787107686112,right,-0.0112725496292114,-0.3652421129462253,-1.0614605528149754,-9.098066261836886,-0.1722611554248283,0.0059933010488748,0.0078737214207649,3.50269510923773,-0.0002066493034362
2025-04-30 00:16:54.335554800,5.127554931640625,-0.1157716957367975,-0.0006064129993319,-0.0801354040673594,-0.0001206398010253,0.1390502340536113,0.9719185017774972,0.262826334663665,right,0.0030108094215393,-0.36485832818159,-1.058231142439693,-9.099795277586578,-0.1720984104574814,0.0105127347633242,0.0051298066973686,3.4991795023322103,-0.0021603405475616
2025-04-30 00:16:54.375554800,5.167554931640625,-0.1157716957367975,0.0096423318609595,-0.0801354040673594,0.0430268235504627,0.1390502340536113,0.9719185017774972,0.262826334663665,right,0.0171178579330444,-0.36485832818159,-1.058231142439693,-9.099795277586578,-0.1720984104574814,0.0150321684777736,0.0027151927351951,3.4991795023322103,-0.0044725537300109
2025-04-30 00:16:54.415554800,5.207554931640625,-0.1130480012260436,0.0070650335401296,-0.0788320986199783,0.0791430845856666,0.1390393240391271,0.97202569536753,0.2632973244259504,right,0.0219537615776062,-0.364517866959423,-1.0335765205893666,-9.103826725059749,-0.1721031446305321,-0.0031931847333908,0.0057016536593437,3.496060201267898,0.0088283717632293
2025-04-30 00:16:54.455554800,5.247554931640625,-0.1096822137862677,-0.0023195222020149,-0.0771873623268147,0.0893130600452423,0.138809846807477,0.9721796096314848,0.2634319547877978,right,0.0092862248420715,-0.3641752683183257,-1.0030602401640265,-9.108444447988273,-0.172164709335596,0.0203507989645004,0.0037199109792709,3.492921026459336,0.0090591311454772
2025-04-30 00:16:54.495554800,5.287554931640625,-0.1062642477865568,-0.0448961295187473,-0.0753614535080816,0.1040627136826515,0.1380989594692595,0.9725135304003704,0.2626212983495709,right,0.0198169350624084,-0.3625886534163073,-0.9725086692295968,-9.117318659317492,-0.1716588385141479,0.0668688639998436,-0.0021257847547531,3.478377829582989,0.0060283243656158
2025-04-30 00:16:54.535554800,5.327554931640625,-0.1033558717979438,-0.0774638205766677,-0.073587283561843,0.1061160415410995,0.1366780567586766,0.9730307262904526,0.2602883669315232,right,0.0081381201744079,-0.3598944278320303,-0.9469514725163578,-9.129397219645975,-0.1706317610763625,0.0879231095314025,-0.0063721388578414,3.4536616137385368,0.0032303035259246
2025-04-30 00:16:54.575554800,5.367554931640625,-0.0999373412247258,-0.1088101863861084,-0.0714794575525637,0.11678097397089,0.134363966081933,0.9735795361561635,0.2561754479020797,right,-0.0274823307991027,-0.3582999413853939,-0.9162851160958408,-9.138048728135228,-0.1702347401431642,-0.0022540763020515,-0.0171932727098464,3.439022555272281,0.0159285068511962
2025-04-30 00:16:54.615554800,5.407554931640625,-0.0986172074427024,-0.0481066517531871,-0.0705709814298233,0.0150237306952476,0.1325093857687593,0.9738018600678668,0.2525785295159314,right,-0.0485405921936035,-0.3590056695225486,-0.9039816609703004,-9.13683292260468,-0.1707949262488845,-0.0516994297504425,-0.0141492560505867,3.445502857202291,0.0036939680576324
2025-04-30 00:16:54.655554800,5.447554931640625,-0.100640508567355,0.0108878165483474,-0.0716254310580944,-0.0580436289310455,0.1321886253672495,0.9735408952478216,0.2514871832863422,right,-0.0159299373626709,-0.3618490631273878,-0.9214783738899976,-9.125200352478029,-0.1720872895364417,-0.0937144607305526,0.0021537765860557,3.4715953298360107,-0.0010029971599578
2025-04-30 00:16:54.695554800,5.487554931640625,-0.1026471392020359,0.0426075421273708,-0.0727237488198746,-0.0395428538322448,0.1325138050544736,0.9732907745612676,0.2517518467335538,right,0.0338277220726013,-0.3635807068616838,-0.9391700248599052,-9.117339702105522,-0.1727897496835745,0.0745420455932617,-0.0031801983714103,3.487472113403678,-0.0553973019123077
2025-04-30 00:16:54.735554800,5.527554931640625,-0.0982437099339667,0.1345106065273285,-0.0704879145136432,0.1429156810045242,0.134592111883755,0.973954667111247,0.2570469402731234,right,0.0377079844474792,-0.3541877931818988,-0.9021868134427816,-9.153583566397428,-0.1683109411130061,0.3077675402164459,0.0032391548156738,3.401227954407036,-0.0190879106521606
2025-04-30 00:16:54.775554800,5.567554931640625,-0.0896259740397812,0.1354911923408508,-0.0663062533833184,0.1613771468400955,0.1370427075285701,0.9746012354860728,0.2637648964884919,right,-0.0046843886375427,-0.3451236062652326,-0.8259966501444578,-9.19134718760252,-0.1642412346967764,0.133294478058815,-0.0051320046186447,3.3177176042884584,0.0112096965312957
2025-04-30 00:16:54.815554800,5.607554931640625,-0.0833352026450819,0.0913091748952865,-0.0636446824488545,0.1133414804935455,0.1389086152734547,0.9744656285108414,0.2686547529879348,right,-0.0157840847969055,-0.3451527971644426,-0.7681519986148924,-9.196264770260452,-0.1645306248682307,-0.0980848371982574,0.0075155049562454,3.3179870688796043,0.0168346762657165
2025-04-30 00:16:54.855554800,5.647554931640625,-0.0810686451485209,-0.0029253140091896,-0.0630595708290519,-0.0015543922781944,0.1394572553372196,0.9738703102921044,0.270056418447484,right,-0.0194825530052185,-0.351588337510763,-0.7455615427527577,-9.176509099432826,-0.1677847565613717,-0.1708176732063293,0.0120309889316558,3.3773069805935023,0.0142317116260528
2025-04-30 00:16:54.895554800,5.687554931640625,-0.0841041440375802,-0.0810427069664001,-0.0647061608909353,-0.1087830886244773,0.1385420336530603,0.9733965298508532,0.2675441317142537,right,-0.0242775082588195,-0.3577122930558638,-0.7716613949753344,-9.153422238355876,-0.17064125421747,-0.1396080106496811,0.008178599178791,3.433625080142915,0.0172858238220214
2025-04-30 00:16:54.935554800,5.727554931640625,-0.0909450819996538,-0.0632234662771225,-0.0680267150593778,-0.1276830434799194,0.1371240323338511,0.9729278814596786,0.2633081810207084,right,-0.0105597972869873,-0.3635341884241023,-0.8324312132366001,-9.127866941338777,-0.1731492505988149,-0.1314834803342819,0.0082166343927383,3.487045704685152,-0.000829130411148
2025-04-30 00:16:54.975554800,5.767554931640625,-0.0978276890452839,-0.0454042255878448,-0.0713459513952419,-0.146583005785942,0.1357033750735027,0.9724402750930522,0.2590202368697741,right,0.0030913949012756,-0.3693288096109285,-0.8932459666181355,-9.1016587333709,-0.1756538768243845,-0.1233589574694633,0.0082592442631721,3.54009895721972,-0.018906682729721
2025-04-30 00:16:55.015554800,5.807554931640625,-0.1022505277720212,0.0381433814764022,-0.0736305070332041,-0.0931223034858703,0.1359819443918014,0.9720418347336944,0.2587215394557415,right,0.016753077507019,-0.3720646743904333,-0.932500191707164,-9.08795052601397,-0.1766975252141098,-0.0129995942115783,0.0089354366064071,3.565106264965236,-0.017609566450119
2025-04-30 00:16:55.055554800,5.847554931640625,-0.1034631700470664,0.0872084945440292,-0.0744308366762669,-0.0483056604862213,0.1375536238128912,0.971880805106146,0.2617616032901911,right,0.0114205479621887,-0.3710970052666356,-0.9438757913980632,-9.090240098255872,-0.1760305984881663,0.0469553098082542,0.00274258852005,3.556264202339947,-0.0076590776443481
2025-04-30 00:16:55.095554800,5.887554931640625,-0.1022745304221315,0.1165877878665924,-0.0741390730451124,0.0156978517770767,0.139720475014962,0.97180043176478,0.2664929237100595,right,0.0065696239471435,-0.3689405553796275,-0.9338508756637572,-9.098963502937554,-0.1748867236007357,0.0634127333760261,-0.0012135207653045,3.536547986739873,0.0008727014064788
2025-04-30 00:16:55.135554800,5.927554931640625,-0.0992685916762092,0.1090827956795692,-0.0730530867810319,0.0080904830247163,0.1421497145637218,0.9716898630190948,0.2720786539160861,right,-0.0018153190612792,-0.3671035188665112,-0.907138079174608,-9.108178490528465,-0.1739981614873424,0.0531926080584526,-0.0156158655881881,3.5197391830191016,0.0181316137313842
2025-04-30 00:16:55.175554800,5.967554931640625,-0.0965239693406288,0.0475336425006389,-0.0719328293941112,0.0633151233196258,0.1437149898375646,0.9716890327988112,0.2758330087902191,right,0.010912001132965,-0.3653052650600804,-0.8827448116742074,-9.116919430866837,-0.17318235059572,0.0586035922169685,-0.0169859156012535,3.503273493647576,0.0176183879375457
2025-04-30 00:16:55.215554800,6.007554931640625,-0.0928928353351666,-0.0017344951629638,-0.0700295994165488,0.0888644307851791,0.1433162856977702,0.9720142062780552,0.2757022410959771,right,0.0053106546401977,-0.3632902453037604,-0.8502873340532183,-9.127074914178252,-0.1724660425329112,0.0684272646903991,-0.0036670789122581,3.4848099084571,0.0102519392967224
2025-04-30 00:16:55.255554800,6.047554931640625,-0.0892642290467876,-0.0510026291012764,-0.068126069314116,0.1144137382507324,0.142916960049078,0.9723352885708804,0.2755638251367236,right,-0.0003066658973693,-0.3612757859982964,-0.8177874055299907,-9.13707374562323,-0.1717489907039449,0.0782509371638298,0.0096474438905715,3.46633697091639,0.0028864443302154
2025-04-30 00:16:55.295554800,6.087554931640625,-0.086617616804211,-0.0685584396123886,-0.0664445388887823,0.0869076922535896,0.1414354458228303,0.9728615150549648,0.2730364050471011,right,-0.0033943057060241,-0.358461325449981,-0.794443135625869,-9.148889271101355,-0.1706504703457749,0.0736236795783042,0.0179471224546432,3.4405046105235813,-0.0079228281974792
2025-04-30 00:16:55.335554800,6.127554931640625,-0.0855022046829395,-0.0468838810920715,-0.0655601641236743,0.001008965075016,0.1402552314818498,0.9732773083771302,0.2708512117870497,right,-0.0133296251296997,-0.3559822090659237,-0.7849637980103492,-9.158239867770671,-0.1695923903042477,0.0538646951317787,0.0156699195504188,3.417727546048164,-0.0149126052856445
2025-04-30 00:16:55.375554800,6.167554931640625,-0.0860047587213465,-0.0005381926894187,-0.0656374917969627,-0.0434524528682231,0.1399400833954725,0.9734656480981309,0.2701482204675869,right,-0.0094181895256042,-0.354258753576314,-0.7900710580214858,-9.163698717698454,-0.1687397039596474,0.0243600104004144,0.0098354443907737,3.401880865357816,-0.0183248221874237
2025-04-30 00:16:55.415554800,6.207554931640625,-0.0872248071644558,0.0352543629705905,-0.066269470285085,-0.0720958188176155,0.1406049783252362,0.9734303377748232,0.2713215966432609,right,-0.0021438598632812,-0.3532893856474517,-0.801537477800995,-9.166009332728386,-0.1681426283668243,0.0168224461376667,0.002159833908081,3.392963107147813,-0.0109443068504333
2025-04-30 00:16:55.455554800,6.247554931640625,-0.0886838025524181,0.0322299338877201,-0.0670078223698742,-0.0276516526937484,0.1414838326811941,0.9734192675617288,0.2729087379351027,right,0.0050719380378723,-0.351622700288269,-0.8154094974175095,-9.170449945524334,-0.1671739195511196,0.0421370938420295,0.0028128772974014,3.377623206935823,-0.0062730014324188
2025-04-30 00:16:55.495554800,6.287554931640625,-0.0888174347861732,0.0528960861265659,-0.0671389517361769,-0.0159342512488365,0.1424000080884449,0.97340973879328,0.2747971005240186,right,-0.0026631355285644,-0.3501789459915558,-0.8170666900400072,-9.175188664484024,-0.1663968992168918,0.0177779160439968,-0.0017929002642631,3.364327672033012,-0.0015025734901428
2025-04-30 00:16:55.535554800,6.327554931640625,-0.0898212227775307,0.0367009192705154,-0.0677546399117953,-0.0472105555236339,0.1433191812026594,0.973275275530967,0.2765193954886817,right,-0.0021846294403076,-0.349927736867527,-0.826351966388151,-9.175205031096937,-0.166144591179154,0.0218983646482229,-0.0037335455417633,3.3620135498717425,-0.0030858814716339
2025-04-30 00:16:55.575554800,6.367554931640625,-0.0908253621743419,0.0205057505518198,-0.0683702296531866,-0.0784868597984314,0.1442381707862427,0.973139558417362,0.2782418160509224,right,-0.0017077922821044,-0.3496781241541282,-0.8356408229328691,-9.175206200140714,-0.1658920510402462,0.026018813252449,-0.0056738555431365,3.359714040757716,-0.0046706497669219
2025-04-30 00:16:55.615554800,6.407554931640625,-0.094041716085315,-0.0204281155019998,-0.069849205174717,-0.099471665918827,0.1447670559890132,0.973172007470144,0.2788277081291695,right,0.0073984265327453,-0.3475877843937189,-0.8658047827892005,-9.179442814797165,-0.164619981082048,0.0859755799174308,-0.0074874013662338,3.3404479070127007,-0.0092332959175109
2025-04-30 00:16:55.655554800,6.447554931640625,-0.0992250967083478,-0.1012001037597656,-0.0717773085467094,-0.1443052589893341,0.144420089282337,0.973749287163112,0.2774296310306245,right,0.0111819505691528,-0.3400838730210402,-0.9158308695223182,-9.19951646553278,-0.1606337463637625,0.2961272299289703,-0.0058780759572982,3.2711671577766537,-0.0194214880466461
2025-04-30 00:16:55.695554800,6.487554931640625,-0.1067113574447587,-0.1371286064386367,-0.0740561317008865,-0.1517556458711624,0.1433701320665189,0.97521479378233,0.2745881513576821,right,0.0108552575111389,-0.3220337767203437,-0.9908025969415902,-9.2496111605227,-0.1513828382917299,0.4923039078712463,0.0101985037326812,3.103770317703485,0.0083304643630981
2025-04-30 00:16:55.735554800,6.527554931640625,-0.1123397418218311,-0.1354173123836517,-0.0754906609803673,-0.0947158336639404,0.1414954967812175,0.9765989247660722,0.2704278110251074,right,0.0099492669105529,-0.3060096997950552,-1.048288352030888,-9.292120514950156,-0.1432998423360842,0.2971633076667785,-0.0049288049340248,2.9543139157295224,0.0072617828845977
2025-04-30 00:16:55.775554800,6.567554931640625,-0.1156502653201047,-0.0649839863181114,-0.0763470805635093,-0.0390019491314888,0.1402616957488285,0.9773824313908336,0.2677622834550422,right,-0.0028868913650512,-0.2967645030695729,-1.0821499242961403,-9.3153324637115,-0.1386409895886196,0.162787914276123,0.0083607658743858,2.867736286994815,0.005118578672409
2025-04-30 00:16:55.815554800,6.607554931640625,-0.1146122138187445,-0.044915597885847,-0.0755474741662467,0.0141190811991691,0.1395815083625542,0.9777674732763836,0.2666490137321621,right,-0.0070079565048217,-0.293265184819036,-1.07362065394707,-9.326363560813665,-0.1370415181021987,0.1003457978367805,0.0043602362275123,2.834902231146395,0.0074826478958129
2025-04-30 00:16:55.855554800,6.647554931640625,-0.1135711526386249,-0.0248472075909376,-0.0747475748055992,0.0672401115298271,0.1389008527925258,0.97814873587881,0.2655332426995374,right,-0.0111414790153503,-0.2897669412706208,-1.0650281091034413,-9.337271908318996,-0.1354415114759898,0.0379036739468574,0.0003532543778419,2.8020436253786087,0.009849190711975
2025-04-30 00:16:55.895554800,6.687554931640625,-0.1108252773990177,0.0234854947775602,-0.0734128673597669,0.0464818030595779,0.1388052516741272,0.9782428080369838,0.2657208181053594,right,-0.0119943618774414,-0.2896950116059136,-1.039407418699935,-9.34036169102788,-0.1355899441886197,-0.0339024439454078,-0.0051609054207801,2.801367625813186,0.0084325671195983
2025-04-30 00:16:55.935554800,6.727554931640625,-0.1093941846413922,0.0067991521209478,-0.0729388213231058,0.0217845328152179,0.1389696595371491,0.978024301051144,0.2661427826517651,right,-0.008211612701416,-0.2928980229420286,-1.025054556763917,-9.332872212055324,-0.1372437609896358,-0.1013412401080131,0.001434676349163,2.831455305562913,0.0080851912498474
2025-04-30 00:16:55.975554800,6.767554931640625,-0.1094259993301408,0.0132552282884716,-0.0731654715238891,-0.0183520503342151,0.1389553751879585,0.9777589207821592,0.265982923835133,right,-0.0060356259346008,-0.2965084144682487,-1.0242284081380817,-9.322617360022663,-0.1390165285828283,-0.0614667870104312,0.0022080689668655,2.8653347788110373,-0.0023187696933746
2025-04-30 00:16:56.015554800,6.807554931640625,-0.1097285549931263,0.0055913892574608,-0.0734596893758889,-0.010145871900022,0.1392295375323134,0.9775728458208682,0.2664356526065381,right,-0.0046069622039794,-0.2983741781954812,-1.0264617201481014,-9.316977308309076,-0.1398929470516517,-0.0310904495418071,0.0080619230866432,2.882828057664633,0.0049654245376586
2025-04-30 00:16:56.055554800,6.847554931640625,-0.1101170396407004,0.006758039817214,-0.0736698272082088,-0.0242968499660491,0.1392812171142364,0.9775339207802056,0.2664758887904583,right,-0.0038177371025085,-0.2986577023456194,-1.0299912825137376,-9.315765009909867,-0.1400032994632576,0.0129706375300884,0.0029976814985275,2.8854855864360927,-0.0020090043544769
2025-04-30 00:16:56.095554800,6.887554931640625,-0.1104317797281721,0.0177833624184131,-0.0738305294317891,-0.0157626029103994,0.1395337594696134,0.9775224845673308,0.2669630454468961,right,-0.0059865117073059,-0.2982160626303421,-1.033063675696403,-9.316706090152262,-0.1397470536525474,0.0086750881746411,0.0052240490913391,2.8813460024133324,-0.0037798583507537
2025-04-30 00:16:56.135554800,6.927554931640625,-0.110201295424602,0.0392866246402263,-0.0739170926370283,-0.019580403342843,0.1405636433337009,0.9773188931744796,0.2690742928807196,right,-0.004749596118927,-0.2990481116068846,-1.0306522306405008,-9.314557972207664,-0.1400927524373089,-0.0270568020641803,0.006832480430603,2.889144401204586,0.0041970908641815
2025-04-30 00:16:56.175554800,6.967554931640625,-0.1099688887644412,0.0607898868620395,-0.0740035622302372,-0.0233982056379318,0.1415933760066007,0.9771139978616442,0.2711863005967852,right,-0.0035130381584167,-0.2998796404527731,-1.0282233960583806,-9.312405762609838,-0.1404382665835552,-0.0627886801958084,0.0084391236305236,2.896936077994108,0.0121746957302093
2025-04-30 00:16:56.215555000,7.00755517578125,-0.1098478332789618,0.0580102801322937,-0.0743145307201794,-0.0349008813500404,0.1427977377567593,0.9766988294873338,0.2735592651673425,right,-0.0099727511405944,-0.303099158773333,-1.0260683369163424,-9.303211233285069,-0.1419350674289177,-0.0879569798707962,0.0005184561014175,2.9270848402813074,0.0057050883769989
2025-04-30 00:16:56.255554800,7.047554931640625,-0.1121450330332029,0.0123818628489971,-0.075712325361391,-0.0926336795091629,0.1437187712751645,0.9762938743563524,0.2750167307545717,right,-0.0035143494606018,-0.3058221231663314,-1.0465410699721425,-9.29287513270974,-0.1430484692722345,-0.039773054420948,0.0021187737584114,2.952559765538573,0.0071619451045989
2025-04-30 00:16:56.295554800,7.087554931640625,-0.1161446614209323,-0.0260305404663085,-0.0776624489197995,-0.0907791405916214,0.1437623629938845,0.9761339948898404,0.2745002130120591,right,0.0027380585670471,-0.3063725464664927,-1.0835121525600553,-9.286999518674612,-0.1430501438945133,0.0188742168247699,0.0020594224333763,2.9577067730382085,-0.0033024549484252
2025-04-30 00:16:56.335554800,7.127554931640625,-0.1194803681898366,-0.0247052982449531,-0.0791604673139487,-0.0812175720930099,0.1434591942529088,0.9761475712790748,0.2734231774754945,right,-0.0019405484199523,-0.3055274439218554,-1.1147823200926184,-9.285811770194767,-0.1424393445519908,0.0052485540509223,-0.0146704092621803,2.9498037448287007,0.0006642341613769
2025-04-30 00:16:56.375554800,7.167554931640625,-0.1229071868914026,-0.0150409806519746,-0.0807974438173734,-0.0565848052501678,0.1433159504821312,0.976040432872072,0.2726157353310426,right,0.014832317829132,-0.3058793963652928,-1.146469178667292,-9.28090646249652,-0.1423981703287893,-0.0080150384455919,-0.0063794627785682,2.953095187589526,-0.0055947303771972
2025-04-30 00:16:56.415554800,7.207554931640625,-0.1236695796952655,-0.0189268831163644,-0.0811480525084448,0.0492957830429077,0.1429908484057887,0.9760213936889504,0.2718149865966229,right,0.0271704792976379,-0.3064513044567301,-1.1533359956968574,-9.278352101838587,-0.1426558499928902,-0.0200022421777248,0.0026122257113456,2.9584429783582684,-0.0054338574409484
2025-04-30 00:16:56.455554800,7.247554931640625,-0.1200640769873052,-0.0337130017578601,-0.079363344958417,0.1688559055328369,0.1422029992578714,0.9761753280570123,0.2706935255435709,right,0.026878535747528,-0.3073399249473354,-1.1195601289536803,-9.279836202916504,-0.1433927194984616,-0.0374480709433555,0.0125555321574211,2.9667502034544944,-0.0050252676010131
2025-04-30 00:16:56.495554800,7.287554931640625,-0.1123714219429486,-0.0492982529103755,-0.0755246520050418,0.2045245468616485,0.1405744745605717,0.976530818351759,0.2684450836869428,right,-0.008276343345642,-0.3086101885257061,-1.0477177125360817,-9.284421777141093,-0.1446452565919553,-0.004108902066946,0.0004337131977081,2.978621258512139,-0.0152569413185119
2025-04-30 00:16:56.535554800,7.327554931640625,-0.1065967345274455,-0.020160311833024,-0.0725337069426245,0.1106357276439666,0.1393047315506125,0.9769248309585276,0.2667261427897189,right,-0.0321040749549865,-0.3078571135138274,-0.9943242682617156,-9.292544877842069,-0.1447443082360251,0.0230711419135332,0.0053556188941001,2.9715841994822023,-0.0161272287368774
2025-04-30 00:16:56.575554800,7.367554931640625,-0.1055585647086285,0.034533254802227,-0.0719959134013979,-0.0602809786796569,0.139366231507867,0.977008901844303,0.2670333900905013,right,-0.0407623052597045,-0.3069990286109541,-0.984944810824096,-9.29610461615026,-0.1443854515977607,-0.0029862467199563,0.006178081035614,2.963563682372868,-0.0007376968860626
2025-04-30 00:16:56.615554800,7.407554931640625,-0.1088610006760904,0.0607188120484352,-0.0737636389366829,-0.1263030469417572,0.1405757509460967,0.9767349339064002,0.269015762418427,right,-0.0175235867500305,-0.3071881078253453,-1.0155782878883182,-9.29224384906888,-0.1441746409399343,-0.0034607644192874,0.0073728263378143,2.96533127656728,-0.0077655911445617
2025-04-30 00:16:56.655554800,7.447554931640625,-0.1133002277745118,0.0579855553805828,-0.0761222197987441,-0.1381660848855972,0.142236847255479,0.9763829552920192,0.2717672707037989,right,0.0030096173286437,-0.3070751670626661,-1.0568563469551504,-9.287976839274169,-0.1437024009724662,0.0054535209201276,0.0055324733257293,2.9642753377735613,-0.0016669631004333
2025-04-30 00:16:56.695554800,7.487554931640625,-0.1172985220430075,0.0197830758988857,-0.078238399416073,-0.096006691455841,0.1434404953499179,0.9760564477437036,0.2736268050799659,right,0.0079864263534545,-0.3075698856632344,-1.0938120858434588,-9.282219298660754,-0.1435871611819704,-0.0377619080245494,0.0019985288381576,2.968899490442872,0.0077680647373199
2025-04-30 00:16:56.858594000,7.650593994140625,-0.122160324940213,0.0017693525878712,-0.0806902674205061,0.0688924118876457,0.1417350467643454,0.975658219757882,0.2691577342343243,right,0.0072185383178293,-0.3140715153631581,-1.1365510843083262,-9.257436739581824,-0.1465986010953924,-0.0247824024409055,-0.0039296541363,3.029603549991548,-0.0064163370989263
2025-04-30 00:16:56.898510000,7.690510009765625,-0.1185792465216296,0.046194102615118,-0.0790429190983835,0.0883582532405853,0.1419390896837097,0.9756940777515682,0.2700955187596371,right,-0.0020495895296335,-0.314571584444417,-1.103212951395288,-9.25994200040102,-0.1470596949532976,0.0075659682042896,0.00077856995631,3.034267450149357,-0.0033771987073123
2025-04-30 00:16:57.098093300,7.89009326171875,-0.1186910198598664,-0.0514954701066017,-0.0790973365092075,-0.0612282194197177,0.1431405256129266,0.975751649513064,0.2726556946472745,right,0.00613983720541,-0.3115552894841937,-1.105326655613631,-9.268864142525196,-0.1454752101995863,-0.0091818515211343,-0.0001505402033217,3.006125351509452,0.0035811264533549
2025-04-30 00:16:57.297676500,8.089676513671876,-0.1266324617575188,0.0528651848435401,-0.0822876687555655,-0.1026856377720832,0.1418332888589094,0.976239304265516,0.2690878944938086,right,0.0086878165602684,-0.3046282767829746,-1.1815007445599883,-9.280229001626372,-0.1416642030390912,0.0808188393712043,0.0068640611134469,2.941393351618945,-0.0130088729783892
2025-04-30 00:16:57.337676500,8.129676513671875,-0.126373234915013,0.0478364080190658,-0.0823761971058048,-0.0548308677971363,0.1431739736943765,0.9760285562903884,0.2718596056058602,right,0.0064064264297485,-0.304931042885593,-1.178982770389691,-9.279650909477471,-0.1417167270486473,-0.0206613317131996,-0.001734472811222,2.9442256524354216,0.0100215673446655
2025-04-30 00:16:57.377676800,8.1696767578125,-0.1266872893535082,0.0006376542150974,-0.0827772850383025,-0.0498682744801044,0.1437356297888668,0.975717170373198,0.2728440608346754,right,0.0056504011154174,-0.3077903762301833,-1.1808284713216126,-9.270891264438628,-0.1430524708544924,-0.075768694281578,-0.0056904628872871,2.970960222364962,0.0128730237483978
2025-04-30 00:16:57.417676800,8.2096767578125,-0.1279778535424827,-0.0216975212097167,-0.0836062953817383,-0.0152472406625747,0.1432990795662064,0.975375882104156,0.2715585667188841,right,0.0088372826576232,-0.3125011509823887,-1.1909927224613726,-9.255375715398788,-0.1453174128410367,-0.1033163368701934,-0.0025739520788192,3.0149530933484434,-0.0022880136966705
2025-04-30 00:16:57.457676500,8.249676513671876,-0.1281375814200021,-0.0140390396118164,-0.083847959232574,0.0207706429064273,0.1427010259914459,0.9751149081226422,0.2701222348527272,right,0.0040624141693115,-0.3168693281969798,-1.1907767416231334,-9.242035172310471,-0.1475020519879723,-0.0760821625590324,-0.0010735094547271,3.0556866702750325,-0.016072005033493
2025-04-30 00:16:57.497676500,8.289676513671875,-0.1272985983353885,0.0052339397370815,-0.0835567053545144,0.0368089191615581,0.1424386207676588,0.9749764992709168,0.2696038407070151,right,-0.0026010870933532,-0.3194182688172409,-1.182029736870155,-9.235275176656245,-0.1488296918244762,-0.0571600720286369,0.001570701599121,3.079428780390322,-0.0135043561458587
2025-04-30 00:16:57.537676500,8.329676513671876,-0.1262507387605962,0.0269464999437332,-0.0831420265152681,0.0071167852729558,0.142550052668588,0.9749001026469318,0.2699446763593309,right,-0.0139474272727966,-0.3205727010759941,-1.171903406587988,-9.23297566754222,-0.1494544599165969,-0.0089480504393577,0.0058109685778617,3.0901752153322097,-0.015639990568161
2025-04-30 00:16:57.577676500,8.369676513671875,-0.1280579748820909,0.0192671120166778,-0.0841448652610767,-0.0572104826569557,0.1434594868362514,0.9747063442779352,0.2715312607250371,right,-0.0078185200691223,-0.3206295492690688,-1.188565203053504,-9.230668559643624,-0.1492866708172001,-0.0130227329209446,0.0043687522411346,3.090704499903321,-0.008026897907257
2025-04-30 00:16:57.617676800,8.4096767578125,-0.1298651488683295,0.0115877259522676,-0.0851475470292338,-0.121537759900093,0.1443686457079701,0.974510705132002,0.273117748845487,right,-0.0016934871673583,-0.3206891188435524,-1.2052208620391784,-9.228322873300314,-0.149118602933756,-0.0170974154025316,0.0029259324073791,3.0912589189156887,-0.0004163980484008
2025-04-30 00:16:57.657676800,8.4496767578125,-0.1333836225250522,0.0031009884551167,-0.0869559507547854,-0.0915054231882095,0.1449476486717112,0.9742496917709408,0.2737334622169909,right,0.019314706325531,-0.3214694946335977,-1.23736167492643,-9.221631851229072,-0.1492189312879834,-0.0363708660006523,0.0010946989059448,3.0985204343512653,-0.0062356293201446
2025-04-30 00:16:57.697676500,8.489676513671874,-0.1350390315112144,0.0105258077383041,-0.0878701796700578,-0.0203063711524009,0.1454030910020852,0.9740495776952228,0.2743709788206012,right,0.0221363306045532,-0.3224431513603124,-1.2522189061880111,-9.21657690592706,-0.1495465736547834,-0.0247848946601152,-0.0031852424144744,3.1075781855538485,-0.0028723180294036
2025-04-30 00:16:57.856569900,8.64856982421875,-0.1267297997603194,0.0240223966538906,-0.084390328928692,-0.018268097192049,0.1460978038431432,0.9737130148793548,0.2768272325211631,right,-0.0177335012704134,-0.3285420773491791,-1.1731764952637254,-9.207691004160043,-0.1530250391754667,-0.0502996779978275,0.0163907036185264,3.164247875019908,0.0105875516310334
2025-04-30 00:16:57.896569900,8.68856982421875,-0.1278802166843954,0.0355429239571094,-0.0850868977318582,-0.0368487834930419,0.1467678732455745,0.9735147950091998,0.2779921520422746,right,-0.0068631172180175,-0.3292945783451775,-1.1834644458483905,-9.20397110685408,-0.1532588639417956,-0.0097417384386062,0.006037600338459,3.171231742557883,0.0001897811889648
2025-04-30 00:16:57.936569600,8.728569580078124,-0.1293689274672534,0.005453011021018,-0.0859107104040119,-0.0469695068895816,0.1474667083363542,0.973352894139066,0.279188723135405,right,0.0013766288757324,-0.3294144962650851,-1.197116100712493,-9.201821819865703,-0.1531567451048322,-0.0162243917584419,0.0013337209820747,3.1723443799749016,0.0075616538524627
2025-04-30 00:16:58.096081200,8.8880810546875,-0.1329755424868484,0.0092526227235794,-0.0879096198918573,-0.0205460079014301,0.1455166515642985,0.972682361974882,0.2741744934987604,right,-4.08370397053e-05,-0.3395748033730228,-1.225958821902424,-9.165023244300484,-0.1580688572500043,-0.0353670120239257,0.0093136765062808,3.2664602952599524,0.0001952297461684
2025-04-30 00:16:58.136081200,8.9280810546875,-0.1339051705762904,0.0258105061948299,-0.0887287707449589,-0.0407706499099731,0.147240052732956,0.9722500705337396,0.2774951929963952,right,0.0046809315681457,-0.3412551603622241,-1.2337437766902148,-9.15842691477537,-0.1586738273462033,-0.069687396287918,0.0073060989379882,3.2819933799564835,-0.0038853585720062
2025-04-30 00:16:58.176081200,8.9680810546875,-0.1348293717882809,0.0423683896660804,-0.0895475273276472,-0.0609952919185161,0.1489628146634678,0.9718136054980412,0.2808161530536074,right,0.0093991756439208,-0.3429383437911418,-1.2414631188958882,-9.151795513936875,-0.159278117041878,-0.1040077805519104,0.0052918493747711,3.297543415787816,-0.0079677104949951
2025-04-30 00:16:58.216081200,9.0080810546875,-0.1362626254230973,0.0409117601811885,-0.090569445401039,-0.0620893947780132,0.1506218888875015,0.971407741796305,0.283944020995808,right,0.0073139667510986,-0.3441408720985265,-1.254039107352495,-9.146071875593066,-0.1596160670388973,-0.0744813457131385,0.0009284615516662,3.3086469936043024,0.0119059085845947
2025-04-30 00:16:58.256081200,9.0480810546875,-0.1382218296473661,0.0237759295850992,-0.0916603867727279,-0.0583736784756183,0.1513658734509443,0.9711659424651762,0.2851226835922776,right,0.002642810344696,-0.3448509747902997,-1.271631754927337,-9.141267690181731,-0.1597605038172637,-0.027687806636095,-0.0004755556583404,3.3152015298143027,0.009022444486618
2025-04-30 00:16:58.296081400,9.088081298828126,-0.1401806461574377,0.0066400989890098,-0.0927511626920194,-0.0546579621732234,0.1521096181769438,0.9709224271733816,0.2863002609676592,right,-0.0020328760147094,-0.3455632717192619,-1.2892051132798197,-9.136418496584891,-0.1599046474681321,0.0191057324409484,-0.0018815249204635,3.3217747707247733,0.0061370432376861
2025-04-30 00:16:58.336081200,9.1280810546875,-0.1413775744695131,0.0139808561652898,-0.0933800159038362,-0.0167341008782386,0.1526173046449072,0.9708304913207976,0.2871641007869275,right,-0.0025418400764465,-0.3452332779329687,-1.300294224179536,-9.135953801682591,-0.1596125123184698,0.0099320411682128,0.0006563961505889,3.318729703940451,0.0006470382213592
2025-04-30 00:16:58.376081200,9.1680810546875,-0.1413297389405721,0.0166086573153734,-0.093421792949281,-0.0111762452870607,0.1531752021443203,0.97078297852513,0.2883417893699119,right,-0.0051140189170837,-0.3447848202940217,-1.3000666990339755,-9.137488756164908,-0.1593427016567355,0.0117383087053895,-0.0010058730840682,3.314590996700525,0.0039185285568237
2025-04-30 00:16:58.575108000,9.367108154296876,-0.1443887945506335,0.0602278523147106,-0.0947118366123052,0.0326226018369197,0.1528240593960351,0.9708709392529872,0.2871925501903714,right,0.0064776465296745,-0.3431766935020505,-1.328777829733491,-9.13873203422427,-0.1583793169261009,-0.0110688274726271,-0.0077968928962945,3.299744432963431,-0.0077053983695805
2025-04-30 00:16:58.615026400,9.4070263671875,-0.1408398054840342,0.0902488380670547,-0.0933763924830282,0.0770707502961158,0.1541627397180296,0.9706097944206016,0.2904393077533755,right,0.0049020955339074,-0.3451733655928062,-1.2954087902255356,-9.1368487046957,-0.1594716553796933,-0.047911949455738,-0.0115098804235458,3.318176746232808,-0.0067580351606011
2025-04-30 00:16:58.655026400,9.4470263671875,-0.1383132397319136,0.0352781489491462,-0.092312706069251,0.0547506734728813,0.1549154707674176,0.9705673564154575,0.2924017033035544,right,-0.001264750957489,-0.3452634821354776,-1.2722786745287478,-9.1397958640635,-0.1596196736838528,-0.0341414585709571,-0.0079380124807357,3.319008520881832,0.0075692236423492
2025-04-30 00:16:58.695026400,9.4870263671875,-0.1372582419706383,-0.0116575732827186,-0.0918317966220663,0.0288046039640903,0.1549080379614016,0.9705780950765676,0.292547172313075,right,-0.0036710500717163,-0.3455592317644776,-1.2625010846190154,-9.140160605722665,-0.1598387282393386,-0.0235463194549083,-0.0040765553712844,3.321737361323833,0.0088483989238739
2025-04-30 00:16:58.735026400,9.5270263671875,-0.1374197318401429,-0.0188220031559467,-0.0917653569047337,0.0194924026727676,0.15426945468881,0.9707266885128676,0.2912309718258788,right,-0.0207064151763916,-0.3449542924352992,-1.264252166070044,-9.141945151051878,-0.1595920268577477,-0.0016180630773305,-0.0056750029325485,3.3161551772773263,0.0012736618518829
2025-04-30 00:16:58.775026400,9.5670263671875,-0.1375803382750041,-0.0259864330291748,-0.0916988663389518,0.0101802013814449,0.153630765040712,0.9708747875003512,0.289915093459015,right,-0.0377419590950012,-0.3443491268295423,-1.2659953564755615,-9.143728527337313,-0.1593452394154838,0.0203101895749568,-0.0072742849588394,3.310569486099481,-0.0063006579875946
2025-04-30 00:16:58.815026400,9.6070263671875,-0.1386493600033906,-0.011512454599142,-0.0919285807738473,0.0159471239894628,0.1538794058084574,0.9712369731670702,0.2904784261672041,right,-0.0050539970397949,-0.3392342227184087,-1.2780930598959326,-9.159020789015292,-0.1567450745620185,0.0980400443077087,0.0021097958087921,3.263310891318321,-0.0043457150459289
2025-04-30 00:16:58.855026400,9.6470263671875,-0.1397194788635791,0.0029615238308906,-0.0921576382213478,0.0217140484601259,0.1541269370203504,0.9715921979727998,0.2910464265633078,right,0.0276077389717102,-0.3341197718645256,-1.2902011385798453,-9.17405527653992,-0.1541437846612205,0.1757699251174926,0.0114949345588684,3.215971340255439,-0.0023825168609619
2025-04-30 00:16:59.054144800,9.846144775390623,-0.1323573995808711,-0.0495611317455768,-0.0873029993061102,0.056106012314558,0.1516948264709118,0.9735085362574998,0.2878845069079068,right,-0.0423650220036506,-0.3183032752880093,-1.2291862595163283,-9.232575270047784,-0.147132089791328,-0.1418793648481369,-0.0011570482747629,3.0690456258028744,-0.0025120475329458
2025-04-30 00:16:59.253740000,10.045739990234376,-0.1308371585250753,0.0198626536875963,-0.0876072708432314,0.0271325092762708,0.1560941817031274,0.9724103526099372,0.2969233154036572,right,0.0286156591027975,-0.323913290107917,-1.2128836517520247,-9.217217541918158,-0.1495915817901309,-0.0015056002885103,0.0083295134827494,3.1212489835098385,-0.0103633534163236
2025-04-30 00:16:59.293660000,10.085659912109374,-0.1271279200137486,0.0651796385645866,-0.0859397192756484,0.098590612411499,0.1563462600315291,0.9724182006982532,0.2979800800081304,right,-0.0199509020894765,-0.3247492339744544,-1.1783553592063485,-9.21906170848012,-0.1502431924916411,-0.0009616655297577,-0.0127110071480274,3.129019325250387,-0.0376984514296054
2025-04-30 00:16:59.453335600,10.24533544921875,-0.1300737806396858,-0.0754547044634819,-0.0876560583768466,0.0156353078782558,0.1553839325789438,0.971881567324619,0.2952507361869131,right,0.0117913465946912,-0.3320304449458239,-1.2025211746264248,-9.192715553346275,-0.1536825935979976,0.0945687964558601,0.0076867481693625,3.1966078836157914,-0.0076430616900324
2025-04-30 00:16:59.493255200,10.285255126953125,-0.1280473435152747,-0.0329791642725467,-0.0864163177387186,0.0989367216825485,0.1541846071150518,0.97225301522412,0.2931593862403041,right,-0.0031318624969571,-0.3306195226444309,-1.1844650011930613,-9.199597714075445,-0.1532424812074999,-0.0177825149148702,0.0054317517206072,3.183523945637047,0.0040000765584409
2025-04-30 00:16:59.652934000,10.444933837890623,-0.1305945455179871,-0.0644017457962036,-0.0868542406090784,0.0392135865986347,0.1491929328830849,0.9729283157389176,0.2824813691227823,right,0.0248241703957319,-0.3309024873751293,-1.2077770493280142,-9.195657452017068,-0.1536498655503892,0.2700376808643341,0.0089317727833986,3.1861487411826848,-0.0203484836965799
2025-04-30 00:16:59.812610300,10.6046103515625,-0.1323049841368264,0.0053153233602643,-0.0859555837326867,0.0193941388279199,0.1486966778032488,0.9750812664094078,0.2823615596389328,right,-0.0001748704817146,-0.304065409487979,-1.234342034844309,-9.275016819936036,-0.1404185362976445,0.0319736041128635,-0.0119432527571916,2.936127101653814,-0.0018000786658376
2025-04-30 00:16:59.852529200,10.644529052734375,-0.1315405168903185,0.0261656753718853,-0.0856543826020585,0.0479544289410114,0.1490792854917312,0.9750367608742266,0.2832502471017764,right,0.0154202217236161,-0.3042062113274173,-1.227196985395253,-9.275548150333762,-0.1405061585648586,-0.0219838488847017,-0.0071798977442085,2.937444613993168,-0.0206147469580173
2025-04-30 00:17:00.012155000,10.80415478515625,-0.1232463169884767,0.0091987112537026,-0.08237088836167,-0.0238054133951663,0.1497705667421164,0.9744774479071926,0.2855034172039064,right,-0.0195743665099143,-0.3133996898530701,-1.1468538671359418,-9.258214738216996,-0.1455246796160415,0.0115979947149753,0.0046199895441532,3.023336890812218,-0.0144468815997242
2025-04-30 00:17:00.052155000,10.84415478515625,-0.1250021486480475,0.0188619717955589,-0.0832866804419374,-0.0409821532666683,0.1501906439976483,0.974338788139204,0.2860929054617874,right,-0.0135255455970764,-0.3136665763870387,-1.1630073487531394,-9.255386236792802,-0.1454989911816779,-0.0092394482344388,0.0024950355291366,3.0258263695403933,-0.0096926987171173
2025-04-30 00:17:00.092154600,10.884154541015626,-0.1266928171200877,0.0425270646810531,-0.0842329084802881,-0.0453660637140274,0.1508900497044394,0.9741330497573382,0.2872526428729369,right,-0.004080057144165,-0.3142505862392548,-1.1784299588125198,-9.251652310961484,-0.1456084612777224,-0.0157494135200977,0.0014654099941253,3.0312738212913275,-0.0025697350502014
2025-04-30 00:17:00.132155000,10.92415478515625,-0.1284064852802823,0.0466075353324413,-0.0852823832072451,-0.0538238734006881,0.1517738757898543,0.973815251562613,0.2887448555198696,right,0.0003072023391723,-0.3158633532276914,-1.19365492740795,-9.244758459794522,-0.1462032724657449,-0.0443996116518974,-0.0025689899921417,3.04631093916446,-0.0027484893798828
2025-04-30 00:17:00.291575600,11.083575439453124,-0.1294039709763169,-0.0579299852252006,-0.0861656444509843,0.0381377600133419,0.1524727241820533,0.9732909120270152,0.2898310009030803,right,-0.005761353764683,-0.3206797479203394,-1.2009685383569448,-9.22890622614622,-0.1484324491489754,-0.099762238562107,0.000117507064715,3.091171532893181,0.0029588274192065
2025-04-30 00:17:00.331493600,11.12349365234375,-0.1287546939138248,-0.0618185773491859,-0.0857645827991591,0.0294943880289793,0.1511414242019248,0.9733759549344894,0.2871217520269065,right,-0.0080038392916321,-0.3224563572530167,-1.1942691868487745,-9.224223621287942,-0.1494654283996817,-0.0078521631658077,0.0102501595392823,3.107701227411628,0.0027023176662623
2025-04-30 00:17:00.371493600,11.16349365234375,-0.1288714341150992,-0.0264040268957614,-0.0857283217600009,0.0085835866630077,0.1506533912360429,0.9734698705560474,0.286112267521065,right,-0.0076884031295776,-0.3221857195247636,-1.1954540857844054,-9.224918033292887,-0.1493677688188666,-0.0004180804826319,0.0077883452177047,3.105183691632748,-0.0054140985012054
2025-04-30 00:17:00.411493600,11.20349365234375,-0.1289878612571647,0.0090105235576629,-0.0856920268218762,-0.0123272165656089,0.1501652372844635,0.9735634242056188,0.2851027007191606,right,-0.0073729753494262,-0.3219148779221615,-1.1966362082410602,-9.225612445297836,-0.149270051864271,0.0070160017348825,0.0053262710571289,3.1026641100272534,-0.0135303437709808
2025-04-30 00:17:00.571000300,11.363000244140624,-0.1324792859050398,0.0186745952814817,-0.0877700735243003,-0.0252005122601985,0.1522584531369817,0.9730003117928626,0.2888018922345751,right,0.0056412005797028,-0.3234874805950391,-1.2281933029562233,-9.216530144175886,-0.1496133178300236,-0.0405526794493198,-0.0072056073695421,3.117290016750992,-0.0067790676839649
2025-04-30 00:17:00.730670300,11.52267041015625,-0.1265017699540382,-0.0196364689618349,-0.0847537108612059,0.066725417971611,0.1508023955181304,0.9733531003391532,0.286699813600749,right,-0.0072256834246218,-0.3242508886780059,-1.172779166509211,-9.221343681937457,-0.1505294815859219,0.0515558570623397,0.0056777894496917,3.1243872815355656,0.0011759611079469
2025-04-30 00:17:00.890339000,11.682339111328124,-0.1250837260557167,0.0125725790858268,-0.083758537284874,-0.067204013466835,0.1506466876642862,0.9738042173848382,0.2867861202232094,right,-0.0038798991590738,-0.3194899579694948,-1.16154436352849,-9.237651258137822,-0.1483082904105077,0.0037165195681154,0.0033126482740044,3.080096304388344,-0.0025293605867773
2025-04-30 00:17:00.930260700,11.7222607421875,-0.1281047067804003,0.0068464558571577,-0.0852727975994388,-0.0986980944871902,0.1512511760894975,0.9736360146121558,0.2875774581853815,right,-0.0032995878718793,-0.319258857986395,-1.1895366784341632,-9.234805805578826,-0.1479339968237799,-0.0034304442815482,-0.008259636349976,3.077944679312408,0.0074403742328286
2025-04-30 00:17:00.970260700,11.7622607421875,-0.1301936770968135,-0.0573064163327217,-0.0861027538521038,-0.0133631229400634,0.1496266598816733,0.973712963356428,0.2838662511140135,right,0.0098547935485839,-0.3206130642756614,-1.2082830991540103,-9.228159791693091,-0.1485971327015045,-0.005910912528634,-0.0106626749038696,3.0905510629072785,0.0088028609752655
2025-04-30 00:17:01.010260700,11.8022607421875,-0.1322888808876031,-0.1214592829346656,-0.0869323880646021,0.0719718262553215,0.148001578471768,0.9737862830236556,0.2801504131282502,right,0.0230051279067993,-0.3219599445953581,-1.2270650295786558,-9.221473445796963,-0.1492597235283061,-0.0083913803100585,-0.0130620747804641,3.1030835044831035,0.0101728439331054
2025-04-30 00:17:01.169765400,11.961765380859376,-0.1141226167612417,-0.0155161786824464,-0.0762329649768915,0.1252443641424179,0.1373275547434884,0.9764634889062266,0.2613119403724064,right,-0.0360505580902099,-0.3147785207312444,-1.0618624846793712,-9.264142959222196,-0.1478130579797541,0.0786082968115806,0.0113737676292657,3.0361969569072125,-0.0274582356214523
2025-04-30 00:17:01.329436000,12.121435791015625,-0.1174737421155998,0.1059639155864715,-0.0797791225200054,-0.1194508522748947,0.1461972233075216,0.974282938922674,0.2786246753860673,right,0.0108858924359083,-0.3247400196885657,-1.089302718660235,-9.230036691480874,-0.1517708154081668,-0.2048934251070022,0.006919153034687,3.128933692793548,-0.0151773216202855
2025-04-30 00:17:01.369352700,12.161352783203125,-0.1203745503776976,0.0567486025393009,-0.0817997882306196,-0.0861033201217651,0.1478545830287486,0.9734354681294204,0.2813452614138687,right,0.0075526116415858,-0.3309967175465196,-1.1137000047486274,-9.207222217604516,-0.1545027210172236,-0.1138574853539466,0.0062250569462776,3.187022601407766,-0.0023013413883745
2025-04-30 00:17:01.568945400,12.3609453125,-0.1258395661285922,-0.0413548350334167,-0.084638035000495,0.0396846830844879,0.1479899026955067,0.972944289758716,0.2806116120398106,right,0.0038781128823757,-0.334690667014052,-1.1625151813220231,-9.18925635280311,-0.1559317789075035,-0.0077712512575089,-0.0028756144456565,3.221259509791434,0.0012192667927592
2025-04-30 00:17:01.728615700,12.52061572265625,-0.12406989537007,-0.0157420393079519,-0.0836743638985347,-0.004656983539462,0.1464794101766169,0.9730618916089608,0.2777154950867929,right,-0.0039683086797595,-0.3366491250945939,-1.1454685502573847,-9.185020907190442,-0.1571395573818716,-0.0052959467284381,0.0060230367816984,3.2393937168970703,0.0049264067783951
2025-04-30 00:17:01.888286500,12.680286376953124,-0.1311026105120564,-0.0554030425846576,-0.0863260345161257,-0.0117586180567741,0.1415987501456274,0.9734087711123344,0.2664707541609961,right,-0.001520833466202,-0.338528290378694,-1.2092374042041598,-9.170687261411548,-0.158028139010216,-0.0180179663002491,0.0011421645758673,3.256781781810522,-0.0010727985063567
2025-04-30 00:17:01.928203300,12.720203369140624,-0.1319779172310393,-0.016173455864191,-0.0866698271627937,-0.0078666815534234,0.1409027492386541,0.9734185263975464,0.2648661847279688,right,0.000148486054968,-0.3392779894194075,-1.216942425623536,-9.167202341905236,-0.1584016968158441,-0.0105550996959209,0.0008336617611348,3.263715672726929,-0.0055456473492085
2025-04-30 00:17:01.968203300,12.760203369140624,-0.1319507653572605,-0.0157867688685655,-0.0866051501869952,-0.013828495517373,0.1410958278913253,0.9735168402535198,0.2653315846727141,right,0.0001205205917358,-0.3377948265314495,-1.2173290868535638,-9.17202347845137,-0.1576593655025565,0.0284194722771644,0.0018844157457351,3.249996359454096,-0.0034939348697662
2025-04-30 00:17:02.008203500,12.80020361328125,-0.1319243595500407,-0.01540008187294,-0.0865404138880057,-0.0197903085500001,0.1412887824392392,0.9736145772525406,0.2657966211004317,right,9.03606414794e-05,-0.336311634355703,-1.2177196205411105,-9.176824156731367,-0.1569169337851503,0.0673940479755401,0.0029355660080909,3.23626973965764,-0.0014414191246032
2025-04-30 00:17:02.048203500,12.84020361328125,-0.1324069554956669,-0.0182498693466186,-0.0866161967539918,-0.0170284081250429,0.1413331019243712,0.9738306001444476,0.2659343513847029,right,0.0017123222351074,-0.3334673701929535,-1.2233584301456808,-9.18532252048552,-0.1554879674888921,0.0865058600902557,0.0038531199097633,3.209926507133245,0.0008069276809692
2025-04-30 00:17:02.207646700,12.999646728515623,-0.1336828635077213,0.0023207492195069,-0.0869928299064719,-0.0207758452743291,0.1407873221814351,0.9740785165443874,0.2647228736017592,right,-0.0016764645697548,-0.3309368917430118,-1.2361558062680065,-9.19177505762577,-0.1542145961863434,-0.0448129326105117,0.0020566384773701,3.186467597873509,-0.0007675272063352
2025-04-30 00:17:02.367320000,13.159320068359374,-0.1351888026724794,0.014882780611515,-0.087790000900477,0.0008577762637287,0.140915889359176,0.9739194537442568,0.264698242596114,right,0.0040866751223802,-0.3320418436946757,-1.2495213376671075,-9.186408562156558,-0.1546493444058889,-0.006096426397562,0.0015020975843071,3.196713682077825,-0.0024162605404853
2025-04-30 00:17:02.407238000,13.19923779296875,-0.1350021580268385,0.0233673937618732,-0.0877775141934138,-0.0045852875337004,0.1412229552088492,0.9738406308187856,0.2653363802667512,right,-0.0043041692115366,-0.3325299124821735,-1.2475965070843695,-9.185094556948542,-0.1548728732954457,-0.0049211792647838,-0.00369464000687,3.201238173764944,-0.0004986824933439
2025-04-30 00:17:02.566914800,13.358914794921876,-0.1380701478984707,-0.0035552515182644,-0.0896069519226559,-0.0656196177005767,0.1443846884229752,0.9734609019533074,0.2714482052438078,right,-0.0098373107612133,-0.3302891552999449,-1.2767545047685502,-9.188305335688591,-0.1532885520801625,0.0171287357807159,-0.0040067937225103,3.1804595896303653,0.0132356518879532
2025-04-30 00:17:02.726587600,13.518587646484375,-0.1394890643377288,0.0270986445248127,-0.0903849749985143,0.0215114299207925,0.1442100964244412,0.9732477289006936,0.2707571083351301,right,0.0010539399227127,-0.3326014141735842,-1.2887646760359406,-9.179177441859244,-0.1543461732725397,0.0078595057129859,0.001601257128641,3.2019010215878483,0.0019886125810444
2025-04-30 00:17:02.766505500,13.55850537109375,-0.1385340017989457,0.0253487955778837,-0.0900517131054122,0.0149426888674497,0.1446555577195955,0.9731424943110408,0.2717842024887814,right,-0.0062918961048126,-0.3334580150248941,-1.2796182236365974,-9.177684572952986,-0.1547869676222011,-0.0423888303339481,0.0001909462735056,3.2098397056326267,-0.0006556668085977
2025-04-30 00:17:02.926178800,13.7181787109375,-0.1370481997041862,0.0105179641395807,-0.0896957725193816,0.0041649970225989,0.1454785779683236,0.9727542714664515,0.2735413072046807,right,-0.0005287562380544,-0.337220259333805,-1.2643217241749167,-9.16754779434204,-0.1566518779110027,0.0212569776922464,-0.0003635946195572,3.244679548345506,-0.0023044003173708
2025-04-30 00:17:03.085867500,13.877867431640626,-0.1365635575327657,-0.002687209052965,-0.0896578195873532,-0.0073572993278503,0.1462703346598345,0.9725585838966798,0.2751978995504184,right,0.0008929499308578,-0.3383212310491494,-1.259391574296355,-9.164614663499592,-0.1571501204171561,-0.0438874252140522,0.0038268328644335,3.254866303578019,-0.0016363982576876
2025-04-30 00:17:03.245542700,14.037542724609375,-0.1374169756424532,-0.0166095867753028,-0.0901417832417243,-0.0022645182907581,0.1464310727017106,0.9724278217139952,0.275348770265495,right,0.00378970336169,-0.3392463049448119,-1.2667993663348256,-9.160549898278711,-0.157532171070566,0.0542440079152584,-0.0001652259379625,3.2634225349992514,0.0086750341579318
2025-04-30 00:17:03.285462000,14.0774619140625,-0.1374961145423578,-0.0245549585670232,-0.0900929274347175,0.0129070514813065,0.1460600425451605,0.972519328112549,0.2745933570146094,right,-0.0021272816229611,-0.3387943193945583,-1.2677262719213962,-9.161910080716014,-0.1573399245322012,-0.0356021076440811,0.0008667550282552,3.2592426189661023,0.0119391335174441
2025-04-30 00:17:03.325462000,14.1174619140625,-0.1373504591557552,-0.0183414984494447,-0.089987897947033,0.0110641587525606,0.1456324124473704,0.9725397205707592,0.2737115594694009,right,-0.0043548345565795,-0.3393678455151493,-1.2661356417290863,-9.160241270720958,-0.1576700381134421,-0.0206929184496402,0.0009411126375198,3.2645465705931183,0.0095357298851013
2025-04-30 00:17:03.365462300,14.157462158203124,-0.1372052914485509,-0.0121280392631888,-0.089882830517952,0.0092212669551372,0.1452047114325764,0.9725597833964252,0.2728296073781466,right,-0.0065828561782836,-0.3399414657461242,-1.264549541581422,-9.158568369072675,-0.1580001005794877,-0.0057837320491671,0.0010158866643905,3.2698505222201346,0.0071323215961456
2025-04-30 00:17:03.405462300,14.197462158203123,-0.1371529886360554,-0.0091663785278797,-0.0898011873506065,0.0094067202880978,0.1449195751790964,0.9726197048151513,0.2722600923214636,right,0.0002030134201049,-0.3397577261954788,-1.2641526512183248,-9.159229463329911,-0.157939827988451,0.0159229673445224,0.0050288140773773,3.2681516093477603,0.0043247044086456
2025-04-30 00:17:03.445462300,14.237462158203124,-0.136693510376033,0.0075850486755371,-0.0895479476914411,0.01238121278584,0.1448661784892162,0.972682710430848,0.2722460892327334,right,0.0003597140312194,-0.3392875076115795,-1.260153352449089,-9.161330819523334,-0.157744329568975,0.0178985819220542,0.0044414401054382,3.2638036432713267,-0.0019577741622924
2025-04-30 00:17:03.485462300,14.277462158203123,-0.135975374804785,0.0091656083241105,-0.0892106197440616,0.0126095730811357,0.1450560128633782,0.9727192541378884,0.2727746230659487,right,0.0015036463737487,-0.3388009784253051,-1.2537890781141816,-9.163805685204268,-0.1575353806325659,0.0129036987200379,0.0044407621026039,3.25930399376452,0.0008688271045684
2025-04-30 00:17:03.525462300,14.317462158203124,-0.1352378908965442,-0.0034608077257871,-0.0888585577691638,0.0153820058330893,0.1451014511107472,0.9727515119852708,0.2729952842410112,right,0.0005143284797668,-0.3386253819493263,-1.2471077006541191,-9.165295046979187,-0.1574933756293194,0.0051481630653142,0.0029258206486701,3.257679899694025,0.0028715729713439
2025-04-30 00:17:03.565462000,14.3574619140625,-0.1346233992587691,-0.0304198414087295,-0.0885049733719372,0.0098435934633016,0.1447883432123192,0.9728355148000478,0.2724600833854076,right,-0.0007404088973999,-0.3384201962928751,-1.2415651179656386,-9.166721280390025,-0.1574615275181277,-0.0041229091584682,0.0018676146864891,3.255781957118213,0.0059678852558135
2025-04-30 00:17:03.605462300,14.397462158203124,-0.1346111383661957,-0.0302019342780113,-0.0883942590160577,0.0067661465145647,0.1441528417092738,0.9729333069060552,0.2711572114466211,right,0.0010395050048828,-0.3383848612805781,-1.241468233462423,-9.166851044249531,-0.1575027850465085,-0.0052485782653093,0.0029248520731925,3.2554549171209333,0.0039889216423034
2025-04-30 00:17:03.645462300,14.437462158203124,-0.1347549071142013,-0.011962229385972,-0.0884086849306202,0.0038268519565463,0.1438181919526671,0.9729774965879824,0.2704456717306404,right,-0.0003536343574523,-0.3383936932893979,-1.2427822386704384,-9.166643538978697,-0.1575281833582547,-0.0039866548031568,0.002106636762619,3.255536750185489,-0.000472754240036
2025-04-30 00:17:03.685462300,14.477462158203124,-0.1348986676649763,0.0062774736434221,-0.0884230979381315,0.0008875571656972,0.1434834890083073,0.9730214390455016,0.2697340106873935,right,-0.0017467737197875,-0.338402341035193,-1.244096243878454,-9.166437202751636,-0.1575535467245248,-0.0027247318066656,0.0012884140014648,3.2556168296843766,-0.0049342513084411
2025-04-30 00:17:03.725462300,14.517462158203124,-0.1352484956357421,0.026993304491043,-0.0886512400246398,-0.0186912473291158,0.1437530053045199,0.9729424171664606,0.2702167051429577,right,-0.0005188584327697,-0.3387312658085332,-1.2471584079280496,-9.164939657670258,-0.1576675809433211,-0.0077848071232438,0.0010211616754531,3.2586592661201954,-0.0034141540527343
2025-04-30 00:17:03.765462300,14.557462158203125,-0.1357897957777141,0.0285948272794485,-0.0890311958733545,-0.0226564202457666,0.1444295288153125,0.9728038542106164,0.2715088784409962,right,0.0031536221504211,-0.3389743814993978,-1.2520118393085895,-9.163477768424151,-0.1576898269984132,-0.0020390716381371,0.0024076551198959,3.26090792182982,0.0022659301757812
2025-04-30 00:17:03.805462000,14.5974619140625,-0.1359313805580978,0.0155318938195705,-0.0891911762280135,-0.011816419661045,0.1450499450313999,0.972718102230436,0.2727674276330575,right,0.0017452239990234,-0.3388421324322294,-1.2533676378317176,-9.16372794379294,-0.1575589745199789,0.0036892434582114,0.0013913363218307,3.25968480977565,0.0037693381309509
2025-04-30 00:17:03.845462300,14.637462158203125,-0.1360566338084966,-0.0009031482040882,-0.0893066747342561,-0.0126592768356204,0.145332445372693,0.972656549230023,0.2733199444060902,right,-0.0016719102859497,-0.3390225388105462,-1.2544357054546476,-9.162987939080596,-0.1576132460462213,-0.0142983766272664,-0.0013550072908401,3.261353327509761,0.001917690038681
2025-04-30 00:17:03.885462300,14.677462158203124,-0.1370145917720225,-0.0298168640583753,-0.0897316234994738,-0.0269447546452283,0.1451122931737607,0.9726476094608189,0.2727065950812667,right,0.0004859566688537,-0.3391436786435074,-1.2631589640058576,-9.161391025277972,-0.1576302366446285,0.0150280958041548,-0.0002108067274093,3.262473563711345,0.0018328130245208
2025-04-30 00:17:03.925462300,14.717462158203125,-0.1386115124185944,-0.0658706575632095,-0.0903082878399737,-0.0225726030766963,0.1442670100844287,0.9727834636534106,0.2707443565773791,right,0.0021208524703979,-0.3383949776192242,-1.2781244779475032,-9.161778563290834,-0.1572377198988124,0.0102706849575042,0.0016366988420486,3.255548732884228,0.0077727735042572
2025-04-30 00:17:03.965462300,14.757462158203126,-0.1394131147639206,-0.0496847406029701,-0.0905456788053003,-0.0150533970445394,0.1431786228392801,0.9728668158531556,0.2683492939760441,right,2.09808349609e-05,-0.3389920082569979,-1.2851977773346006,-9.158824389660358,-0.1575797518102322,-0.0244784541428089,0.0016086250543594,3.261071003437042,0.002865582704544
2025-04-30 00:17:04.005462300,14.797462158203125,-0.1402164421969036,-0.0334988236427307,-0.0907829636414217,-0.0075341914780437,0.1420900520635014,0.9729489142016094,0.2659532619516325,right,-0.0020793676376342,-0.3395873043914709,-1.2922833516813814,-9.155865539854764,-0.1579215909982759,-0.0592275895178318,0.0015817880630493,3.2665760305941105,-0.0020398497581481
2025-04-30 00:17:04.045462000,14.8374619140625,-0.140547572239773,0.0009131580591201,-0.0909449754063181,-0.0062517980113625,0.1415613065187443,0.9728748328151984,0.2647342700243524,right,0.0007916688919067,-0.3412350490244234,-1.2945593337893486,-9.15009513975978,-0.1587576305985943,-0.0432939678430557,0.0031392127275466,3.2818075019955635,-0.0087575316429138
2025-04-30 00:17:04.085462000,14.8774619140625,-0.1405874871372887,0.0264923572540283,-0.0910448995062055,-0.0042052078060805,0.14181178982253,0.9727750736373536,0.2652082182916544,right,0.0032024979591369,-0.3419610644002167,-1.2945903134495018,-9.147681648877262,-0.159087532355809,-0.0089012905955314,0.0042205899953842,3.2885160597234964,-0.0045073926448822
2025-04-30 00:17:04.125462300,14.917462158203126,-0.1398613496825643,0.0379073284566402,-0.09079086893289,0.0083539448678493,0.1424087443556096,0.9727245470269854,0.2665610111309948,right,-0.0005216598510742,-0.3418185842135087,-1.2880128347553312,-9.14908333236873,-0.1590081139329811,0.0113428272306919,0.0010724812746047,3.2871994241669773,-0.0002998113632202
2025-04-30 00:17:04.165462300,14.957462158203125,-0.1393292537980661,0.0195422023534774,-0.0906026917837816,-0.0003874897956848,0.1430358415501097,0.9727095258408628,0.2679696783069689,right,0.0008618235588073,-0.341126817272856,-1.2834599937565625,-9.152017047733068,-0.1586446517223512,0.0189435333013534,0.0021862536668777,3.2808073850423094,0.0082266628742218
2025-04-30 00:17:04.205462300,14.997462158203126,-0.1394129432587911,-0.0061901398003101,-0.0906270786424423,-0.0028132086154073,0.1431706123404237,0.972743214988214,0.2682640497792014,right,0.0036754012107849,-0.3404644346293781,-1.2845276229880749,-9.154059951737525,-0.1583021246713384,0.0191915426403284,0.0023360848426818,3.274685102769732,0.0066694617271423
2025-04-30 00:17:04.245462300,15.037462158203123,-0.1398617531188507,-0.0259046703577041,-0.0907475220181148,-0.0026902398094534,0.1428949083649222,0.9728401658935052,0.267663780365765,right,-0.0007819533348083,-0.3396218374587799,-1.2890201121017335,-9.156211576813458,-0.1578860777378477,0.0187290217727422,0.0031814575195312,3.2668951795458794,0.0054278373718261
2025-04-30 00:17:04.285462000,15.0774619140625,-0.1402734747321847,-0.0245699509978294,-0.0908489917800736,-0.0058798482641577,0.1423803713294101,0.972916891545372,0.2665476956396351,right,-0.0044495463371276,-0.3394419174343022,-1.2928719652242957,-9.156261845695973,-0.1578195843816545,0.0043278420343995,-0.0018526166677474,3.265231630247832,0.0011396408081054
2025-04-30 00:17:04.325462000,15.1174619140625,-0.1408344050187983,-0.0182426162064075,-0.0910385884807852,-0.008413378149271,0.142017451965219,0.9729771649361107,0.2657254902983295,right,9.33408737182e-05,-0.3391312672604186,-1.2981500517576932,-9.156538909071685,-0.1576654822350132,0.0168154798448085,-0.0006197690963745,3.262358705160022,-0.0023466050624847
2025-04-30 00:17:04.365462300,15.157462158203124,-0.1412611973669899,-0.0367669686675071,-0.091166581365719,0.0146505590528249,0.14154217961534,0.9730275951665688,0.2646769651638813,right,0.0005353689193725,-0.3391826202502284,-1.302034345845133,-9.1558181935817,-0.1577080447185793,-0.0457328148186206,0.0034889131784439,3.262833629195392,-0.0009994804859161
2025-04-30 00:17:04.405462300,15.197462158203123,-0.14137846342936,-0.0488369949162006,-0.0912063564563962,0.0251348372548818,0.1405536478916129,0.9729420673197732,0.2624987192066224,right,0.0056242942810058,-0.3418287808894371,-1.3018869001984597,-9.147085436549782,-0.159090588951039,-0.1075604707002639,0.0067343264818191,3.2872938244521617,0.0064343512058258
2025-04-30 00:17:04.445462300,15.237462158203124,-0.1410856914586541,-0.0391059778630733,-0.091108188510271,0.0344045162200927,0.1393985969075363,0.9727530289734212,0.2599680617489611,right,0.0102538466453552,-0.3460852019572363,-1.2972294297814368,-9.13353037392795,-0.1613035468367931,-0.1137681305408477,0.0074613094329833,3.3265900620520115,0.0056328475475311
2025-04-30 00:17:04.485462300,15.277462158203123,-0.1408774171165533,-0.0592006221413612,-0.0909131162937747,-0.0014628618955612,0.1382766280304166,0.9727746711080808,0.2576153605960727,right,-0.0026578903198242,-0.3477680757159161,-1.2945393139146268,-9.128244542479514,-0.1622462207344175,0.034457728266716,0.0042309761047363,3.3421102872669697,0.0018183290958404
2025-04-30 00:17:04.525462300,15.317462158203124,-0.1426034989466554,-0.0902005061507225,-0.0913266281833261,-0.0500794723629951,0.1369899582645379,0.9732076334234868,0.2548587611803167,right,-0.0141511559486389,-0.3441755816941941,-1.311991383974999,-9.13782251816392,-0.1604996970223141,0.1185040399432182,0.0013213157653808,3.3089673115998504,0.0077897906303405
2025-04-30 00:17:04.565462000,15.3574619140625,-0.1461723110681788,-0.0566800236701965,-0.0925863870361092,-0.0705689042806625,0.1358024663370802,0.9736368911445096,0.2520637760555834,right,-0.0090947151184082,-0.3396319053488326,-1.3467699980199337,-9.147862266141177,-0.1581663194924135,0.0963834226131439,0.0002907216548919,3.266988410787284,-0.007643312215805
2025-04-30 00:17:04.605462300,15.397462158203124,-0.1482678095084427,0.0305949822068214,-0.0934507665028004,-0.0499389693140983,0.135797964889063,0.9737732718484692,0.2518457123960063,right,-0.004012107849121,-0.3371389355366441,-1.367135325178504,-9.153046390780808,-0.1568165865976621,0.0465807281434536,-0.0041285455226898,3.2439269764125345,-0.0198014080524444
2025-04-30 00:17:04.645462300,15.437462158203124,-0.1487054332660957,0.0879735648632049,-0.093839553800344,-0.0271764136850833,0.137149814376644,0.9736266424893566,0.2545889323537262,right,0.0023891925811767,-0.3364408901940965,-1.3714759847313165,-9.154684805637595,-0.1563173456921477,0.0089534148573875,-0.0030166059732437,3.2374662559658285,-0.0204496681690216
2025-04-30 00:17:04.685462300,15.477462158203124,-0.1481646284578814,0.1118567734956741,-0.0939301906686667,-0.0138980345800518,0.1391828217858383,0.9733247175401422,0.2588320568705663,right,0.0053918957710266,-0.3368321024509353,-1.3663377450600265,-9.154171595418452,-0.1563465563521034,-0.0181898400187492,-0.0010276138782501,3.241087369072437,-0.0089596807956695
2025-04-30 00:17:04.725462300,15.517462158203124,-0.1474323761387512,0.0913084596395492,-0.0939710973851517,-0.0127884121611714,0.1411391175638458,0.972954582800876,0.2629000202577894,right,0.0018739700317382,-0.3381934120781264,-1.3589848980791863,-9.150797150549293,-0.1568713429885055,-0.0382130891084671,0.0021913051605224,3.253684108056128,0.0018722414970397
2025-04-30 00:17:04.765462300,15.557462158203125,-0.1472997235854402,0.046161975711584,-0.0942274137179351,-0.0156976170837879,0.1423921636409205,0.9725959784037256,0.2653884559024214,right,0.0021146535873413,-0.340329002689441,-1.3567480789378286,-9.144082747602464,-0.1578058922182213,-0.0537892840802669,0.0027230679988861,3.273433349142969,0.0078814029693603
2025-04-30 00:17:04.805462000,15.5974619140625,-0.1480429667153939,-0.0098215602338314,-0.0947733355023782,-0.0172023978084325,0.1425273893052716,0.9722817054687116,0.2653850367002661,right,-0.002138078212738,-0.3434726929915909,-1.3620192973390222,-9.132848821404576,-0.1592868498452613,-0.08443084359169,0.0023202747106552,3.30247794958055,0.0056377351284027
2025-04-30 00:17:04.845462300,15.637462158203125,-0.1487680043343894,-0.0334208011627197,-0.0952062954424167,-0.0035320958122611,0.141821968917379,0.9720320609767638,0.2636198161516383,right,-0.0031438469886779,-0.3472694938311336,-1.366772190954536,-9.11939312750399,-0.1611710628813996,-0.0968840643763542,-0.000125914812088,3.3375130226045844,0.0053219199180603
2025-04-30 00:17:04.885462300,15.677462158203124,-0.1492491732213108,-0.0203084871172904,-0.095468799981499,0.0010296269319951,0.1411146186727774,0.9718704336181898,0.2619377389618276,right,0.005955696105957,-0.3501143407529475,-1.3697427311979231,-9.109307786819338,-0.1626045593399063,-0.0382635854184627,0.0014251172542572,3.3637326287493106,0.0018953680992126
2025-04-30 00:17:04.925462300,15.717462158203125,-0.1493517489055566,-0.0008250959217548,-0.0955012335585364,-0.0007929531857371,0.1408821220086824,0.971863028738215,0.2614199815183853,right,0.0049800276756286,-0.3505432835264228,-1.3704622776441275,-9.1077400991112,-0.162831211966482,0.0097450949251651,0.0016931295394897,3.367683704462648,-0.0010368824005126
2025-04-30 00:17:04.965462300,15.757462158203126,-0.1492585960662357,0.0162708759307861,-0.0954463076470734,-0.0053221206180751,0.141066373141738,0.9719078869703204,0.2618550850909673,right,0.0040438771247863,-0.3497614671647991,-1.3700048892654475,-9.110468647292256,-0.1624357625860799,0.0309233907610178,0.0005079805850982,3.360481810259819,-0.0036389827728271
2025-04-30 00:17:05.005462300,15.797462158203125,-0.1492209266880191,0.0439340993762016,-0.0954752770900847,-0.0221742410212755,0.1417665548557971,0.9719207709425756,0.2633694076270043,right,0.0012619495391845,-0.3484577064512311,-1.3703119093880056,-9.11484496268034,-0.1617303688323841,0.0427321530878543,-0.0005990713834762,3.348467547339201,-0.0077238380908966
2025-04-30 00:17:05.045462000,15.8374619140625,-0.1492463107888749,0.0744394734501838,-0.0956341666318925,-0.0269509591162204,0.1431217097030147,0.9718458141625048,0.2662278641989598,right,-0.0018970966339111,-0.3470203223238246,-1.371257519675046,-9.11956030076444,-0.1608910621751143,0.0491320043802261,0.0001295953989028,3.3352152670562267,-0.0062065720558166
2025-04-30 00:17:05.085462000,15.8774619140625,-0.148995001961731,0.0763057023286819,-0.0957198684446488,-0.0200460646301507,0.1447913999924961,0.9717191395062994,0.2697719038603228,right,-0.0058603286743164,-0.3457276316694421,-1.3696044917710124,-9.124160488036274,-0.1601092866200859,0.0316668674349784,-0.0011404603719711,3.323291312767565,0.0046561360359191
2025-04-30 00:17:05.125462300,15.917462158203126,-0.1491504034542151,0.0425746664404869,-0.0959907391602033,-0.0243580937385559,0.1461031643261575,0.9715456966460644,0.2724633113863399,right,-0.00199955701828,-0.3453963701750233,-1.3711859157435595,-9.125035517305136,-0.1598074925916006,-0.0018838308751583,0.0007625818252563,3.320234555545449,0.011809229850769
2025-04-30 00:17:05.165462300,15.957462158203125,-0.1494280801053104,-0.0058338344097137,-0.096218135258692,-0.0055354479700326,0.1464991035678866,0.9714286983910424,0.2732047413581674,right,0.0015097260475158,-0.3459462985030885,-1.373447723195702,-9.12284765187204,-0.1600196305569558,-0.0150085072964429,0.0022852420806884,3.325308790069818,0.0093040168285369
2025-04-30 00:17:05.205462300,15.997462158203126,-0.1497368395978037,-0.0336165353655815,-0.0963154312975849,0.006374180316925,0.1460780378795665,0.9714491443666868,0.2722681245149345,right,0.0022611021995544,-0.3463159160696546,-1.3760809943087398,-9.121207483449576,-0.1602222945724273,-0.0055044060572981,0.0031457692384719,3.32871830625236,0.003950297832489
2025-04-30 00:17:05.245462300,16.037462158203127,-0.1499082396671665,-0.0316550135612487,-0.0962928533350063,-0.0012725512497127,0.1454158881766925,0.9715334850740648,0.2708714799119293,right,-0.0002857446670532,-0.346417073958306,-1.3775940292201936,-9.120638159129022,-0.1603263778102155,0.0005388278514146,0.0017085820436477,3.329651495449245,-0.0011187493801116
2025-04-30 00:17:05.285462000,16.0774619140625,-0.1502335597923283,-0.0077096708118915,-0.0963938714105041,-0.0136214457452297,0.1450638906841622,0.9715659731333134,0.270088194903099,right,-0.0012178421020507,-0.3465138408092613,-1.3805128392763435,-9.119870681887864,-0.1603876608340446,0.000343952444382,0.0019093304872512,3.330544060374796,-0.0043792426586151
2025-04-30 00:17:05.325462000,16.1174619140625,-0.150569008308147,0.0198886655271053,-0.0965923130869637,-0.0161354020237922,0.145258670680821,0.9715126868959691,0.2704265826154377,right,-0.0001035928726196,-0.3466538170517751,-1.3835020842202006,-9.11894655278027,-0.1604152178743667,-0.005795300938189,0.00269016623497,3.331835269229114,-0.00224170088768
2025-04-30 00:17:05.365462300,16.157462158203124,-0.1508167447375256,0.0286844260990619,-0.0968311624269598,-0.0196732077747583,0.1458880516522946,0.971381636381283,0.2716648635285673,right,-0.0008200407028198,-0.3469736515571315,-1.3856009561955929,-9.11754896094203,-0.1604932301870168,-0.0042363493703305,0.0037441849708557,3.3347847666844723,-0.000616043806076
2025-04-30 00:17:05.405462300,16.197462158203123,-0.1510959218671983,0.0176627710461616,-0.0970824782992404,-0.0109626613557338,0.1464817336485596,0.971249169666558,0.272821480017785,right,-0.0045914053916931,-0.3473537644064245,-1.3879554103672505,-9.11590820799768,-0.1606020363023765,-0.0139580611139535,0.0013365447521209,3.338290144456922,0.0038044154644012
2025-04-30 00:17:05.445462300,16.237462158203126,-0.1514591247830782,-0.0006452202796936,-0.0973432284268606,-0.0073824054561555,0.1467565928472774,0.9711270511257952,0.2732871536092871,right,-0.0012889504432678,-0.3481318105178163,-1.3908739281624556,-9.11283303833604,-0.1609319616992675,-0.0294279716908931,0.0026194602251052,3.345463397087157,0.0078460872173309
2025-04-30 00:17:05.485462300,16.277462158203125,-0.15161018670271,-0.0164598133414983,-0.0974389705859826,0.0072760325856506,0.1464889697959252,0.9710551645167108,0.2726472997670284,right,0.0014780163764953,-0.3493584061257057,-1.3916297149658203,-9.10855959880054,-0.1615498190881821,-0.0279131345450878,0.0020488649606704,3.356768050433695,0.003960371017456
2025-04-30 00:17:05.525462300,16.317462158203124,-0.1515217610855668,-0.0283567253500223,-0.0973668079990736,0.0079771187156438,0.1459587950836912,0.9710477818381708,0.2715163319561242,right,-0.0001918673515319,-0.3503955857855879,-1.3902980279706418,-9.10523600733578,-0.1621167902568292,-0.0203579775989055,0.0015891343355178,3.3663232297644017,0.0028428137302398
2025-04-30 00:17:05.565462000,16.3574619140625,-0.1516559438218161,-0.0277338419109582,-0.0973736800994206,0.0042053237557411,0.1453234531410282,0.971059748341084,0.2701388125458862,right,-0.0036287903785705,-0.3512922260542295,-1.3910631671242415,-9.102062053474784,-0.1626110259350743,-0.0221254471689462,0.0006321668624877,3.37458047823906,-0.0017896890640258
2025-04-30 00:17:05.605462300,16.397462158203126,-0.1521035557653838,-0.0143954362720251,-0.0975342409085874,-0.0044239647686481,0.1448616829203711,0.9710699394355636,0.2690875072763539,right,-0.0004549622535705,-0.3517766831819914,-1.3948893012836574,-9.099821581071614,-0.162865861497596,-0.0040407478809356,0.0010005235671997,3.3790409647792576,-0.005633533000946
2025-04-30 00:17:05.645462300,16.437462158203125,-0.1521803396089177,0.0061686374247074,-0.0975463247940059,0.0011440003290772,0.1448666902811499,0.971106239559477,0.2691087124164225,right,0.001154601573944,-0.3513225177165005,-1.3958205907844006,-9.10123027882576,-0.1626379303126187,0.014762420207262,0.0011774748563766,3.3748595874413847,-0.0024026632308959
2025-04-30 00:17:05.685462300,16.477462158203124,-0.1520386048605556,0.0168321505188941,-0.0974992765080792,-0.0067754350602626,0.1451698213886911,0.9711151322081298,0.2697859869495155,right,-0.0031696557998657,-0.3507621831657161,-1.3948168205693363,-9.103295979183912,-0.162342119016416,0.0106059927493333,-0.0002180933952331,3.369699720460176,0.0009506940841674
2025-04-30 00:17:05.725462300,16.517462158203124,-0.1524395180637054,0.0080527272075414,-0.0977342273304027,-0.0162669047713279,0.145501756101735,0.9710661377414394,0.2704118359609729,right,0.0005671381950378,-0.3505859094213243,-1.3985564454890786,-9.103322867190837,-0.1621965385421163,-0.0017575658857822,0.0028637647628784,3.368076210911572,0.0025946199893951
2025-04-30 00:17:05.765462300,16.557462158203126,-0.1529607987934152,-0.001299625262618,-0.098009997252473,-0.0129427090287208,0.1455829018425604,0.971009276452315,0.2704765273910927,right,0.0006279349327087,-0.3508785785613239,-1.4031513720639048,-9.10161781683862,-0.1622980520159381,-0.0099085485562682,0.0015082508325576,3.370771441344917,0.0008787512779235
2025-04-30 00:17:05.805462000,16.5974619140625,-0.1536249019011698,-0.0032616599928587,-0.0983423719488677,-0.0172649659216403,0.1455496496575753,0.9709509012995082,0.2702735405351581,right,0.0016312599182128,-0.3513227896327867,-1.408966195822507,-9.099203741434216,-0.1624761373581564,-0.0080018080770969,0.0002219974994659,3.374861925528944,-0.0024747550487518
2025-04-30 00:17:05.845462300,16.637462158203125,-0.1542279112195417,0.0086613716557621,-0.0986678247352856,-0.0153798991814255,0.1456321117931062,0.9708731065400577,0.2703163481362111,right,0.0021814107894897,-0.3518144247949861,-1.4141978128656745,-9.096711924618482,-0.1626696906819196,-0.0140372309833765,-0.0006330609321594,3.3793884630426763,-0.0049024224281311
2025-04-30 00:17:05.885462300,16.677462158203124,-0.1542909159670573,0.0284410715103149,-0.0988075507855416,0.0044714054092764,0.1459985323444697,0.9707385322098678,0.271013926216165,right,0.0062005519866943,-0.3526935770398871,-1.4143138404607771,-9.093683516708015,-0.1630590050471909,-0.0229938924312591,0.0014047920703887,3.387480584083497,-0.0063948035240173
2025-04-30 00:17:05.925462300,16.717462158203126,-0.1532950983780576,0.02234304882586,-0.0984746275318405,0.0327496081590652,0.1464248774142347,0.9706079653307388,0.2719981273531499,right,0.0036081671714782,-0.3538653621582486,-1.4046503784500062,-9.09115838214457,-0.1636541185263513,-0.0215905643999576,0.0009988248348236,3.3982620903387666,-0.0036340653896331
2025-04-30 00:17:05.965462300,16.757462158203126,-0.1521909895873988,-0.0136477779597043,-0.0979587788804277,0.0409264117479324,0.1464684836453623,0.9706461355497786,0.2722766118529328,right,0.0041062831878662,-0.3538187416517804,-1.3946359110444784,-9.092859925365447,-0.1636985720121697,0.0108811631798744,0.0017457455396652,3.3978333435326813,0.0057694315910339
2025-04-30 00:17:06.005462300,16.797462158203125,-0.1512392199953059,-0.0401075407862663,-0.0973517280085287,0.0494077205657959,0.145781223116598,0.970851416586439,0.2710604223780598,right,-0.0021717548370361,-0.3530565221854987,-1.38637077152431,-9.096741150712967,-0.1634561691964164,0.0048004975542426,0.0012939721345901,3.3908205421611664,0.0075300931930541
2025-04-30 00:17:06.045462000,16.8374619140625,-0.1504915672142238,-0.0388311520218849,-0.0968302560028321,0.0277723595499992,0.1448736626546939,0.9710398571753645,0.2693317279188031,right,-0.0050026774406433,-0.3527673058164148,-1.3797161359407006,-9.098744307228923,-0.163453494069488,0.0004857894964516,0.0017674714326858,3.3881589217364785,0.0046601593494415
2025-04-30 00:17:06.085462000,16.8774619140625,-0.1502647378178936,-0.0216255206614732,-0.0966159711116506,0.0068492647260427,0.1441702691624971,0.9711348817225348,0.2679108223758921,right,-0.0032979846000671,-0.352970820482829,-1.3775490210346877,-9.09837488939464,-0.1636377720228077,-0.0130039229989051,0.0028856694698333,3.390032022131979,0.00049290060997
2025-04-30 00:17:06.125462300,16.917462158203126,-0.1505679960886688,0.0136420670896768,-0.0967848443079137,-0.0146538764238357,0.1440801176116047,0.9710713309511388,0.2676355037898811,right,-0.0014941096305847,-0.3537199574332527,-1.3799268560819329,-9.095443512117862,-0.1639942915247009,-0.0263754166662693,0.0046533346176147,3.3969244119942186,-0.002979040145874
2025-04-30 00:17:06.165462300,16.957462158203125,-0.1510254736972115,0.0467226952314376,-0.0971905498404353,-0.0186727754771709,0.1447294924012912,0.970829020103479,0.2688204811784295,right,0.0055042505264282,-0.3551808507064568,-1.383339587134868,-9.089895230340955,-0.164615626991233,-0.0406630784273147,0.0075128674507141,3.4103605244114994,-0.0058723092079162
2025-04-30 00:17:06.205462300,16.997462158203124,-0.1503561780752792,0.0696639344096183,-0.0971370215031267,-0.0022560358047485,0.1459356684474706,0.9705809914944736,0.27136638091484,right,0.0070279240608215,-0.3562148829264004,-1.376726452605426,-9.087327425679565,-0.1650443031720078,0.0099044740200042,0.0050574392080307,3.4198660193815824,-0.0068913698196411
2025-04-30 00:17:06.245462300,17.037462158203127,-0.1490661915804222,0.0539953596889972,-0.0967120587255888,0.0021128309890627,0.1473164991914488,0.9705003383649816,0.2744771971708752,right,0.0037639737129211,-0.3552965737930734,-1.3654685610100623,-9.092197662064432,-0.1645408326271575,0.0376641452312469,0.0020564496517181,3.411424354250729,0.0097177028656005
2025-04-30 00:17:06.285462000,17.0774619140625,-0.1476933859547744,0.0161612145602703,-0.0961169650422898,0.0223148725926876,0.1480357111288362,0.970548574922281,0.2762525087281566,right,0.0019753575325012,-0.3540695442991505,-1.353600428561866,-9.098197194740177,-0.1639589702454108,0.0222362391650676,0.0007153749465942,3.400140451431274,0.0154077112674713
2025-04-30 00:17:06.325462000,17.1174619140625,-0.1459766726146568,-0.0191199742257595,-0.0952479762943301,0.0463065132498741,0.1479910820588396,0.970696218439717,0.2764945901422413,right,0.0002380609512329,-0.3531600147813445,-1.3384287245236337,-9.103563690209388,-0.1636314296646626,0.0331628024578094,0.0031061023473739,3.391772728319466,0.0119343698024749
2025-04-30 00:17:06.365462300,17.157462158203124,-0.1443958647279813,-0.0536375492811203,-0.0942770498326554,0.0516142770648002,0.1473628971749454,0.9710304102384704,0.2755666161752811,right,-0.0001556873321533,-0.3510731805983891,-1.3250516488172113,-9.112652421072124,-0.162775462352908,0.0754009634256362,0.0060641914606094,3.372563585458696,0.0117486119270324
2025-04-30 00:17:06.405462300,17.197462158203123,-0.1428843115442194,-0.0627975463867187,-0.0931896594675511,0.0412213616073131,0.1461936326184203,0.9715319671114334,0.2735600605754459,right,-0.0045549273490905,-0.3479489746500718,-1.3127699671320616,-9.12502967208624,-0.1614578579319349,0.075287751853466,0.004041314125061,3.343777928218245,0.0077763497829437
2025-04-30 00:17:06.445462300,17.237462158203126,-0.1418110505372221,-0.0562874749302864,-0.0923756155593551,0.0420509167015552,0.1449494293455144,0.971908629552412,0.2712610632911096,right,-0.0061603784561157,-0.3461775479692391,-1.3038107078678904,-9.13228300421536,-0.1607790120287424,0.0185490474104881,0.0032408088445663,3.327442002706229,-0.0026983022689819
2025-04-30 00:17:06.485462300,17.277462158203125,-0.1414731383216587,-0.0435440093278884,-0.0920173763170932,0.0133743025362491,0.143863920655898,0.9721105649089494,0.2690993472560239,right,-0.0032291412353515,-0.3458408236680864,-1.300882691591978,-9.13383140270114,-0.1607388533510342,0.0028287656605243,0.0031783580780029,3.32433556112349,-0.0133287608623504
2025-04-30 00:17:06.525462300,17.317462158203124,-0.141969141181339,-0.0122056640684604,-0.0922273338435691,-0.0107736606150865,0.1438192666027079,0.9721266384426424,0.2689400361540572,right,-0.0018479228019714,-0.3455345208162766,-1.3055569670133291,-9.134192637228963,-0.1605611377964739,0.0036807882133871,0.0017089396715164,3.321509397786856,-0.0074606537818908
2025-04-30 00:17:06.565462000,17.3574619140625,-0.1424650707617272,0.0191326811909675,-0.0924372954124752,-0.0349216274917125,0.1437746125495176,0.9721427119763352,0.2687809467977469,right,-0.0004670023918151,-0.3452281880423291,-1.310231096304208,-9.134550949147345,-0.1603834159833269,0.0045328107662498,0.0002395063638687,3.318682649928331,-0.0015924870967864
2025-04-30 00:17:06.605462300,17.397462158203126,-0.1434272094677651,0.0269753895699977,-0.092958568827129,-0.0280706174671649,0.1442740849655646,0.972060087750263,0.2696636659687697,right,0.0051648616790771,-0.3449422633315563,-1.319154845863581,-9.134224785932895,-0.1601337824335393,0.0012790681794285,-0.0003278851509094,3.316044118118286,-8.23438167572e-05
