time,seconds_elapsed,roll,rotationRateZ,quaternionY,rotationRateY,quaternionZ,quaternionW,yaw,devicelocation,accelerationZ,pitch,gravityX,gravityZ,quaternionX,rotationRateX,accelerationX,gravityY,accelerationY
2025-04-30 00:23:27.377905200,0.5429052734375,-0.9750561151805291,-0.0432065948843956,-0.4683929073923021,0.0048296959139406,1.5358460542774958e-17,0.883472588052749,0.0085949512786789,right,-0.4385340809822082,0.0162099919642831,-8.11622555450797,-5.501999333679676,0.0091736191325314,-0.0246069524437189,0.8043180704116821,-0.158958773405198,0.081950344145298
2025-04-30 00:23:27.417905200,0.5829052734375,-0.1719289535014265,-0.0086923204362392,-0.0914701822036063,0.0111937820911407,0.1703255887136112,0.980783228691584,0.3367692792693284,right,-0.0171537399291992,-0.0826500133555368,-1.6720260344922542,-9.629084524872898,-0.0262017749376984,-0.0093927038833498,0.1472335457801818,0.8095973770726471,-0.0203559584915637
2025-04-30 00:23:27.457905200,0.6229052734375,-0.0231413939093674,0.0182202104479074,-0.0175398387580474,0.0088663343340158,0.1991419368271536,0.9794054695293758,0.4004671825643919,right,-0.0001254081726074,-0.0624190437442949,-0.2264776092689484,-9.784931504666805,-0.028278729416888,-0.022094503045082,-0.0001938454806804,0.6117244424540549,0.0043031275272369
2025-04-30 00:23:27.497905000,0.66290478515625,-0.0228126337998216,0.0158622842282056,-0.0174374412192131,0.0133872032165527,0.1994602217036709,0.979334756025364,0.40112418067898,right,0.0001396536827087,-0.0629151191485078,-0.2232537518516182,-9.78470061852038,-0.0285487005105178,-0.0164530109614133,0.0019705034792423,0.6165797004655004,0.0050245821475982
2025-04-30 00:23:27.537905000,0.70290478515625,-0.0224835334783589,0.013504359871149,-0.0173350397936779,0.0179080720990896,0.1997784630129865,0.9792637476998202,0.4017813105009716,right,0.0004042983055114,-0.0634109662056142,-0.2200266978302039,-9.784466809764504,-0.0288186631407151,-0.0108115188777446,0.0041345227509737,0.621432620389387,0.0057462975382804
2025-04-30 00:23:27.577905200,0.7429052734375,-0.0215320728390642,-0.0058114454150199,-0.0170839590151575,0.0033776622731238,0.1998668828158746,0.9792160848170026,0.4019810265287293,right,-0.0007516145706176,-0.0655386443468418,-0.2106881203922443,-9.783327576601504,-0.0299539100142142,-0.0109511818736791,0.0029998421669006,0.6422546783395111,0.0087309554219245
2025-04-30 00:23:27.617905200,0.7829052734375,-0.0208972411256084,-0.0101762190461158,-0.0169372391589326,0.0065269600600004,0.1996617511160618,0.9792324076195734,0.4015751979319488,right,3.7550926208e-06,-0.0672492775607032,-0.2044540483082644,-9.78234674887061,-0.0308584367396501,-0.0282028559595346,0.002338021993637,0.6589932663682848,0.0082835182547569
2025-04-30 00:23:27.657905200,0.8229052734375,-0.0201750522009667,-0.0112973358482122,-0.0168162396280557,0.0057284031063318,0.1993865425963933,0.9792499277191844,0.4010283335074661,right,-0.0012409687042236,-0.0696755093251164,-0.197356454730127,-9.780864401358366,-0.0321232006890904,-0.0358555167913436,0.0024990364909172,0.6827307733736931,0.0073592066764831
2025-04-30 00:23:27.697905200,0.8629052734375,-0.0196721454161533,-0.0107703320682048,-0.0167460502908138,0.0094306003302335,0.1991919763610579,0.9792588929770204,0.4006425320485365,right,-0.0003745555877685,-0.0715116832337084,-0.1924125868534669,-9.779693019491434,-0.0330757222252927,-0.0327136814594268,0.0031640343368053,0.7006926195871085,0.0058737099170684
2025-04-30 00:23:27.737905200,0.9029052734375,-0.0191698936281856,-0.0102433282881975,-0.0166758476559826,0.0131327975541353,0.1989971942006229,0.9792671309687886,0.400257623330103,right,0.0004882216453552,-0.0733480739527008,-0.187475714973174,-9.77848539726734,-0.0340282174834538,-0.0295718442648649,0.0038297493010759,0.718654246604815,0.004388228058815
2025-04-30 00:23:27.777905000,0.94290478515625,-0.0183639846341425,-0.0137639762833714,-0.0163810053437276,0.0088486671447753,0.1987442208577091,0.9793017906713954,0.3997671713458485,right,-0.0021674633026123,-0.0744398015465687,-0.1795805778091773,-9.777843007710576,-0.0346470374452366,-0.0171981304883956,0.0027288701385259,0.7293311965070665,0.0049220323562622
2025-04-30 00:23:27.817905200,0.9829052734375,-0.0175585428626074,-0.0172846242785453,-0.0160861527328407,0.0045645358040928,0.1984911319725604,0.979335913130448,0.3992775374273508,right,-0.0048250555992126,-0.0755319256690023,-0.1716909388042055,-9.77718191345334,-0.0352658412298947,-0.0048244195058941,0.0016285553574562,0.7400112151492386,0.0054555162787437
2025-04-30 00:23:27.857905200,1.0229052734375,-0.0172019912907138,-0.0342755950987339,-0.0159589277783526,0.0014559441478922,0.1977957697705727,0.9794639759723724,0.3978697190320938,right,-0.0004805922508239,-0.0762645390839148,-0.1681954979038797,-9.77669792932868,-0.0356712529340757,-0.0052500111050903,0.004603860899806,0.747174969298765,0.0106887593865394
2025-04-30 00:23:27.897905200,1.0629052734375,-0.0170057336692929,-0.0487473160028457,-0.0158763484187106,0.0015903797466307,0.1968409561705464,0.9796475269009924,0.3959269712857295,right,0.0007890462875366,-0.0767559611180991,-0.1662704663917422,-9.776362413764,-0.0359467984684997,0.0017269286327064,0.00563036929816,0.7519801045581698,0.0083875730633735
2025-04-30 00:23:27.937905200,1.1029052734375,-0.0168104265581868,-0.0632190406322479,-0.0157937533742569,0.0017248152289539,0.1958859594694058,0.9798301649571852,0.3939843219485704,right,0.0020583868026733,-0.077247784319131,-0.1643548420287668,-9.77602397558987,-0.036222314311908,0.0087038688361644,0.0066578350961208,0.7567889661446213,0.0060859993100166
2025-04-30 00:23:27.977905200,1.1429052734375,-0.0164544156057985,-0.0692387074232101,-0.0155601414198664,0.0040369099006056,0.1941587422906901,0.9801744565361712,0.390472535618034,right,-0.0011583566665649,-0.0772941907624382,-0.1608738863115199,-9.776046771943568,-0.036307299175774,0.0211638938635587,0.0022550113499164,0.7572427012614905,0.0026348382234573
2025-04-30 00:23:28.017905000,1.18290478515625,-0.0166673447542431,-0.0596027933061122,-0.0156000285882813,-0.0103959292173385,0.1928935736756435,0.9804268502125436,0.3878835786988005,right,-0.0010137557983398,-0.0771123282623829,-0.1629577799134887,-9.776149647796151,-0.0362177138055532,0.0142555953934788,-0.0001718755811452,0.7554645126078278,-0.0008593797683715
2025-04-30 00:23:28.057905200,1.2229052734375,-0.0169655746286231,-0.0451240018010139,-0.0156882875673644,-0.005297799129039,0.1918529041184387,0.9806338253865982,0.3857501288823252,right,0.0001841783523559,-0.0769102356791148,-0.1658758958498947,-9.776253108170629,-0.0361066211311907,0.0115016531199216,-0.000692430883646,0.7534885363597422,-0.0034196972846984
2025-04-30 00:23:28.097905200,1.2629052734375,-0.0171170094995437,-0.0372895710170269,-0.0157025262376789,-0.0019634875934571,0.1910432557439198,0.9807973585453166,0.3840937395748307,right,-0.000312328338623,-0.0765938781167836,-0.1673604353192262,-9.776465874138474,-0.0359499772158278,0.0090976040810346,-0.0021590087562799,0.7503952465195208,-0.0029801875352859
2025-04-30 00:23:28.137905200,1.3029052734375,-0.0172701129613381,-0.0301257092505693,-0.0157150475502773,0.0025776934344321,0.1902325372982752,0.980960989581638,0.3824355085069383,right,0.0035099387168884,-0.0762482797216128,-0.16886170672765,-9.776698513850569,-0.0357788908829921,-0.0004974883049726,-0.0016995966434478,0.7470159793447703,-0.0004956275224685
2025-04-30 00:23:28.177905200,1.3429052734375,-0.0171481073038976,-0.0296464581042528,-0.0156365727405637,0.0106137944385409,0.189594736077088,0.9810840530220248,0.3811396220464344,right,0.0017685294151306,-0.0762965459509605,-0.1676682774256915,-9.776683316281437,-0.0358243114211616,-0.0090493466705083,-0.0007229000329971,0.7474879807706922,0.0002340897917747
2025-04-30 00:23:28.217905200,1.3829052734375,-0.0169495973387868,-0.0319432914257049,-0.0155402326546304,0.0157570037990808,0.1890517763060513,0.9811853769853413,0.3800398199584895,right,0.0005775690078735,-0.0765167959859582,-0.1657247056098654,-9.776551214334368,-0.0359597365468043,-0.0099179213866591,-0.0007411874830722,0.7496415786080062,0.0010600388050079
2025-04-30 00:23:28.257905000,1.42290478515625,-0.0167513249923594,-0.0342401228845119,-0.0154438870445116,0.0209002122282981,0.188508772967813,0.9812864061271256,0.378940095129781,right,-0.0006135702133178,-0.0767372714509462,-0.1637835084142163,-9.77641852786541,-0.0360951523212698,-0.0107864961028099,-0.0007592421025037,0.7517973684024065,0.001885786652565
2025-04-30 00:23:28.297905000,1.46290478515625,-0.0164221539190684,-0.0547316148877143,-0.0152878727830336,0.004846369381994,0.1873194493706491,0.9815052021986896,0.3765280191710528,right,-0.0021014809608459,-0.0772629495437793,-0.1605588838119059,-9.776075413516164,-0.0364025934294377,-0.0052281757816672,0.0015328358858823,0.756937215508893,0.0012421533465385
2025-04-30 00:23:28.337905200,1.5029052734375,-0.0167167678327776,-0.1052297502756118,-0.0152202819879093,-0.0020990865305066,0.1849590585943019,0.9819777780630156,0.3717100013211959,right,-0.0030468106269836,-0.0759120963623283,-0.1634559752265922,-9.777041043677926,-0.0357487469598749,0.021725371479988,0.0014254618436098,0.7437287013024091,0.0020478218793869
2025-04-30 00:23:28.377905200,1.5429052734375,-0.0170048299867105,-0.1557278782129287,-0.0151525992137084,-0.0090445429086685,0.1825975060685431,0.9824443678570578,0.366892896658823,right,-0.003993809223175,-0.07455986410874,-0.1662893172226846,-9.777990307226776,-0.0350946832423067,0.0486789159476757,0.0013115890324115,0.7305053548529744,0.0028549954295158
2025-04-30 00:23:28.417905200,1.5829052734375,-0.0181980794263083,-0.2003549039363861,-0.0155156990937383,-0.0379785671830177,0.1797884474087039,0.9829825345734996,0.3611364956477993,right,-0.004841923713684,-0.073194484021033,-0.1779747683140449,-9.778772982037069,-0.0343597452130054,0.0438388437032699,0.0007403902709484,0.7171520253483206,0.009119801223278
2025-04-30 00:23:28.457905200,1.6229052734375,-0.0206128810108201,-0.2182795852422714,-0.0163933597546322,-0.0557149350643157,0.1754290558181579,0.9837908450970718,0.3521930126061774,right,-0.0021476745605468,-0.0714046607992256,-0.2016141487072222,-9.779582544854282,-0.0333364839390992,0.0499578714370727,0.0008462741971015,0.6996457408826798,0.0040491521358489
2025-04-30 00:23:28.497905000,1.66290478515625,-0.0218684231842514,-0.1939854770898819,-0.0168169822769616,-0.0213223807513713,0.172100012402632,0.9843889578309613,0.3453892315372855,right,-0.0002234578132629,-0.0704610552425979,-0.2139070093735121,-9.77997709712982,-0.0328195271669922,0.027208199724555,-0.0003369636833667,0.6904154095921665,-0.0008226558566093
2025-04-30 00:23:28.537905000,1.70290478515625,-0.0231174078708904,-0.1696913540363311,-0.0172404020604915,0.0130701772868633,0.1687689598853392,0.9849752688712726,0.3385871393460107,right,0.0016989707946777,-0.0695089338281693,-0.2261369791377335,-9.78035528279245,-0.0323021744487628,0.0044585261493921,-0.0015266146510839,0.681101126345247,-0.0056858956813812
2025-04-30 00:23:28.577905200,1.7429052734375,-0.0222422846835565,-0.0918843299150466,-0.0166942623968463,0.0455338321626186,0.1654171464261673,0.9855498499707624,0.3318123286546982,right,0.005195677280426,-0.0694435283957381,-0.2175788662866689,-9.78059376772344,-0.0324005392718629,-0.00947792455554,-0.0005200412124395,0.6804612940717488,-0.014537289738655
2025-04-30 00:23:28.617905200,1.7829052734375,-0.0204965632218185,-0.0360841006040573,-0.0157926885737426,0.0490457601845264,0.1647500580844338,0.985675409641832,0.3305173178032098,right,0.0014230012893676,-0.0691967501861023,-0.2005077949005179,-9.781126267164945,-0.0324335216539681,-0.0065244832076132,-0.001821544021368,0.6780469994716346,-0.0125609636306762
2025-04-30 00:23:28.657905200,1.8229052734375,-0.0187505464280029,0.0197161324322223,-0.0148910920421632,0.0525576844811439,0.1640827474905383,0.9857996284120928,0.3292218472889192,right,-0.0023528337478637,-0.0689522157282288,-0.1834325770622119,-9.781627202424406,-0.0324664599434214,-0.0035710418596863,-0.0031234677881002,0.6756546975076199,-0.010586891323328
2025-04-30 00:23:28.697905200,1.8629052734375,-0.0166635690461794,0.0253619384020566,-0.0137906966928232,0.0279720239341259,0.1645089910569763,0.9857563909120016,0.3301583594838206,right,-0.0052219033241271,-0.0678909433932519,-0.1630300231657922,-9.78269980009198,-0.0321080417019666,0.0180314015597105,0.0056522265076637,0.665271469854936,0.0004980191588401
2025-04-30 00:23:28.737905200,1.9029052734375,-0.0158635396198362,0.0165790505707263,-0.0133405443719408,0.0157490149140357,0.1647334243804394,0.985735480553381,0.3306415934589759,right,-0.0053707957267761,-0.0671162220515433,-0.1552116410324349,-9.783339851561188,-0.0317887400021882,0.0130445584654808,0.0018388517200946,0.6576913899894803,0.0050404146313667
2025-04-30 00:23:28.777905000,1.94290478515625,-0.0142060902979934,-0.0044135339558124,-0.0124876673473273,0.0259906649589538,0.1648727919065618,0.9857270323204944,0.3309786993028493,right,-0.0048009157180786,-0.0666131991434123,-0.1390007301395759,-9.78391326753497,-0.0316751955004967,0.0072705615311861,0.0009316513314843,0.6527694234173744,0.0049100890755653
2025-04-30 00:23:28.817905200,1.9829052734375,-0.0137421054746946,-0.0066658984869718,-0.0121852085609632,0.0113517669960856,0.1648963956724685,0.9857398966485764,0.3310427064132729,right,-0.0026578307151794,-0.0657035649395552,-0.1344692333229351,-9.78456617848575,-0.0312646917039338,0.0241308249533176,0.0013948129490017,0.6438684702116996,0.0042313411831855
2025-04-30 00:23:28.857905200,2.0229052734375,-0.0132782092743786,-0.0089182630181312,-0.0118827473873764,-0.0032871318981051,0.1649199514550198,0.9857525993619772,0.3311063062229236,right,-0.000515878200531,-0.06479391672306,-0.129937919169385,-9.785209152564406,-0.0308541844943973,0.0409910902380943,0.001857996918261,0.6349668594188987,0.0035526528954505
2025-04-30 00:23:28.897905200,2.0629052734375,-0.0129304205508112,-0.0202354677021503,-0.0116011585704803,0.0196326337754726,0.1646424403970984,0.9858202639624104,0.3305555395134409,right,0.0015829205513,-0.0635558391974188,-0.1265447969992179,-9.786032159385083,-0.0302757899080297,0.0420692935585975,0.0015117917209863,0.622850451298058,0.0034196898341178
2025-04-30 00:23:28.937905200,2.1029052734375,-0.0117465867135077,-0.0163724534213542,-0.0108765623950912,0.030488234013319,0.1641260717537626,0.9859344446064316,0.3295453990741944,right,-0.0013289451599121,-0.0620203320542056,-0.1149707703930791,-9.787119954621792,-0.0296218093786388,0.0374190472066402,-0.0002350863069295,0.6078219551227987,-0.0014340654015541
2025-04-30 00:23:28.977905200,2.1429052734375,-0.0104694919765135,-0.0124796377494931,-0.010092680671327,0.0104564186185598,0.1636513948146706,0.9860436331526524,0.3286212688834251,right,-0.0016229748725891,-0.0602990131726394,-0.1024824054209981,-9.788290751966834,-0.0288826551133638,0.0273529030382633,-0.0017163520678877,0.590973148185201,0.0011900849640369
2025-04-30 00:23:29.017905000,2.18290478515625,-0.0102028991667576,-0.0005348548293113,-0.0098939978144153,0.0141218332573771,0.1637010665278995,0.9860489337764178,0.3287299652738448,right,7.78436660766e-05,-0.0594567079089363,-0.0998779494104906,-9.788811560970544,-0.0284886303734164,0.0212949179112911,-0.0006089340895414,0.5827277362788096,0.0017619729042053
2025-04-30 00:23:29.057905200,2.2229052734375,-0.0099364067353416,0.0114099271595478,-0.0096953119585479,0.0177872478961944,0.1637507230817582,0.9860538871791424,0.3288384195173516,right,0.0017780065536499,-0.0586143561875682,-0.0972741509871091,-9.78932535571158,-0.0280945955325515,0.0152369327843189,0.0004985472187399,0.5744814841222018,0.0023339539766311
2025-04-30 00:23:29.097905200,2.2629052734375,-0.0094445912921865,-0.0050467979162931,-0.0094618624942644,0.0088395215570926,0.1638015201148812,0.9860453563707232,0.3289554999208569,right,-0.0017285943031311,-0.0587046511022051,-0.0924591062550432,-9.789320095014572,-0.0281788273155008,-0.0155568961054086,0.0002215970307588,0.5753654638824984,0.003716554492712
2025-04-30 00:23:29.137905200,2.3029052734375,-0.0089655781814442,-0.0083726458251476,-0.009264074650805,0.019111817702651,0.1635966727421017,0.9860724102011438,0.3285539292113921,right,-0.0020050406455993,-0.0592439385722302,-0.0877670851144473,-9.789051799467206,-0.0284858111475161,0.0027682594954967,0.0018041315488517,0.5806448655901476,-0.0056225135922431
2025-04-30 00:23:29.177905200,2.3429052734375,-0.0082711341805195,-0.0020605362951755,-0.0089007926821535,-3.53070499841e-05,0.1634157718130315,0.9861068188970384,0.3282069460166636,right,-0.0052010416984558,-0.0590485175474644,-0.0809700545186176,-9.789223648902771,-0.0284478051944571,0.0064588603563606,0.001690930686891,0.5787317985104397,0.0009185783565044
2025-04-30 00:23:29.217905200,2.3829052734375,-0.0083069763896087,0.0067227827385067,-0.0089274335989665,-0.0090229585766792,0.1635914803077733,0.9860769854304172,0.3285623501067095,right,-0.0031555294990539,-0.0590964624928702,-0.0813206945871934,-9.78919266924262,-0.0284669286333015,-0.0045328917913138,0.0022388203069567,0.579201169587858,-0.0008415877819061
2025-04-30 00:23:29.257905000,2.42290478515625,-0.0083069763896087,0.0155061027035117,-0.0089274335989665,-0.0180106088519096,0.1635914803077733,0.9860769854304172,0.3285623501067095,right,-0.0011069178581237,-0.0590964624928702,-0.0813206945871934,-9.78919266924262,-0.0284669286333015,-0.0155246444046497,0.0027509550563991,0.579201169587858,-0.0025538951158523
2025-04-30 00:23:29.297905000,2.46290478515625,-0.0087779965735386,0.016687337309122,-0.0092011174495447,-0.037919532507658,0.1641941147116928,0.9859712655527766,0.3297712440337895,right,-0.0070424675941467,-0.0593925459849295,-0.0859300789456348,-9.788981656840445,-0.0285688324943117,0.0218151304870843,0.0008119465783238,0.5820996675083413,-0.0102434642612934
2025-04-30 00:23:29.337905200,2.5029052734375,-0.0102741845633572,-0.0085545219480991,-0.0098045107656656,-0.0417548939585685,0.1641636115661358,0.9859967649293468,0.3296665312980982,right,-0.0020319819450378,-0.0577727646715521,-0.1005856866878922,-9.7897719304353,-0.0276479326441662,0.0266580022871494,0.0021627191454172,0.5662422827608883,-0.0031596980988979
2025-04-30 00:23:29.377905200,2.5429052734375,-0.0116921984033619,-0.0191076714545488,-0.0104141601163902,-0.0211415346711874,0.1637734450091872,0.986071629684323,0.3288365238859039,right,-0.0010040998458862,-0.0568183194704977,-0.1144738811210729,-9.790155376794932,-0.027065289041895,0.0064125917851924,0.0042126160115003,0.5568977139735594,0.0022662132978439
2025-04-30 00:23:29.417905200,2.5829052734375,-0.0120272230762962,-0.0158941019326448,-0.0105704893414717,-0.0082439491525292,0.1634773508575015,0.9861197953904208,0.3282267830416144,right,-0.0012675523757934,-0.0568108713556467,-0.117753870906122,-9.790120890003442,-0.0270374076595705,-0.0061211669817566,0.0026467638090252,0.556824794867821,0.000563308596611
2025-04-30 00:23:29.457905200,2.6229052734375,-0.0120255219368443,-0.0022669369354844,-0.0106139688555631,0.0046675084158778,0.1632094230146638,0.9861550261426812,0.3276826352109943,right,4.79817390441e-05,-0.0574454307116159,-0.1177329468491021,-9.789765500694513,-0.0273533269399546,-0.0173117741942405,0.0011661248281598,0.5630375319028272,-0.0020106360316276
2025-04-30 00:23:29.497905000,2.66290478515625,-0.0117671687775683,0.0034005315974354,-0.0105310323560699,0.0066311135888099,0.1632292333427489,0.9861447479383764,0.3277294107850509,right,-0.0011956095695495,-0.0579833654125577,-0.1152001404358539,-9.789491359928247,-0.02763941886675,-0.0155282355844974,0.0016851359978318,0.5683041106615215,-0.0017243511974811
2025-04-30 00:23:29.537905000,2.70290478515625,-0.0112899349242003,0.0059710005298256,-0.0103327599773022,0.0079210186377167,0.1633650044988963,0.986117671051876,0.3280178169720525,right,-0.0013800859451293,-0.058388752421342,-0.1105256458187941,-9.789314249795677,-0.0278767737305342,-0.0063519421964883,0.0008720234036445,0.572272868162021,0.000153049826622
2025-04-30 00:23:29.577905200,2.7429052734375,-0.0112899349242003,-0.0007944963872432,-0.0103327599773022,0.0084635401144623,0.1633650044988963,0.986117671051876,0.3280178169720525,right,0.0003740787506103,-0.058388752421342,-0.1105256458187941,-9.789314249795677,-0.0278767737305342,0.0033614803105592,0.0006005950272083,0.572272868162021,0.0009350031614303
2025-04-30 00:23:29.617905200,2.7829052734375,-0.0107286749380059,-0.0024644997902214,-0.0100444842660673,0.0089645218104124,0.1633180673654915,0.9861288368610448,0.3279385498972674,right,-0.0005809664726257,-0.0582607148545508,-0.1050320625043474,-9.789448105308413,-0.0278598838785853,0.0049163401126861,0.0002572741359472,0.5710193609695882,-0.0003597699105739
2025-04-30 00:23:29.657905200,2.8229052734375,-0.0101674170579861,-0.0041345031931996,-0.0097562109420563,0.0094655035063624,0.1632711018242552,0.9861400550697228,0.3278592238021838,right,-0.0015363693237304,-0.0581327415944226,-0.0995383787252008,-9.789578453689812,-0.0278429974396109,0.0064711994491517,-8.60532745718e-05,0.5697665113642811,-0.001654602587223
2025-04-30 00:23:29.697905200,2.8629052734375,-0.0101674170579861,-0.0058045061305165,-0.0097562109420563,0.0099664852023124,0.1632711018242552,0.9861400550697228,0.3278592238021838,right,-0.0025050640106201,-0.0581327415944226,-0.0995383787252008,-9.789578453689812,-0.0278429974396109,0.0080260587856173,0.0001308172941207,0.5697665113642811,-0.0030771903693675
2025-04-30 00:23:29.737905200,2.9029052734375,-0.0091091361007435,-9.12969117052e-05,-0.0091957647557397,0.0134072173386812,0.1631496400234671,0.9861691265667012,0.3276427043199364,right,0.0017623901367187,-0.0576954498887817,-0.089180468176864,-9.789926244214175,-0.0277147566404156,0.0053522516973316,0.0011270195245742,0.5654853269137442,-0.0001755841076374
2025-04-30 00:23:29.777905000,2.94290478515625,-0.0081534055808958,-0.0056909569539129,-0.0086943750677419,0.0181724354624748,0.1630411162300161,0.986194092982233,0.3274492894683993,right,-0.0022183060646057,-0.0573583127873675,-0.0798254419276025,-9.790196877849102,-0.0276273128538462,0.0058076102286577,0.0009235702455043,0.5621846048679202,0.002862025052309
2025-04-30 00:23:29.817905200,2.9829052734375,-0.0076208714990306,-0.0082047432661056,-0.0084117603735485,0.0134029639884829,0.1628894423778246,0.986222989664481,0.3271564253475809,right,-0.000938057899475,-0.0571619351029626,-0.0746126574490685,-9.79034826901853,-0.0275751212116024,0.004749359562993,0.0010987110435962,0.5602619662422686,0.0027374550700187
2025-04-30 00:23:29.857905200,3.0229052734375,-0.0076208714990306,-0.0107185300439596,-0.0084117603735485,0.008633492514491,0.1628894423778246,0.986222989664481,0.3271564253475809,right,0.0003267526626586,-0.0571619351029626,-0.0746126574490685,-9.79034826901853,-0.0275751212116024,0.0036911086644977,0.0018054051324725,0.5602619662422686,0.002416830509901
2025-04-30 00:23:29.897905200,3.0629052734375,-0.0060983363047676,0.004581868648529,-0.0075859052353667,0.0213595032691955,0.1626546417606061,0.9862766545840728,0.3267215734978393,right,0.0003541111946105,-0.0563120090173273,-0.0597093083237064,-9.790923438557982,-0.0272816388760009,0.0234400238841772,0.0008339877240359,0.5519404568923637,-0.0002128407359123
2025-04-30 00:23:29.937905200,3.1029052734375,-0.0049492576665215,0.0118180364370346,-0.0069534155458181,0.0339553020894527,0.1628507444032043,0.9862583521841296,0.3271491915434157,right,0.0003640055656433,-0.0554308678426107,-0.0484611161384498,-9.79146821295917,-0.0269390613103844,0.0212410911917686,0.0012900654692202,0.5433128772679716,0.0005700029432773
2025-04-30 00:23:29.977905200,3.1429052734375,-0.0033415265302633,0.0095531083643436,-0.0060971684747239,0.0309508070349693,0.163127305510857,0.9862265814449834,0.3277515312787494,right,-0.0002481341361999,-0.054552805298662,-0.0327205946697387,-9.79200655761957,-0.0266351174845228,0.0210616569966077,0.0011134427040815,0.5347150717273355,-0.0016959011554718
2025-04-30 00:23:30.017905000,3.18290478515625,-0.0014826942642605,0.0047071203589439,-0.0051086722107988,0.034135103225708,0.1632771559081325,0.9862156803266988,0.3281022305448083,right,-0.0016030073165893,-0.0536145716256517,-0.0145195876718964,-9.792547824889422,-0.0263231620465565,0.0156043414026498,0.0005319863557815,0.5255275931978598,-0.0019756108522415
2025-04-30 00:23:30.057905200,3.2229052734375,-4.81474884732e-05,-0.0024389955215156,-0.0043444323864147,0.0282207578420639,0.1632429637847902,0.9862309758811946,0.3280682443208098,right,-0.0003940463066101,-0.0529235382985824,-0.000471725754496,-9.792919580811262,-0.0260995858891372,0.0139054739847779,0.0004603312117978,0.5187604736831039,-0.0014732778072357
2025-04-30 00:23:30.097905200,3.2629052734375,0.001081254203182,-0.0017470514867454,-0.0037540204735281,0.0270209088921546,0.1631828790454123,0.9862461331376228,0.3279744255740006,right,0.0024789571762084,-0.0525282685779371,0.0105886334396258,-9.793118318253756,-0.0259970256326086,0.0043546855449676,0.0013343980535864,0.5148895870665088,-0.0027076564729213
2025-04-30 00:23:30.137905200,3.3029052734375,0.0023270571203001,0.0035956071224063,-0.0031317561006108,0.0319504477083683,0.1632226711202369,0.9862405179717458,0.3280873810309483,right,0.0011149048805236,-0.0524130842017745,0.0227890563073102,-9.793156312176585,-0.0260416915371163,0.0011599527206271,0.0008992061484605,0.513761569417268,-0.0021191388368606
2025-04-30 00:23:30.177905200,3.3429052734375,0.0034113161774007,0.0002632434479892,-0.0025818680188884,0.0239172950387001,0.1632214628317219,0.9862423715235956,0.328112434342624,right,0.0006659030914306,-0.0522226999894965,0.0334076933011994,-9.7932235321939,-0.026036264061851,0.0058462647721171,0.0014881559181958,0.5118970907196402,-0.0017445348203182
2025-04-30 00:23:30.217905200,3.3829052734375,0.0044126683706702,-0.0046905595809221,-0.0020580510348721,0.0217740032821893,0.1631880546637867,0.9862517188450908,0.3280688288534802,right,-0.0008326172828674,-0.0518619103255281,0.0432149545466993,-9.79336907814443,-0.0259401151449605,0.0063385926187038,0.0028934907168149,0.508363728961721,0.0009851343929767
2025-04-30 00:23:30.257905000,3.42290478515625,0.0054228751273416,-0.0110744852572679,-0.0015346475096511,0.0220007449388504,0.1630084933188466,0.986283531555309,0.3277295418313203,right,-0.0026330947875976,-0.0516065654596637,0.0531089602106018,-9.793450326687095,-0.0258968840912293,0.0053248801268637,0.0024597393348813,0.5058629981871694,0.0008286274969577
2025-04-30 00:23:30.297905000,3.46290478515625,0.0060539134161852,-0.0098087871447205,-0.0011913026830164,0.0107460496947169,0.1627852605520172,0.9863237379167455,0.327291103846729,right,-0.0004571080207824,-0.0512817206648929,0.0592899823665153,-9.793578336980936,-0.025788385559421,0.0045504565350711,0.0029235780239105,0.5026815916720777,0.0004206411540508
2025-04-30 00:23:30.337905200,3.5029052734375,0.0063932900407236,-0.0100546041503548,-0.0009738565078833,0.0053080953657627,0.1625318695753148,0.9863717991128572,0.3267821921244349,right,-0.000872254371643,-0.0507468389529304,0.0626154004621785,-9.793825005218386,-0.0255524820707255,0.0227744113653898,0.003176609519869,0.4974430334314703,-0.0029717721045017
2025-04-30 00:23:30.377905200,3.5429052734375,0.0070867154635801,-0.0084207970649003,-0.0005725631098404,0.0148293059319257,0.1623919501528245,0.9864025256989796,0.3265112157417288,right,-0.0016059875488281,-0.0500599199693071,0.069409079190297,-9.794119019728898,-0.0252701375387073,0.0125277042388916,0.0023480621166527,0.4907151864811778,0.0009653642773628
2025-04-30 00:23:30.417905200,3.5829052734375,0.0079517856372608,-0.0067589501850306,-9.80119911193e-05,0.0115920063108205,0.162240850188207,0.9864326149135886,0.3262226486080863,right,-0.0021836757659912,-0.0495151957178656,0.0778837698079179,-9.79432126430273,-0.0250717388941914,0.0105754099786281,0.0018753614276647,0.4853798898678272,0.000110238790512
2025-04-30 00:23:30.457905200,3.6229052734375,0.0079517856372608,-0.0016966764815151,-9.80119911193e-05,0.0060723731294274,0.162240850188207,0.9864326149135886,0.3262226486080863,right,0.0001778602600097,-0.0495151957178656,0.0778837698079179,-9.79432126430273,-0.0250717388941914,0.0092972004786133,0.0034247450530529,0.4853798898678272,-0.0005156472325325
2025-04-30 00:23:30.497905000,3.66290478515625,0.0087029210458434,-0.0066640931181609,0.0003328668882959,0.0124148167669773,0.1621111099853492,0.9864611985964132,0.3259728083417756,right,0.0002058744430541,-0.0488095963566723,0.0852435671193525,-9.794600081244113,-0.0247846246269085,0.0183080919086933,0.0031481459736824,0.4784686857072636,0.0001103393733501
2025-04-30 00:23:30.537905000,3.70290478515625,0.0093236290949473,-0.0112957116216421,0.000707598687525,0.0122331045567989,0.1619449729322696,0.9864967635195868,0.3256446969507459,right,-0.0004352331161499,-0.0480140435032304,0.0913266590258572,-9.794922737327218,-0.0244424428597618,0.0154679082334041,0.0035427650436758,0.4706761321349069,0.0009701512753963
2025-04-30 00:23:30.577905200,3.7429052734375,0.0098194053827916,-0.009760090149939,0.0010068573828925,0.0011875052005052,0.1617017851666675,0.9865427626191288,0.3251586615591266,right,-0.0007491707801818,-0.0474117153011635,0.0961854972338769,-9.795157715126871,-0.0241852547147686,0.0157022755593061,0.0019313115626573,0.4647760047130286,-0.0010963529348373
2025-04-30 00:23:30.617905200,3.7829052734375,0.0100440822947098,-0.0145561806857585,0.0011531760668121,0.0021254117600619,0.1614331517943265,0.9865904251735386,0.32461639167428,right,-0.0018795728683471,-0.0470538183507506,0.0983879117821343,-9.795301507511734,-0.0240265754731864,0.0056310128420591,0.0014063622802495,0.4612701520165428,-0.0016136839985847
2025-04-30 00:23:30.657905200,3.8229052734375,0.0102644502207159,-0.0135045535862445,0.0012888001722707,0.0003992748679593,0.1611561415504255,0.986638156731408,0.3240579876647582,right,-0.0011895298957824,-0.046803445390616,0.1005476562324445,-9.795395031014085,-0.0239204998411273,0.0043913498520851,0.0018242932856082,0.458817534700036,-0.0004176571965217
2025-04-30 00:23:30.697905200,3.8629052734375,0.0102644502207159,-0.0112337721511721,0.0012888001722707,-0.0008137064287438,0.1611561415504255,0.986638156731408,0.3240579876647582,right,0.0010910034179687,-0.046803445390616,0.1005476562324445,-9.795395031014085,-0.0239204998411273,-0.001772650051862,0.0033682761713862,0.458817534700036,-0.0030732899904251
2025-04-30 00:23:30.737905200,3.9029052734375,0.0104304208379478,-0.0085984589532017,0.0013676039706154,0.0010762521997094,0.1607239294921319,0.9867061600764304,0.3231874058463507,right,-0.0009539127349853,-0.0469710624976839,0.1021725996863096,-9.795300922989846,-0.0240159673656041,-0.0034833760000765,0.0019684266299009,0.4604594932207837,-0.0025330856442451
2025-04-30 00:23:30.777905000,3.94290478515625,0.0105117203239356,-0.00852039642632,0.0014191971412145,-0.0037177503108978,0.1604841506690888,0.9867458712377244,0.3227027550185821,right,-0.0018130540847778,-0.0469006051464637,0.1029692938887979,-9.795324888387322,-0.0239873970741986,0.001067912671715,0.0010354472324252,0.4597693189995363,-0.0031949691474437
2025-04-30 00:23:30.817905200,3.9829052734375,0.0105117203239356,-0.0045541515573859,0.0014191971412145,-0.0050045540556311,0.1604841506690888,0.9867458712377244,0.3227027550185821,right,-0.0003945231437683,-0.0469006051464637,0.1029692938887979,-9.795324888387322,-0.0239873970741986,-0.0021089215297251,1.84886157512e-05,0.4597693189995363,-0.0007717460393905
2025-04-30 00:23:30.857905200,4.0229052734375,0.0105117203239356,-0.0042764064855873,0.0014191971412145,0.0009261639788746,0.1604841506690888,0.9867458712377244,0.3227027550185821,right,0.0015279054641723,-0.0469006051464637,0.1029692938887979,-9.795324888387322,-0.0239873970741986,-0.0082455947995185,0.0003844033926725,0.4597693189995363,-0.001478973776102
2025-04-30 00:23:30.897905200,4.0629052734375,0.0103971515235859,-0.0033171169925481,0.0013332066118272,-8.21927096694e-05,0.1603691822058693,0.9867600890951188,0.3224705773568139,right,-5.03659248352e-05,-0.0473021829645159,0.1018451304307673,-9.795151285386083,-0.0241761681630229,-0.0064043849706649,0.0001723999157547,0.4637030782518908,-0.0011601522564888
2025-04-30 00:23:30.937905200,4.1029052734375,0.0103971515235859,-0.0023578274995088,0.0013332066118272,-0.0010905493982136,0.1603691822058693,0.9867600890951188,0.3224705773568139,right,-0.0016109347343444,-0.0473021829645159,0.1018451304307673,-9.795151285386083,-0.0241761681630229,-0.0045631751418113,-0.0001542354002594,0.4637030782518908,-0.0004401952028274
2025-04-30 00:23:30.977905200,4.1429052734375,0.0103971515235859,0.0040895477868616,0.0013332066118272,0.0057365302927792,0.1603691822058693,0.9867600890951188,0.3224705773568139,right,-0.0004453659057617,-0.0473021829645159,0.1018451304307673,-9.795151285386083,-0.0241761681630229,-0.0038105915300548,0.0002340776845812,0.4637030782518908,0.0014352574944496
2025-04-30 00:23:31.017905000,4.18290478515625,0.0103971515235859,0.0009981603361666,0.0013332066118272,0.0018223891966044,0.1603691822058693,0.9867600890951188,0.3224705773568139,right,-0.0026026368141174,-0.0473021829645159,0.1018451304307673,-9.795151285386083,-0.0241761681630229,-0.0092561338096857,0.0012610759586095,0.4637030782518908,0.0034696161746978
2025-04-30 00:23:31.057905200,4.2229052734375,0.0102413500280489,-0.0069095832295715,0.0012001943414917,-0.008281160145998,0.1602230294989042,0.986775300083603,0.3221772420252659,right,0.0011435747146606,-0.0480461082542608,0.100315464044921,-9.794819276952744,-0.0245305201511632,-0.0035299179144203,0.0038506658747792,0.4709902030527591,0.0007445178925991
2025-04-30 00:23:31.097905200,4.2629052734375,0.0102413500280489,-0.0095054768025875,0.0012001943414917,-0.0042259320616722,0.1602230294989042,0.986775300083603,0.3221772420252659,right,-0.0010900497436523,-0.0480461082542608,0.100315464044921,-9.794819276952744,-0.0245305201511632,0.0020669726654887,0.0022104196250438,0.4709902030527591,-0.000198733061552
2025-04-30 00:23:31.137905200,4.3029052734375,0.0097888745004285,-0.0109787508845329,0.0009681924996665,-0.0122067481279373,0.1597778080530538,0.9868455392023796,0.3212658320273887,right,-0.0004704594612121,-0.0482950618819741,0.0958823861014563,-9.794746211716532,-0.024616659592064,-0.0023224931210279,0.0022546956315636,0.4734287918439134,-0.0005981475114822
2025-04-30 00:23:31.177905200,4.3429052734375,0.0093204404210623,-0.0138861192390322,0.00069243850097,-0.0111780492588877,0.1595090323910627,0.9868822087358234,0.3207149738813781,right,-0.0013124942779541,-0.0489384762476973,0.0912913319841493,-9.794483761388063,-0.0248965095034952,-0.0162083897739648,0.0020641013979911,0.4797310703258961,-0.0030712150037288
2025-04-30 00:23:31.217905200,4.3829052734375,0.0088058231927068,-0.006989236921072,0.0004121591161743,-0.0122872730717062,0.15927528940698,0.9869160390961624,0.320231692186759,right,0.0004521608352661,-0.0493441669798992,0.0862491822316311,-9.794333539262414,-0.0250555451200803,-0.0089404918253421,0.0038255751132965,0.4837047231972217,-0.00297137722373
2025-04-30 00:23:31.257905000,4.42290478515625,0.0084468186966821,-0.0032649806234985,0.0001895165431912,-0.0117499725893139,0.1591754691576196,0.9869254516982094,0.3200252948805667,right,-0.0007081627845764,-0.0499473962748354,0.0827304883198812,-9.794070504412057,-0.0253245895628109,-0.0157118253409862,0.0023147026076912,0.4896131069907918,-0.0006499700248241
2025-04-30 00:23:31.297905000,4.46290478515625,0.0084468186966821,-0.003360902890563,0.0001895165431912,-0.0027075242251157,0.1591754691576196,0.9869254516982094,0.3200252948805667,right,-0.0019997954368591,-0.0499473962748354,0.0827304883198812,-9.794070504412057,-0.0253245895628109,-0.0218543875962495,0.0017557460814714,0.4896131069907918,0.0004551671445369
2025-04-30 00:23:31.337905200,4.5029052734375,0.0081338925185821,-0.0016983313253149,-6.37702118039e-05,-0.010396908968687,0.1590894630177579,0.9869236405287668,0.3198532888282675,right,-9.01818275451e-05,-0.0512160419235311,0.0796605519557837,-9.7934672778219,-0.0259256956498989,-0.0162528101354837,0.0020751571282744,0.5020383618650958,7.98739492893e-05
2025-04-30 00:23:31.377905200,4.5429052734375,0.007925274733792,0.0006786877056583,-0.0002134074027846,-0.0039728116244077,0.1590418987489952,0.986923957267263,0.319756334698517,right,0.000706672668457,-0.0518182467216019,0.0776150450022891,-9.793179108530282,-0.0262062635234825,-0.0090354410931468,0.0027838898822665,0.5079361146667972,0.0008098483085632
2025-04-30 00:23:31.417905200,4.5829052734375,0.007925274733792,-0.0029360787011682,-0.0002134074027846,-0.006718018092215,0.1590418987489952,0.986923957267263,0.319756334698517,right,-0.000105857849121,-0.0518182467216019,0.0776150450022891,-9.793179108530282,-0.0262062635234825,-0.0019431435503065,0.001825344748795,0.5079361146667972,0.0008930265903472
2025-04-30 00:23:31.457905200,4.6229052734375,0.0074262548469533,-0.0026229727081954,-0.0004829042046902,-0.0134733542799949,0.1589317541394908,0.9869382817088742,0.319522490559209,right,-0.0013795495033264,-0.0521489171543229,0.0727267934701172,-9.793048175626993,-0.0263298055850371,-0.0051031224429607,0.002012921962887,0.5111745120661333,-0.000453732907772
2025-04-30 00:23:31.497905000,4.66290478515625,0.0070160829526432,0.001529786735773,-0.0007204871147356,-0.0086221750825643,0.1589262395391729,0.986934071619834,0.3195038374803405,right,0.0002950429916381,-0.0525941670044637,0.0687083470424171,-9.79284885366261,-0.0265169255237214,-0.0121370051056146,0.0006395853124558,0.5155349357653409,-0.000589732080698
2025-04-30 00:23:31.537905000,4.70290478515625,0.0070160829526432,0.001001366879791,-0.0007204871147356,-0.0150574371218681,0.1589262395391729,0.986934071619834,0.3195038374803405,right,-0.0033685564994812,-0.0525941670044637,0.0687083470424171,-9.79284885366261,-0.0265169255237214,-0.0248179212212562,-0.0003140610642731,0.5155349357653409,0.0017110928893089
2025-04-30 00:23:31.577905200,4.7429052734375,0.0061912947554805,-0.0009588345419615,-0.0012533338592604,-0.0051899226382374,0.159019131215835,0.9868995456080644,0.3196814353840397,right,0.0020343661308288,-0.0541457254179614,0.0606262770381523,-9.792090728771688,-0.0272168856347407,-0.0260781347751617,0.0016510463319718,0.5307288516353815,-0.000901736319065
2025-04-30 00:23:31.617905200,4.7829052734375,0.0061912947554805,-0.0022487409878522,-0.0012533338592604,-0.0046801501885056,0.159019131215835,0.9868995456080644,0.3196814353840397,right,-0.0001068711280822,-0.0541457254179614,0.0606262770381523,-9.792090728771688,-0.0272168856347407,-0.0123827196657657,0.0029197647236287,0.5307288516353815,0.0014639049768447
2025-04-30 00:23:31.657905200,4.8229052734375,0.0057598053951692,-0.0099842716008424,-0.0015696528906979,-0.0047238636761903,0.1588960962051388,0.986901254211835,0.3194299732523091,right,-0.0009584426879882,-0.0554888798388624,0.0563969278061296,-9.79139397867918,-0.0278455343758082,-0.0282140001654624,0.0021519535221159,0.5438809229468926,0.0025976859033107
2025-04-30 00:23:31.697905200,4.8629052734375,0.0055705351508092,-0.0127616059035062,-0.0017517739651242,-0.0075148744508624,0.1586423580999108,0.986925193635022,0.3189192371763864,right,0.0002605319023132,-0.0566958476331416,0.0545400113604497,-9.7907410677284,-0.0284265047314235,-0.0286656506359577,0.001400769688189,0.5556986038494854,0.0002041570842266
2025-04-30 00:23:31.737905200,4.9029052734375,0.0054273599420471,-0.0091789383441209,-0.0018960261211637,-0.0014823712408542,0.1583880884827982,0.9869514891247944,0.3184073135092148,right,0.0010390877723693,-0.0577160634942785,0.0531351175651652,-9.790176419582965,-0.028919055360979,-0.0199293158948421,0.0015325089916586,0.5656871330961585,-0.000735267996788
2025-04-30 00:23:31.777905000,4.94290478515625,0.0054558417933747,-0.003951471298933,-0.0019290899816592,-0.0013616031501442,0.1582269112148952,0.9869677755772436,0.3180863854378024,right,-0.0006382465362548,-0.0583696714070454,0.0534119297791272,-9.789803494617342,-0.0292441486729683,-0.010400635190308,0.0018710168078541,0.572086076885648,-0.0001933649182319
2025-04-30 00:23:31.817905200,4.9829052734375,0.0054558417933747,-0.0013974704779684,-0.0019290899816592,-0.0055438978597521,0.1582269112148952,0.9869677755772436,0.3180863854378024,right,0.0013469457626342,-0.0583696714070454,0.0534119297791272,-9.789803494617342,-0.0292441486729683,-0.0104979360476136,0.0024199392646551,0.572086076885648,-0.0006077326834201
2025-04-30 00:23:31.857905200,5.0229052734375,0.0054558417933747,0.003919631242752,-0.0019290899816592,-0.0055555701255798,0.1582269112148952,0.9869677755772436,0.3180863854378024,right,0.0016983747482299,-0.0583696714070454,0.0534119297791272,-9.789803494617342,-0.0292441486729683,-0.004738240968436,0.0023331381380558,0.572086076885648,-0.0005445405840873
2025-04-30 00:23:31.897905200,5.0629052734375,0.0049565897954671,0.0052555734291672,-0.0022540061860222,-0.0053922585211694,0.158354939177945,0.986933720985629,0.3183378146973427,right,-0.0015390515327453,-0.0593144105335929,0.048521641553496,-9.78928385465741,-0.0296705692564188,-0.0141261033713817,0.0007126573473215,0.5813347475504502,0.0006206072866916
2025-04-30 00:23:31.937905200,5.1029052734375,0.0047360687174805,0.0048643248155713,-0.0024223507272153,-0.0075279017910361,0.1584970933929348,0.986900748139242,0.3186242852992527,right,-0.0009541511535644,-0.060011325616813,0.0463609700880013,-9.788886964294312,-0.0299966540329236,-0.0185757521539926,0.0006116540171205,0.5881569947859272,0.0008750632405281
2025-04-30 00:23:31.977905200,5.1429052734375,0.0044625202974557,0.0044416990131139,-0.0026365427008012,-0.0083784842863678,0.158612922547336,0.986867809351172,0.3188574655843541,right,0.0007209181785583,-0.0609652182928873,0.0436807088949251,-9.78833342206478,-0.0304453543638494,-0.0244394447654485,0.0014371569268405,0.5974943666474893,0.0018039382994174
2025-04-30 00:23:32.017905000,5.18290478515625,0.0044977097947947,0.0001908233389258,-0.0027072135540194,0.0070788143202662,0.158638432109441,0.986846518419358,0.3189181272497793,right,0.000869333744049,-0.0620624842146902,0.0440221792763564,-9.787670574241876,-0.0309894765645442,-0.0261017717421054,0.0023388401605188,0.608234517979063,0.0022135190665721
2025-04-30 00:23:32.057905200,5.2229052734375,0.0049757752324768,-0.009024204686284,-0.0025609507900249,0.0113416034728288,0.1585328837137037,0.9868444860989544,0.3187280436626605,right,-0.0013908743858337,-0.0632292432668625,0.0486977561722276,-9.786932323095202,-0.0316033233444149,-0.0249042250216007,0.0021362272091209,0.6196540664095431,0.0021669343113899
2025-04-30 00:23:32.097905200,5.2629052734375,0.005499489858165,-0.0086638871580362,-0.0023708701737268,0.0097850821912288,0.1583038449682343,0.98686513708555,0.3182880927606059,right,-0.0020714402198791,-0.0641794261947013,0.0538200493557145,-9.786312145370244,-0.0321141856137832,-0.0131615912541747,0.0013988767750561,0.6289532982178032,-0.0011239498853683
2025-04-30 00:23:32.137905200,5.3029052734375,0.0058043177204295,-0.0008687488734722,-0.0022545371132144,0.000546358525753,0.158219888859966,0.9868706749636974,0.3181316117464126,right,-0.0005953311920166,-0.0646414564279854,0.0568014945856062,-9.78600351781249,-0.0323664613052906,-0.0051840618252754,0.0021267286501824,0.6334748672954738,-0.0007677152752876
2025-04-30 00:23:32.177905200,5.3429052734375,0.0059999996285728,-0.0031483019702136,-0.0021917820050759,0.0011846362613141,0.1581899179157519,0.9868680544382408,0.3180808919885739,right,0.0002162456512451,-0.0650786631184417,0.058714767161291,-9.785714179477097,-0.0325977215062049,-0.0122284088283777,0.0021480941213667,0.6377533483322709,-0.0001308396458625
2025-04-30 00:23:32.217905200,5.3829052734375,0.0063147793828747,-0.0009505136404186,-0.0020764816076563,0.0008862452814355,0.1581809367107867,0.9868606089517896,0.3180773352470399,right,-0.0013790726661682,-0.0655847744540432,0.0617930649283574,-9.785371649649738,-0.0328723464329431,-0.0145388040691614,0.0020710048265755,0.6427060753688216,-0.000667504966259
2025-04-30 00:23:32.257905000,5.42290478515625,0.0063147793828747,-0.0028092693537473,-0.0020764816076563,0.0017380721401423,0.1581809367107867,0.9868606089517896,0.3180773352470399,right,-0.00177663564682,-0.0655847744540432,0.0617930649283574,-9.785371649649738,-0.0328723464329431,-0.0085308607667684,0.0003401478752493,0.6427060753688216,-0.0026620402932167
2025-04-30 00:23:32.297905000,5.46290478515625,0.0063147793828747,0.00373021280393,-0.0020764816076563,0.0034180013462901,0.1581809367107867,0.9868606089517896,0.3180773352470399,right,0.0002164244651794,-0.0655847744540432,0.0617930649283574,-9.785371649649738,-0.0328723464329431,-0.0140119567513465,0.0004433724097907,0.6427060753688216,0.0021635442972183
2025-04-30 00:23:32.337905200,5.5029052734375,0.0067482381336823,0.0032968241721391,-0.0019966604014893,0.0105667496100068,0.1582221176343866,0.9868251687061392,0.3181897468033028,right,-0.0002263188362121,-0.0672536005596334,0.0660272866983199,-9.784257550927997,-0.0337299270077891,-0.0386316403746604,0.0005065579898655,0.6590355711400508,0.0041800960898399
2025-04-30 00:23:32.377905200,5.5429052734375,0.0071752992097146,-0.0021028975024819,-0.0019075305851022,0.011772402562201,0.1582367419441625,0.986795942432822,0.3182477831378513,right,0.0015717148780822,-0.0687756594791847,0.0701984760023187,-9.783214179354903,-0.0345146181342988,-0.030911112204194,0.0013060187920928,0.6739273622583597,0.0004159659147262
2025-04-30 00:23:32.417905200,5.5829052734375,0.0071752992097146,-0.0016281249700114,-0.0019075305851022,0.0110405050218105,0.1582367419441625,0.986795942432822,0.3182477831378513,right,0.0005959272384643,-0.0687756594791847,0.0701984760023187,-9.783214179354903,-0.0345146181342988,0.0009790044277906,0.0024389652535319,0.6739273622583597,0.0007064417004585
2025-04-30 00:23:32.457905200,5.6229052734375,0.0080689948402886,6.96134520694e-05,-0.0014688861024362,0.0113992616534233,0.1581779726718187,0.9868027953881736,0.3181604197992081,right,-0.0016052722930908,-0.0688237994697083,0.0789413982352241,-9.78311481063366,-0.0346091380563241,0.0182974245399236,0.0025546597316861,0.6743983407709747,0.0033247396349906
2025-04-30 00:23:32.497905000,5.66290478515625,0.0080689948402886,-0.0005103282746858,-0.0014688861024362,0.0116581339389085,0.1581779726718187,0.9868027953881736,0.3181604197992081,right,-0.0007887482643127,-0.0688237994697083,0.0789413982352241,-9.78311481063366,-0.0346091380563241,0.0027811005711555,0.0037100613117218,0.6743983407709747,0.0021987482905387
2025-04-30 00:23:32.537905000,5.70290478515625,0.0087303911127136,-0.0013072078581899,-0.0010942088239828,0.0053086960688233,0.1580941109972441,0.9868247921862422,0.3180079621035827,right,0.0019541978836059,-0.0682467139221993,0.0854152795576024,-9.78344798811078,-0.0343768078412147,0.0150641929358243,0.0035803215578198,0.6687522977080196,-0.0024162977933883
2025-04-30 00:23:32.577905200,5.7429052734375,0.0090461934145585,0.0093825329095125,-0.0008893951971434,-0.0012261583469808,0.1582056156145172,0.9868177139091968,0.3182382961392588,right,-0.0033701658248901,-0.0675785475443039,0.0885089347240049,-9.783865336740016,-0.0340720007095325,0.0187444500625133,-1.061707735e-06,0.6622149318285286,0.001998446881771
2025-04-30 00:23:32.617905200,5.7829052734375,0.0086026286133846,-0.0014095557853579,-0.001164357378996,-0.0083831381052732,0.1584906995449807,0.9867629689287656,0.3188065124059368,right,0.0006832480430603,-0.068163430991658,0.0841658000863157,-9.783514623606203,-0.0343251528786989,-0.0633681565523147,0.0051896851509809,0.6679374741937965,0.0095294564962387
2025-04-30 00:23:32.657905200,5.8229052734375,0.0084167537166688,0.0088235242292284,-0.0011592083403564,-0.0014193346723914,0.1583519135884981,0.9868053615011364,0.3185075869179797,right,0.0010626316070556,-0.0670069154037929,0.0823537365625146,-9.784296129372716,-0.0337400164457781,0.0420735254883766,0.0043432293459773,0.6566218610618263,0.0123813971877098
2025-04-30 00:23:32.697905200,5.8629052734375,0.0082312374813705,0.0190566033124923,-0.0011540588279903,0.0055444701574742,0.1582130316653046,0.9868474308441438,0.3182088308597214,right,0.0014407038688659,-0.0658503496800035,0.0805447874444071,-9.785064191135763,-0.0331548691622008,0.1475152224302292,0.0034964559599757,0.6453048596903681,0.0152334719896316
2025-04-30 00:23:32.737905200,5.9029052734375,0.0084495844825522,-0.0204120501875877,-0.0008419071545206,9.61422920227e-05,0.1582504566211634,0.9868834501054662,0.3182676788788187,right,-0.0148529410362243,-0.0632589190511031,0.0826951795444823,-9.786685654857754,-0.031893468606893,-0.0201944708824157,9.02060419321e-05,0.6199445007234812,0.0252701938152313
2025-04-30 00:23:32.777905000,5.94290478515625,0.00828074970609,-0.0426100343465805,-0.0010643287567814,-0.0051404922269284,0.1575857566253117,0.986957081198791,0.3169340708261433,right,-0.0005745887756347,-0.0652907970903705,0.0810322421677876,-9.785419580444692,-0.0328833817669127,-0.0258453786373138,0.0019799266010522,0.6398292778234929,-0.0181572884321212
2025-04-30 00:23:32.817905200,5.9829052734375,0.0082393221963468,-0.0015548728406429,-0.0010141914295697,0.0102215521037578,0.157106881613933,0.9870448740672092,0.3159558775919127,right,0.0068640708923339,-0.0645981664376574,0.0806304929664824,-9.785863817080855,-0.0325388325270913,0.086296409368515,-0.0020807376131415,0.6330512350559234,2.89753079414e-05
2025-04-30 00:23:32.857905200,6.0229052734375,0.0081068025542382,-0.0157246403396129,-0.0009792386440462,-0.0033856704831123,0.1568417700027249,0.987106175399038,0.3154037062365061,right,-0.0049501657485961,-0.0634348817838998,0.0793395855062641,-9.786603821793198,-0.0319546049739605,-0.0373836457729339,0.0008112993091344,0.6216666483409703,0.0156132355332374
2025-04-30 00:23:32.897905200,6.0629052734375,0.0077849972843729,-0.042229875922203,-0.001294345038019,0.0016020913608372,0.156081374751993,0.9871894892005332,0.3138735292436439,right,0.0074480772018432,-0.0657466741033502,0.0761788107872474,-9.78516589794457,-0.0330712960261682,-0.0140473507344722,0.0043918369337916,0.6442903488855809,-0.0258976332843303
2025-04-30 00:23:32.937905200,6.1029052734375,0.0082919093748231,-0.0252969600260257,-0.0008218661872934,0.0261627491563558,0.1553015848692386,0.9873525986964165,0.3122875691003744,right,0.005832552909851,-0.0632265835752481,0.0811522244188003,-9.786718388083576,-0.0318676388052762,0.1525041162967682,0.0016248701140284,0.619628055185452,-0.0066766217350959
2025-04-30 00:23:32.977905200,6.1429052734375,0.0084594933552216,-0.0495113469660282,-0.0003438645642241,-0.0247458871454,0.1546987788929997,0.987521415646356,0.3110284161570785,right,-0.0158049464225769,-0.0583835173264188,0.0828167326980736,-9.789590728649497,-0.0294899751954489,0.0419709607958793,0.0012465305626392,0.5722216128988191,0.0315250568091869
2025-04-30 00:23:33.017905000,6.18290478515625,0.0078079068361438,-0.0736207291483879,-0.0006335101447121,-0.012503239326179,0.153435785787677,0.9877186465303576,0.3084519679224302,right,-0.0001661777496337,-0.0584595679120207,0.0764376124204834,-9.789598911955952,-0.0294779640696492,-0.0161571875214576,0.0021146852523088,0.5729661476558074,-0.0122281238436698
2025-04-30 00:23:33.057905200,6.2229052734375,0.008058525915677,-0.0736134350299835,-0.0003872020618353,0.0247028060257434,0.1518934757949185,0.9879712403147628,0.305328318546759,right,0.0075944662094116,-0.0574542255456092,0.0788956776636652,-9.790150700619815,-0.0290013475113198,0.1070985719561576,0.0024071065708994,0.5631236392837018,-0.0122904330492019
2025-04-30 00:23:33.097905200,6.2629052734375,0.0088693500471467,-0.0720958262681961,0.0003851448950319,-0.0302325002849102,0.1506329517306673,0.9882243213748964,0.3027622638038275,right,-0.015343427658081,-0.0530195020300189,0.0868550300371367,-9.792484696525335,-0.0268717816204033,0.082715056836605,0.0016142260283231,0.5197002387512475,0.0222114324569702
2025-04-30 00:23:33.137905200,6.3029052734375,0.0087733571074616,-0.0844963788986206,0.0004569161504616,0.0150118246674537,0.1491394418554795,0.9884650643333706,0.2997286422753412,right,-0.0047188401222229,-0.0519690035711918,0.0859197676141746,-9.793033562579753,-0.0263448371945685,-0.0245042890310287,0.0038287593051791,0.5094125438949093,0.0011704005300998
2025-04-30 00:23:33.177905200,6.3429052734375,0.0095458793333253,-0.0795694589614868,0.0008806981201248,0.0233477540314197,0.1475546094979404,0.9887010461169242,0.2965429798931373,right,0.0018125772476196,-0.0519700440462941,0.0934850700356066,-9.792963419952988,-0.0264015878992128,0.0502309277653694,0.0023123864084482,0.5094227364953607,-0.0153843089938163
2025-04-30 00:23:33.217905200,6.3829052734375,0.010512063345328,-0.0293680541217327,0.0016125109917889,-0.0046706739813089,0.1465435303148765,0.9888883325252916,0.2944958503863533,right,-0.013392150402069,-0.0488762354371617,0.1029629006806295,-9.79439783667028,-0.0249418373558829,0.0768178403377533,-0.0032713073305785,0.479121413994953,0.0074836090207099
2025-04-30 00:23:33.257905000,6.42290478515625,0.0095099485743687,-0.0321723595261573,0.0011907713673503,-0.0286804921925067,0.1459791979919618,0.9889843072460583,0.2933225888929809,right,-0.0022078156471252,-0.0480669409064992,0.0931513993681408,-9.79488065175116,-0.0244675720154928,-0.0372973605990409,0.0001694038510322,0.471194274257496,0.0016425438225269
2025-04-30 00:23:33.297905000,6.46290478515625,0.0086773307913074,-0.0302545223385095,0.00074394327752,0.0090520940721035,0.1454082162892575,0.9890620321620108,0.2921527409654734,right,0.0107237100601196,-0.0487451705909248,0.0849931816880125,-9.794632814469932,-0.0247417342848655,0.0283518731594085,0.0007984172552824,0.4778376212621107,-0.0216734055429697
2025-04-30 00:23:33.337905200,6.5029052734375,0.0091621844690105,-0.0372768156230449,0.0012057666139014,0.0146687980741262,0.1447588590071749,0.98919015329821,0.2908290437466929,right,0.0006142258644104,-0.0459079941375939,0.0897541946779005,-9.79590648766756,-0.023373140625225,0.1064362898468971,-0.006148874759674,0.4500456147015094,0.0021517127752304
2025-04-30 00:23:33.377905200,6.5429052734375,0.0092206918618183,-0.0770676732063293,0.00149993867414,0.0003609601408243,0.1437159510284628,0.9893793716173976,0.2886958364655707,right,0.0009459257125854,-0.0425684236244619,0.0903406801958102,-9.797349672213196,-0.021724072728325,0.0307175144553184,-0.0006876364350318,0.4173276595134287,0.0204378627240657
2025-04-30 00:23:33.417905200,6.5829052734375,0.0096088049001854,-0.0991770327091217,0.0017398267515285,0.0241414029151201,0.1418994070770694,0.989641809994448,0.2850318647159091,right,0.0007076859474182,-0.0424551768561523,0.0941436070095747,-9.7973607781291,-0.0216927905168301,-0.0073622204363346,0.0002207616344094,0.4162180908363312,0.0015134662389755
2025-04-30 00:23:33.457905200,6.6229052734375,0.0103070549273106,-0.1081216782331466,0.0020747876497028,0.0285305939614772,0.1397177644763018,0.9899413784218792,0.2806457190629375,right,0.0018302798271179,-0.0432873305799905,0.1009809878821019,-9.796943429499864,-0.0221495856239471,-0.0092722624540328,0.0033360300585627,0.4243712213493883,0.0051874369382858
2025-04-30 00:23:33.497905000,6.66290478515625,0.0105411590094307,-0.102816104888916,0.002179930135207,0.0064542703330516,0.1374868600548634,0.9902433943041012,0.2761518374972145,right,-0.0018426179885864,-0.04416641313991,0.1032705144582316,-9.79654244748354,-0.0225962017345066,-0.0178360398858785,0.0086816139519214,0.4329838226003572,0.0026387125253677
2025-04-30 00:23:33.537905000,6.70290478515625,0.0106719885236506,-0.0663273334503173,0.002244363544253,0.0023283874616026,0.1357129606411793,0.9904809491981452,0.2725775257536688,right,-0.0094398260116577,-0.0447657302146037,0.1045494026870932,-9.796267722195386,-0.0228979460218368,0.003202436491847,0.0027680415660142,0.4388553084496408,-0.0102832540869712
2025-04-30 00:23:33.577905200,6.7429052734375,0.0095454404320612,-0.0456617102026939,0.0016992535219366,-0.0475988797843456,0.1346789752014559,0.9906230695839616,0.270465152154174,right,4.22596931457e-05,-0.0449332772614776,0.0935126704285852,-9.796305716118216,-0.0229026900258676,-0.0244945380836725,0.0089656626805663,0.440496755513735,0.0045832358300685
2025-04-30 00:23:33.617905200,6.7829052734375,0.0085821637319514,-0.0501774661242961,0.0011511809383135,0.023328747600317,0.1337449636089529,0.990735859485362,0.2685675224501913,right,0.0140606760978698,-0.0463162461727982,0.084070769613469,-9.795772632154822,-0.0235217173414109,-0.0344676077365875,0.0152787156403064,0.454044913470745,-0.0073447600007057
2025-04-30 00:23:33.657905200,6.8229052734375,0.010500267693148,-0.0264281705021858,0.0021216755869889,0.0438756048679351,0.1330388752122399,0.9908270545944704,0.2671873741351058,right,-0.0017626881599426,-0.0462561006532629,0.1028601983579806,-9.795620656463504,-0.0236187222258713,0.0267233215272426,0.0131139773875474,0.453455715405941,-0.0146314948797225
2025-04-30 00:23:33.697905200,6.8629052734375,0.0116093776715656,-0.0479917004704475,0.0027849742810146,0.0122490003705024,0.1323274235872084,0.9909360212511338,0.2657648972053674,right,0.002972662448883,-0.0447931933971242,0.1137321319762151,-9.796153155905008,-0.0229657978907119,0.0393392853438854,0.0139562375843524,0.4391243711819872,-0.0009933523833751
2025-04-30 00:23:33.737905200,6.9029052734375,0.0128113474236822,-0.0843667760491371,0.0035635858899227,0.0169275067746639,0.1308995984802746,0.9911471504061952,0.2628900641938416,right,-0.0060765743255615,-0.0425068401777312,0.1255192624769173,-9.79698785316348,-0.0219074356371883,0.0626159384846687,0.0059097800403833,0.4167242502601817,-0.0031626410782337
2025-04-30 00:23:33.777905000,6.94290478515625,0.0127900688950513,-0.1011016517877578,0.003713773607546,-0.037540890276432,0.1290237516954132,0.9914124234588496,0.2590880767838484,right,-0.0124008655548095,-0.0406644355811348,0.125320406303415,-9.797741301879286,-0.0209859985799839,0.0041079930961132,0.0030002538114786,0.3986720588821917,0.0119361877441406
2025-04-30 00:23:33.817905200,6.9829052734375,0.0112013905734938,-0.1224144622683525,0.0028603750827944,-0.0380352400243282,0.1267589642433116,0.9916906459877922,0.2545012347409502,right,0.0010781288146972,-0.0424561299133856,0.1097466151371598,-9.797198281043768,-0.0217651204595202,-0.0649235099554061,0.0015422152355313,0.4162274066539481,0.0067493841052055
2025-04-30 00:23:33.857905200,7.0229052734375,0.0099827692245906,-0.10675048828125,0.0022439946533384,-0.0426548011600971,0.1245494669281883,0.991963180402469,0.2500266083018966,right,-0.0019227266311645,-0.0434283466396291,0.0978033716261386,-9.79691537244916,-0.0221649726221189,-0.0124328061938285,-0.0049738129600882,0.4257528119008988,-0.0029583498835563
2025-04-30 00:23:33.897905200,7.0629052734375,0.0087597551129457,-0.0910865142941474,0.0016276018962525,-0.0472743585705757,0.1223392902024542,0.9922304648452384,0.2455506680345852,right,-0.0049256086349487,-0.0443951166493781,0.0858178964085876,-9.796611421066522,-0.0225647043420259,0.0400579012930393,-0.0114855347201228,0.4352244411339983,-0.0126605965197086
2025-04-30 00:23:33.937905200,7.1029052734375,0.0069350271379075,-0.0606362596154212,0.0008779674943612,-0.0330546572804451,0.1207926352864713,0.992445175624558,0.2423799050048483,right,0.0059061646461486,-0.0424098847408016,0.0679474639388267,-9.797596340450644,-0.0214668164485598,0.0596518740057945,-0.0081473812460899,0.4157742925915866,-0.0134895481169223
2025-04-30 00:23:33.977905200,7.1429052734375,0.0068372555629934,-0.0195611529052257,0.000999000468959,0.022019438445568,0.1200115679383856,0.9925663698506124,0.2407888403225944,right,0.0052523612976074,-0.0398717220261712,0.0669965381558518,-9.798626852542162,-0.0202006349077563,0.061298556625843,-0.0101244132965803,0.3909044936206191,-0.0163175258785486
2025-04-30 00:23:34.017905000,7.18290478515625,0.0081111771739641,0.0191898867487907,0.0017631753263013,0.0403674654662609,0.1200438118832657,0.9925816809408428,0.2408656601825267,right,-0.0005280375480651,-0.0376632063529896,0.0794859717070125,-9.79937328699529,-0.0191811011491139,0.0355795659124851,-0.004315739031881,0.3692626437202095,-0.0111471433192491
2025-04-30 00:23:34.057905200,7.2229052734375,0.0095589389888342,0.0389154180884361,0.0025620778664876,0.0414536856114864,0.1206889060175885,0.992514574260379,0.242182775144386,right,-0.0008201599121093,-0.0361229007149823,0.0936783641180023,-9.79980466414988,-0.0185052567579202,0.0250634960830211,0.0014766752719879,0.3541676947126165,-0.0035614445805549
2025-04-30 00:23:34.097905200,7.2629052734375,0.0106524206432437,0.0278303027153015,0.0031242444654021,0.0317116044461727,0.1212927356307608,0.992442792395306,0.2434161818415606,right,-0.0011089444160461,-0.0356129905911981,0.1043961300878319,-9.799875975820422,-0.0183201287565179,0.0111397672444581,0.0041326452046632,0.3491703978819772,-0.0008788257837295
2025-04-30 00:23:34.137905200,7.3029052734375,0.0117452511931923,0.0167451854795217,0.0036864089438056,0.0219695232808589,0.121896458534006,0.9923702068729788,0.244648946923756,right,-0.0013990998268127,-0.0351017292370506,0.1151077494446653,-9.799933258965613,-0.0181349870733622,-0.0027839634567499,0.006789238192141,0.3441597666457295,0.0018051490187644
2025-04-30 00:23:34.177905200,7.3429052734375,0.0128374345747523,0.0056600701063871,0.0042485709613323,0.0122274449095129,0.1225001467023572,0.9922970601154198,0.2458812750129283,right,-0.0016908049583435,-0.0345891306126883,0.1258132495879661,-9.799976513585449,-0.0179498340117454,-0.016707694157958,0.0094464560970664,0.3391359471343457,0.0044904723763465
2025-04-30 00:23:34.217905200,7.3829052734375,0.0134177755377882,0.0141505133360624,0.0044605076215106,0.0041631385684013,0.1227628369825128,0.9922524810176212,0.2464315273673883,right,-0.0014125108718872,-0.0357444206161292,0.1314952133476734,-9.799503635376691,-0.018559781602681,-0.0176766756922006,0.0072654746472835,0.3504584649311378,0.0011818632483482
2025-04-30 00:23:34.257905000,7.42290478515625,0.013998772241617,0.0226409584283828,0.0046724410020694,-0.0039011677727103,0.1230254401282653,0.992207312276759,0.2469823926903172,right,-0.0011360049247741,-0.0368993839523462,0.1371829127284232,-9.799014390555024,-0.0191697182590285,-0.0186456572264432,0.0050839083269238,0.3617772929335013,-0.0021263659000396
2025-04-30 00:23:34.297905000,7.46290478515625,0.0145804333872846,0.0311314016580581,0.0048843728785006,-0.0119654750451445,0.1232879757151383,0.9921617679070244,0.247533963848256,right,-0.0008610486984252,-0.0380540344267545,0.1428764116622973,-9.798508779120445,-0.0197796472557571,-0.0196146387606859,0.0029017524793744,0.3730926138045266,-0.0054342374205589
2025-04-30 00:23:34.337905200,7.5029052734375,0.0141980561809663,0.0254964716732502,0.0046835190700629,-0.008019546046853,0.1239301390508465,0.992083309059434,0.2488206145515199,right,-0.0003547668457031,-0.0380291246496921,0.1391298090124968,-9.798571907484533,-0.0197467374546357,-0.0130966808646917,0.00191296543926,0.3728485028503462,-0.0034260377287864
2025-04-30 00:23:34.377905200,7.5429052734375,0.0138156505087938,0.0198615416884422,0.0044826633481274,-0.0040736175142228,0.124572258819353,0.9920045553903122,0.2501073398721852,right,0.0001513957977294,-0.0380047159969203,0.1353828958354424,-9.798633282282948,-0.0197138202158313,-0.0065787239000201,0.0009242082014679,0.3726093237996101,-0.001418337225914
2025-04-30 00:23:34.417905200,7.5829052734375,0.0134332080011741,0.0142266098409891,0.0042818051653143,-0.0001276899129152,0.1252142390539471,0.9919251836702953,0.2513938657352296,right,0.0006573796272277,-0.0379807888876219,0.1316355899327434,-9.798693488037586,-0.0196808915985671,-6.07669353485e-05,-6.45071268081e-05,0.3723748209239915,0.0005888864398002
2025-04-30 00:23:34.457905200,7.6229052734375,0.0136211445357364,-0.0064841322600841,0.004343597906072,0.0055711078457534,0.1253504364555174,0.991902948304457,0.2516764167370462,right,0.0005936622619628,-0.0384367189768177,0.1334747880586423,-9.79849767320454,-0.0199193879038385,-0.0249825101345777,0.0033106682822108,0.3768427235856652,0.0053013004362583
2025-04-30 00:23:34.497905000,7.66290478515625,0.0140828518393072,-0.0231439378112554,0.0045053098996994,0.0013547292910516,0.1248137439049819,0.991956819587256,0.25061542425163,right,-0.002747356891632,-0.0396814949992198,0.1379921010863035,-9.79795874402225,-0.0205632595690696,-0.0258413609117269,0.0035177171230316,0.3890404898470267,0.0033200718462467
2025-04-30 00:23:34.537905000,7.70290478515625,0.0145432565155751,-0.0398037433624267,0.0046670179973269,-0.0028616492636501,0.1242769162366877,0.99200993961231,0.2495548578252141,right,-0.0060901045799255,-0.0409267555226707,0.1424959609773475,-9.797401694661378,-0.0212071142775782,-0.0267002116888761,0.0037261359393596,0.4012424208268523,0.0013384148478507
2025-04-30 00:23:34.577905200,7.7429052734375,0.0133940351284053,-0.0275821574032306,0.0040425878076712,-0.0272856652736663,0.1237086911566634,0.9920737004861572,0.248394742741676,right,-0.0042585134506225,-0.0420021785731543,0.1312306258610449,-9.797122293198107,-0.0216667553090875,-0.0246450826525688,0.0031764488667249,0.4117796334648504,-0.0006771869957447
2025-04-30 00:23:34.617905200,7.7829052734375,0.0122435158670944,-0.015360570512712,0.0034181533126447,-0.0517096817493438,0.1231403833583896,0.9921367385100912,0.2472334515134412,right,-0.002429187297821,-0.0430762833555891,0.1199532806465402,-9.796818341815472,-0.02212637960581,-0.0225899517536163,0.0026279846206307,0.422303475164622,-0.0026914291083812
2025-04-30 00:23:34.657905200,7.8229052734375,0.0105724549966023,0.0042605744674801,0.0025394866209055,-0.0365006700158119,0.123106085464719,0.99213672162316,0.2471337003357678,right,-8.34465026855e-05,-0.0439001080660817,0.1035783291652333,-9.79665409116447,-0.0224320197566368,-0.0205921214073896,0.0005108276382088,0.4303748091457411,-0.0013566240668296
2025-04-30 00:23:34.697905200,7.8629052734375,0.0093002550337325,0.0249680690467357,0.0018848685078833,-0.0263293180614709,0.1234460881110768,0.9920947323128282,0.2477923193981643,right,0.0026353001594543,-0.0441614596334633,0.0911138930580113,-9.796665197080372,-0.022483974900471,-0.0041741710156202,0.0012682601809501,0.4329353072835132,-0.0024488978087902
2025-04-30 00:23:34.737905200,7.9029052734375,0.0087567990555412,0.0299219023436307,0.00158577678984,-0.0047782603651285,0.123998354745043,0.992024014758486,0.2488953561870401,right,0.001551330089569,-0.0444373190564903,0.0857887707788031,-9.796593300887942,-0.0225881442283402,-0.012039047665894,-0.0006479611620306,0.4356379173057154,-0.000301357358694
2025-04-30 00:23:34.777905000,7.94290478515625,0.0087583242107143,0.0191724374890327,0.001529383372612,0.0008796448819339,0.1243935683844523,0.9919658531393094,0.2496977543701871,right,0.0012291073799133,-0.0452092538663797,0.0858007443443872,-9.796254278191924,-0.0229717312596545,-0.0198998525738716,0.0009148176759481,0.4432003884492442,0.0009803473949432
2025-04-30 00:23:34.817905200,7.9829052734375,0.0087604669896406,0.0084229707717895,0.0014729887916246,0.0065375510603189,0.1247887428728137,0.9919072634917512,0.2505001515172029,right,0.0009063482284545,-0.0459811761506516,0.0858187092593405,-9.795908825755118,-0.0233553083280564,-0.0277606602758169,0.002476985566318,0.4507624942665919,0.0022620894014835
2025-04-30 00:23:34.857905200,8.0229052734375,0.0090502391350002,0.0056053735315799,0.0015547549749105,0.0051527302712202,0.1249422670608191,0.9918764545201562,0.2508234730355568,right,-0.001767098903656,-0.0469107456415501,0.0886534577612299,-9.79546049746573,-0.0238346475020664,-0.0197176411747932,0.0016778511926531,0.4598686511881649,0.0034416988492012
2025-04-30 00:23:34.897905200,8.0629052734375,0.0090502391350002,0.0114112701267004,0.0015547549749105,-0.0031333267688751,0.1249422670608191,0.9918764545201562,0.2508234730355568,right,-0.0047405362129211,-0.0469107456415501,0.0886534577612299,-9.79546049746573,-0.0238346475020664,-0.0014705434441566,-0.0023789969272911,0.4598686511881649,-0.0057850629091262
2025-04-30 00:23:34.937905200,8.1029052734375,0.0084806354069325,0.059104636311531,0.0012445828910786,-0.0408990383148193,0.1257820498688085,0.9917701421334562,0.2525040912460742,right,-0.0044159293174743,-0.0470327465766094,0.0830734382723458,-9.795453483203053,-0.0238606199315413,0.023635996505618,0.0032880641520023,0.4610637427242472,-0.0061377510428428
2025-04-30 00:23:34.977905200,8.1429052734375,0.0069195429529045,0.0848059728741645,0.0004717940686706,-0.0341790318489074,0.1273426320831799,0.991581016852954,0.2556100929284975,right,0.0023751854896545,-0.0464329475246011,0.0677836334129329,-9.795845697391032,-0.0234657695535584,0.0032326504588127,0.0057551893405616,0.4551881286891177,0.0025285147130489
2025-04-30 00:23:35.017905000,8.18290478515625,0.0063330800764545,0.0609727352857589,0.000134112853167,-0.0094054266810417,0.1288978775348254,0.991379099421322,0.2587344174650868,right,0.0019591450691223,-0.0465928763341224,0.0620382627279264,-9.795810626077651,-0.0235079566768253,-0.0094225471839308,0.0037051187828183,0.4567547934839501,0.0055554546415805
2025-04-30 00:23:35.057905200,8.2229052734375,0.0061202678867258,0.021763376891613,3.2203277907e-06,-0.0047874646261334,0.1297990431365053,0.9912611133170902,0.2605478711831828,right,0.0007632970809936,-0.0466559959011615,0.0599534147113095,-9.79579484398663,-0.0235255405728684,-0.0011168746277689,0.0012688762508332,0.4573731445780024,0.0091147981584072
2025-04-30 00:23:35.097905200,8.2629052734375,0.0059694921363814,-0.0317915305495262,-6.40984403886e-05,-0.0024788407608866,0.1296600931492967,0.9912802969851738,0.2602635762257643,right,0.0054357647895812,-0.046593323004596,0.0584766201570164,-9.79583283790946,-0.0234847017652762,0.0098653258755803,-0.0030644065700471,0.4567591773981228,0.0120414607226848
2025-04-30 00:23:35.137905200,8.3029052734375,0.0064627225864544,-0.0574777126312255,0.0002318428663966,0.0153726236894726,0.1286944020977217,0.9914106260646482,0.25832425776032,right,0.0015429258346557,-0.0461482358631128,0.0633095202061813,-9.796004687345029,-0.0232958625542286,0.0328992791473865,-0.0020211981609463,0.4523990459598601,0.0037325620651245
2025-04-30 00:23:35.177905200,8.3429052734375,0.0076838947393051,-0.0454319305717945,0.0009164140443527,0.0449350140988826,0.1276063973487292,0.9915587167150064,0.256152551469998,right,-0.0006722211837768,-0.0453053849702573,0.075274984682165,-9.79629811733365,-0.0229556593963511,0.0169151164591312,-0.0011991038918495,0.4441421628113836,0.0032423585653305
2025-04-30 00:23:35.217899500,8.3828994140625,0.0093131093035606,-0.0178323816508054,0.0017724007266651,0.0405101478099823,0.1269011644115693,0.9916514604134749,0.2547641066551787,right,-0.0027286182157695,-0.0447979737734024,0.0912372363098897,-9.796386380138992,-0.022806819053456,0.0209851916879415,1.83474330697e-05,0.4391712059983983,-0.0014460458187386
2025-04-30 00:23:35.257899800,8.422899658203125,0.0100765434761878,-0.0032018981873989,0.002208935082379,0.0281502902507781,0.1269123753963725,0.9916584197328244,0.2547970574250818,right,-0.0011483430862426,-0.0438795487462544,0.0987201302780304,-9.796713127875329,-0.0223999265065192,0.025512458756566,0.0032988497987389,0.4301733682895079,-0.0010828413069248
2025-04-30 00:23:35.297899800,8.462899658203124,0.0107620482578285,0.0013727284967899,0.0026220428318849,0.017894621938467,0.1270266105179264,0.9916550591854002,0.2550332407425744,right,-0.001988410949707,-0.0426872243998495,0.105441246093437,-9.797149181205034,-0.0218525582574321,0.0286704320460557,0.0041083488613367,0.4184916252588853,-0.0008112005889415
2025-04-30 00:23:35.337899800,8.502899658203125,0.0110612772094896,0.0024179588072001,0.0028320051548152,0.0050254240632057,0.1271501296522055,0.9916492060111228,0.2552806561890868,right,-0.001988410949707,-0.0416776123372713,0.1083774456758052,-9.797534381130337,-0.0213713311836192,0.0179669894278049,0.0042157685384154,0.4085995055913925,-0.0011404640972614
2025-04-30 00:23:35.377899500,8.5428994140625,0.0109697867501411,0.005521597340703,0.0028369093591846,-0.0022656149230897,0.1272747586036456,0.991642056099981,0.2555232882224866,right,0.0005645155906677,-0.0408484273965611,0.1074847437529359,-9.797879833567142,-0.0209547397114812,0.014408390969038,0.0040478995069861,0.4004749070530757,-0.0024793855845928
2025-04-30 00:23:35.417899500,8.5828994140625,0.0108206519519147,0.0065800766460597,0.0027874998878128,-0.0057758325710892,0.1274433935454305,0.9916252701115036,0.2558567224435422,right,-0.0011715292930603,-0.0404093447989747,0.1060254300564061,-9.79807097222507,-0.0207280140599063,0.0020183688029646,0.0027003986760973,0.3961725336840376,-0.0024650134146213
2025-04-30 00:23:35.457899500,8.6228994140625,0.010673650906576,0.0093677146360278,0.0026992718353316,-0.0059436960145831,0.127624076894718,0.9916006423280644,0.2562195284979611,right,-0.0016156435012817,-0.0405905847915456,0.1045843370031565,-9.798014273601767,-0.0208089940425723,-0.0147940730676054,0.0021726237609982,0.3979484207827597,-0.0042444095015525
2025-04-30 00:23:35.497899800,8.662899658203125,0.0104485872940688,0.008944097906351,0.0025286421848408,-0.0080118430778384,0.1278328186541253,0.9915655297159104,0.2566425503815691,right,-0.0002714991569519,-0.0414440945662232,0.1023755749125033,-9.797694540128113,-0.0212183245016731,-0.0291045624762773,0.0025458931922912,0.4063114677194506,-0.0030829645693302
2025-04-30 00:23:35.537899800,8.702899658203124,0.0102573456089897,0.0078514702618122,0.0023645161575691,-0.0052591464482247,0.1280054185132097,0.9915329261260856,0.2569946134629782,right,-0.0002910494804382,-0.0424669965696167,0.1004975243472494,-9.797292973589895,-0.0217136384778039,-0.0270852576941251,0.0021840259432792,0.4163338992357254,-0.0012178160250186
2025-04-30 00:23:35.577899800,8.742899658203125,0.0102184243926773,0.0031344080343842,0.0022956085821548,-0.0025788673665374,0.1280897354368218,0.9915140915538728,0.2571696915803705,right,-0.0025245547294616,-0.0432106917161264,0.1001130094085354,-9.796984346032142,-0.0220800360928891,-0.0177434794604778,0.0021698148921132,0.4236203664494678,0.0012369304895401
2025-04-30 00:23:35.617899800,8.782899658203124,0.0102184243926773,-0.0017501669935882,0.0022956085821548,-0.0050704833120107,0.1280897354368218,0.9915140915538728,0.2571696915803705,right,-0.0013886094093322,-0.0432106917161264,0.1001130094085354,-9.796984346032142,-0.0220800360928891,-0.0091109545901417,0.0018469812348484,0.4236203664494678,0.0013114586472511
2025-04-30 00:23:35.657899500,8.8228994140625,0.0099804950451481,0.0001998111838474,0.0021549093986204,-0.0044687916524708,0.1280453587044869,0.9915164075837204,0.2570777776929659,right,-0.0013757348060607,-0.043581157882344,0.0977804474082775,-9.796850490519404,-0.0222483538383498,-0.00154096679762,0.0008047372102737,0.4272499551234766,0.0006122924387454
2025-04-30 00:23:35.697899500,8.8628994140625,0.0099804950451481,0.0070080929435789,0.0021549093986204,-0.008504282683134,0.1280453587044869,0.9915164075837204,0.2570777776929659,right,-0.0020299553871154,-0.043581157882344,0.0977804474082775,-9.796850490519404,-0.0222483538383498,0.0025210888125002,0.0015154387801885,0.4272499551234766,0.0019210167229175
2025-04-30 00:23:35.737899800,8.902899658203125,0.0094754191672756,0.0087053487077355,0.0018921865147247,-0.0101414341479539,0.1282294069593931,0.9914924514414354,0.2574386864769967,right,-0.0030433535575866,-0.043710692504493,0.0928317572260275,-9.796843476256727,-0.0222805743796509,-0.0032941340468823,0.0015609227120876,0.4285190617438405,0.003808856010437
2025-04-30 00:23:35.777899800,8.942899658203125,0.0085282944770337,-0.0092171756550669,0.0014157610413288,-0.035207349807024,0.1283015019281486,0.9914842800050117,0.2575634560034541,right,-0.0027694106101989,-0.0437963891445914,0.0835525726919528,-9.796890238007904,-0.0222624194678964,-0.0012523434124886,0.0012246025726199,0.4293586543731391,0.0046179220080375
2025-04-30 00:23:35.817899800,8.982899658203126,0.0069530127975115,-0.016233766451478,0.0006471420420251,-0.0346576124429702,0.1280856553251737,0.991516490018886,0.2570920777557396,right,0.0025350451469421,-0.0436857861193293,0.0681199389954796,-9.797056826746465,-0.0221063753202172,0.0116938296705484,0.0021684295497834,0.4282750238548964,-0.00203687697649
2025-04-30 00:23:35.857899800,9.022899658203125,0.0053179380561181,-0.0146989822387695,-0.0001227494556087,-0.0237104855477809,0.1277312596702114,0.9915702706801934,0.2563381003686131,right,0.0051448941230773,-0.043178670696211,0.0521020801564212,-9.797371299523114,-0.0217502976350322,0.0100192567333579,0.0017407643608748,0.4233066243251785,-0.002634011209011
2025-04-30 00:23:35.897899500,9.0628994140625,0.0040217342924392,-0.0163187626749277,-0.0007373803141409,-0.0240397397428751,0.1273676013632728,0.9916218773129608,0.2555747482524447,right,0.0039887428283691,-0.0428689416040136,0.0394031777061987,-9.797561269137264,-0.0215142367724834,0.0032420414499938,0.001045195851475,0.4202720424022525,-0.0027138777077198
2025-04-30 00:23:35.937899500,9.1028994140625,0.0029318132726414,-0.0151760149747133,-0.0012683655820779,-0.0204359591007232,0.1270593965972762,0.9916628671796736,0.2549293883399009,right,0.0040394067764282,-0.0428297812939624,0.0287246340684825,-9.797614460629225,-0.0214258161461322,6.00479543209e-05,0.0012787831947207,0.4198883403142914,-0.0025620721280574
2025-04-30 00:23:35.977899500,9.1428994140625,0.0022116476029063,-0.0151852434501051,-0.0016110804281021,-0.0101022301241755,0.1267581779081374,0.9917031018367062,0.2543058667471319,right,0.0021612048149108,-0.042708320604471,0.0216688338054576,-9.797683434212209,-0.0213203443334199,0.0040859659202396,0.0017258489970117,0.4186983268121257,-0.0012562535703182
2025-04-30 00:23:36.017899800,9.182899658203125,0.0020014196382242,-0.0146441245451569,-0.0016936946368778,-3.9925798773e-06,0.126453204840812,0.9917447589210552,0.2536854446962071,right,0.000465452671051,-0.0424708815058046,0.0196092846268787,-9.797787479108573,-0.0211898112182078,0.0055304057896137,0.0020817830227315,0.4163719662237912,0.0001751407980918
2025-04-30 00:23:36.057899800,9.222899658203126,0.0022291469528749,-0.0124924601987004,-0.0015654958135381,0.0107774715870618,0.1261485467657202,0.991784959559848,0.2530754117537315,right,-0.0022197365760803,-0.0423313011161991,0.0218406375752529,-9.797840670600532,-0.0211354736137469,0.0013922872021794,7.69952312111e-05,0.4150043676650151,0.0016438700258731
2025-04-30 00:23:36.097899800,9.262899658203125,0.0026978888971183,-0.0092139150947332,-0.0013378411260818,0.0049108508974313,0.1259208421227491,0.9918120290609324,0.2526268553719508,right,-0.0061341524124145,-0.0424827266561437,0.0264331255978206,-9.797766436320543,-0.0212404284960596,-0.0115347886458039,-0.0017966286977753,0.416487993818894,0.0069263726472854
2025-04-30 00:23:36.137899500,9.3028994140625,0.0031189283472241,-0.0095299966633319,-0.0011621906718107,0.0125627238303422,0.1257076335037922,0.9918322447142784,0.2522084807940888,right,-0.0005242824554443,-0.043080524523825,0.030557587399974,-9.797503401470184,-0.0215636302203119,-0.0087864277884364,-0.0003832534421235,0.422345049284026,0.0031489320099353
2025-04-30 00:23:36.177899500,9.3428994140625,0.0040905264538304,-0.0096875140443444,-0.0006833202593942,0.0321467667818069,0.1255222562816423,0.9918536497539544,0.2518563409101981,right,0.0032543540000915,-0.0431882906673484,0.0400766199883539,-9.797423906493188,-0.0216782597532891,0.0108852451667189,0.0010284045711159,0.4234008784798905,-0.0003217384219169
2025-04-30 00:23:36.217899500,9.3828994140625,0.0057580448878495,-0.0170480497181415,0.000185874253093,0.0479590818285942,0.1252624010566088,0.9918907483631554,0.2513656047380785,right,0.0041483044624328,-0.0425999773229209,0.0564153676451183,-9.797590495231749,-0.0214911067057606,0.0235472954809665,0.0025700633414089,0.4176367985278367,-0.0002185590565204
2025-04-30 00:23:36.257899800,9.422899658203123,0.0078386947606057,-0.0297695808112621,0.0012871864416343,0.0544946305453777,0.1247516823027679,0.9919616164786016,0.2503749086476374,right,0.0014958381652832,-0.0416599178258917,0.0768036281547043,-9.797840086078644,-0.0211545613523164,0.0285083204507827,0.0022466583177447,0.4084261583184823,-0.0001453012228012
2025-04-30 00:23:36.297899800,9.462899658203124,0.009805182560051,-0.0395288839936256,0.0023469274314039,0.0467050373554229,0.1240023827366896,0.9920626073685002,0.2488980122028199,right,0.0009151101112365,-0.0405537983520715,0.0960751778603531,-9.798115980410577,-0.0207268837069089,0.0296427085995674,0.0024244980886578,0.3975879899725317,-0.000751543790102
2025-04-30 00:23:36.337899800,9.502899658203123,0.0116022956183509,-0.0451111681759357,0.003323917210699,0.0466088540852069,0.1231139771739844,0.9921794429230948,0.2471357072560926,right,0.0007941126823425,-0.0394640502348626,0.1136882928344886,-9.798355049863456,-0.0202948413358753,0.0298986285924911,0.0017901957035064,0.3869097614286467,-0.0020387358963489
2025-04-30 00:23:36.377899500,9.5428994140625,0.0132199846000748,-0.0419036224484443,0.0042071875620199,0.0401650108397007,0.1221960249991262,0.9922977526315996,0.2453094388506544,right,0.0003838539123535,-0.0384492367802677,0.1295439514157362,-9.798545603999496,-0.0198871593919164,0.0266836136579513,0.0010905694216489,0.3769654001172631,-0.0016601830720901
2025-04-30 00:23:36.417899500,9.5828994140625,0.0148351076383789,-0.0366093628108501,0.0050686573814531,0.0428217388689518,0.1213988606086268,0.9923968633030312,0.2437281470678174,right,-0.0011948943138122,-0.0377205965343456,0.1453736718381289,-9.798595872882007,-0.0196203313356292,0.0130323925986886,0.0019192257896065,0.3698250633759424,0.0008000470697879
2025-04-30 00:23:36.457899500,9.6228994140625,0.0164350135317343,-0.0310094859451055,0.0059003233113159,0.0404709577560424,0.1207008180808507,0.992479470499147,0.2423489225152136,right,-0.0007350444793701,-0.0373206039182544,0.1610527317434549,-9.79849767320454,-0.0195149067800008,0.0114266229793429,0.0018726233392953,0.365905223051086,0.0007027275860309
2025-04-30 00:23:36.497899800,9.662899658203123,0.0182273953083664,-0.0215263497084379,0.006836807571929,0.0465980917215347,0.120145801957238,0.9925446294097432,0.2412590003826151,right,-0.0016910433769226,-0.0367172994415129,0.17861909409957,-9.798412333008647,-0.0193199762436171,0.0256397854536771,0.0011155754327774,0.3599928937347605,-0.0026134364306926
2025-04-30 00:23:36.537899800,9.702899658203124,0.0202716297279778,-0.0136346826329827,0.007921616997308,0.0541859716176986,0.1197843631526084,0.9925880150322428,0.2405575881589199,right,-0.0019541382789611,-0.0356602827645022,0.1986565775432623,-9.798401811614632,-0.0189154495302402,0.0282392110675573,0.0009616184979677,0.3496338872078806,-0.0014882907271385
2025-04-30 00:23:36.577899800,9.742899658203124,0.022322828355781,-0.0140120815485715,0.0090111085792222,0.0498524270951747,0.1194889662817254,0.9926223884431372,0.239986972035781,right,-0.0003057122230529,-0.034558015095637,0.2187630711025558,-9.798352711775898,-0.018488698980723,0.0260104965418577,0.0012739822268486,0.3388309728384018,-0.0012005716562271
2025-04-30 00:23:36.617899800,9.782899658203124,0.024251478867635,-0.0159967709332704,0.0100309162875468,0.0504460968077182,0.1191482488918236,0.9926601934321316,0.2393231460863535,right,0.0017424821853637,-0.0336140662420044,0.237667915520817,-9.798228208613397,-0.0181321206084629,0.0215668175369501,0.0030516814440488,0.3295793795641512,-0.0020395405590534
2025-04-30 00:23:36.657899500,9.8228994140625,0.0262680134854834,-0.0190822668373584,0.0110830730912262,0.0513080656528472,0.1187404692645615,0.9927023894544736,0.2385273380366115,right,-0.0002039074897766,-0.0328750748923561,0.2574322080463171,-9.797969849938154,-0.0178810751608509,0.0188816767185926,0.0037154760211706,0.3223363496333361,-0.0017399303615093
2025-04-30 00:23:36.697899500,9.8628994140625,0.0280968909481327,-0.0201426520943641,0.0120377742124773,0.0419176667928695,0.1182817037716436,0.9927499628863952,0.2376256497419482,right,-0.0025619268417358,-0.0322209919721891,0.2753569188534282,-9.797691032996774,-0.0176595896222277,0.0133079998195171,0.0040426850318908,0.3159253866124898,-0.0023524612188339
2025-04-30 00:23:36.737899800,9.902899658203124,0.029501542623474,-0.0182522051036357,0.0127670750112658,0.0300989523530006,0.117879239765758,0.9927911082891916,0.2368328637921506,right,-0.0024576187133789,-0.0317978594181634,0.2891229025458917,-9.797427413624524,-0.0175275781085499,0.0069502382539212,0.0037491470575332,0.3117779846094548,-0.0039400942623615
2025-04-30 00:23:36.777899800,9.942899658203125,0.0303898016721583,-0.0126407537609338,0.0132260257048898,0.01896508410573,0.1175787910600754,0.9928217936998236,0.2362396144052571,right,-0.0014983415603637,-0.0315808401724335,0.29782749292925,-9.797234521400927,-0.0174682865332873,-0.0010989098809659,0.0043884143233299,0.3096508363876492,-0.0032948460429906
2025-04-30 00:23:36.817899800,9.982899658203126,0.0311126153744766,-0.0069362577050924,0.0135837648474609,0.0176055040210485,0.1173977508090747,0.9928370749197588,0.2358888785223222,right,-0.0012352466583251,-0.0316511303043791,0.304908299769368,-9.796994867426156,-0.0175432876541118,-0.0068308874033391,0.0035638604313135,0.3103398050324991,-0.0029819477349519
2025-04-30 00:23:36.857899800,10.022899658203125,0.0317027487792426,-0.0083626266568899,0.0138661431936454,0.0109178572893142,0.1172531895323909,0.992847724640842,0.2356120257089334,right,-0.0011082887649536,-0.0318720547341855,0.3106875955568626,-9.79674410753548,-0.0176856717710488,-0.0093428315594792,0.0027122646570205,0.3125052394380793,-0.0014566741883754
2025-04-30 00:23:36.897899500,10.0628994140625,0.0320963528065855,-0.0090386690571904,0.0140444930189114,0.0091174682602286,0.1170943107919152,0.992860646779022,0.2353050362638183,right,0.0006614923477172,-0.0322081245111871,0.314540215864405,-9.796515559476614,-0.0178734129449365,-0.0109964227303862,0.0034085288643836,0.3157992760147899,-0.0015153978019952
2025-04-30 00:23:36.937899500,10.1028994140625,0.0325249409388977,-0.0074729695916175,0.0142454808944186,0.0089554199948906,0.1169250608978345,0.9928750653611688,0.2349763786010991,right,-0.0004578828811645,-0.0324587372554597,0.3187362793147564,-9.796300455421209,-0.0180205680736595,-0.0051012211479246,0.0045416094362735,0.3182556561909616,-0.001656187698245
2025-04-30 00:23:36.977899500,10.1428994140625,0.0325249409388977,-0.0042507760226726,0.0142454808944186,0.0048885946162045,0.1169250608978345,0.9928750653611688,0.2349763786010991,right,-0.0023295879364013,-0.0324587372554597,0.3187362793147564,-9.796300455421209,-0.0180205680736595,-0.002752412110567,0.0047453716397285,0.3182556561909616,-0.0018799547106027
2025-04-30 00:23:37.017899800,10.182899658203125,0.0325249409388977,-0.0010284390300512,0.0142454808944186,-0.005158728454262,0.1169250608978345,0.9928750653611688,0.2349763786010991,right,-0.0017801523208618,-0.0324587372554597,0.3187362793147564,-9.796300455421209,-0.0180205680736595,-0.0052467444911599,0.0046370923519134,0.3182556561909616,-0.0011816695332527
2025-04-30 00:23:37.057899800,10.222899658203126,0.0325249409388977,0.0041979784145951,0.0142454808944186,-0.0127626676112413,0.1169250608978345,0.9928750653611688,0.2349763786010991,right,-0.0023547410964965,-0.0324587372554597,0.3187362793147564,-9.796300455421209,-0.0180205680736595,-0.0103546828031539,0.0028462000191211,0.3182556561909616,-0.0014868136495351
2025-04-30 00:23:37.097899800,10.262899658203125,0.0321408844105383,0.0085405465215444,0.0140070655006626,-0.0178844034671783,0.1170042416088466,0.99286232811522,0.2351430812864499,right,-0.0011906027793884,-0.0332458438788819,0.3149657843327149,-9.796168937996027,-0.0183900078458406,-0.0196615681052207,0.0018239617347717,0.3259703587541356,-0.0005384013056755
2025-04-30 00:23:37.137899500,10.3028994140625,0.0316803337262373,0.0080969994887709,0.0137220581487063,-0.0149004617705941,0.117157421930665,0.9928402823922484,0.2354593327907618,right,-0.001643419265747,-0.0341545106114506,0.3104446171138435,-9.796012870651484,-0.0188162956286529,-0.0240641552954912,0.0008070170879364,0.3348762803958728,-0.0006541907787322
2025-04-30 00:23:37.177899500,10.3428994140625,0.0311621388594346,0.0053871595300734,0.01340811935209,-0.0136513467878103,0.1172875190386344,0.9928210452682764,0.2357278123379169,right,0.000230848789215,-0.0350740567903385,0.3053586008201353,-9.795860310438275,-0.0192441912030235,-0.0242972318083047,0.001146625727415,0.3438885484889149,-0.0004385635256767
2025-04-30 00:23:37.217899500,10.3828994140625,0.0307906242046711,-0.0003914218395948,0.0131804199648483,-0.0103505514562129,0.1172873478735224,0.9928173590462704,0.2357330922733635,right,-0.0006659030914306,-0.0358077291116285,0.3017114216905087,-9.79571827161908,-0.0195866189174579,-0.024736076593399,0.0010468959808349,0.351078898384422,0.0005725175142288
2025-04-30 00:23:37.257899800,10.422899658203123,0.0304191083986665,-0.006170003209263,0.0129527194851754,-0.0070497570559382,0.1172871527167327,0.9928135920169237,0.2357381111115151,right,-0.0015631914138793,-0.0365414101299104,0.2980642242945731,-9.7955698030591,-0.019929045105376,-0.0251749213784933,0.0009471662342548,0.3582691386820748,0.0015836134552955
2025-04-30 00:23:37.297899800,10.462899658203124,0.0301713677461303,-0.0078843338415026,0.0127703619060793,-0.007453094702214,0.1171848929626117,0.9928177496360304,0.2355451115767354,right,-0.0012585520744323,-0.0375826438494386,0.2956260373622179,-9.795265267154576,-0.0204301263628759,-0.0312239602208137,0.0012445151805877,0.3684731373103335,0.0013961419463157
2025-04-30 00:23:37.337899800,10.502899658203123,0.0299335064600347,-0.0078948941081762,0.0125785733543899,-0.0048704156652092,0.1170499792727787,0.9928229850149514,0.2352907944483743,right,0.0003361701965332,-0.0388801362147281,0.2932815565953031,-9.794849087569116,-0.0210586305230507,-0.0303978808224201,0.0020728670060634,0.3811879131831228,-1.61081552505e-05
2025-04-30 00:23:37.377899500,10.5428994140625,0.0298645535612032,-0.0063800797797739,0.0124749021992493,-0.0015513449907302,0.116897962112004,0.9928292536073444,0.2350044187921194,right,-0.0003731250762939,-0.0401135468053048,0.2925919120970182,-9.794391991451382,-0.0216650401071202,-0.026004547253251,0.0020032543689012,0.3932741088287904,-4.94495034217e-05
2025-04-30 00:23:37.532608000,10.69760791015625,0.0295159285608493,0.0120215062052011,0.0121092725225453,-0.0135791692882776,0.1167584703118489,0.9928132940674036,0.2347730484591454,right,-0.0025146966800093,-0.0434371616896906,0.2891371685332618,-9.793132346779108,-0.0232930119297505,-0.0101069416850805,0.0030849575996398,0.4258391750101,-0.0011512909550219
2025-04-30 00:23:37.572608300,10.737608154296876,0.0291812217843682,0.0151231782510876,0.0119198594466128,-0.0147665366530418,0.117174799633599,0.9927642070743732,0.2356078550023852,right,-0.0015663504600524,-0.0436671432122239,0.2858564480958506,-9.79313059321344,-0.0233926046737213,-0.0070922095328569,0.0033721812069416,0.4280923972969874,3.77520918846e-05
2025-04-30 00:23:37.732150500,10.897150634765625,0.0284101194646627,-0.0009409320773556,0.0115667201198864,-0.00340874819085,0.1179384002228845,0.992687987256296,0.2371147147944163,right,-0.0001556311617605,-0.0428705446011226,0.2783144534847699,-9.79368588900864,-0.0229607567944055,0.007234978955239,0.0009144739015027,0.4202877148954198,0.0003052713291253
2025-04-30 00:23:37.772058600,10.93705859375,0.0283668337437102,0.0076289274729788,0.0115392079356431,-0.0066220834851264,0.1180300430528376,0.9926766499738716,0.2372994432460358,right,-0.0040920339524745,-0.0429364152828271,0.2778897435329854,-9.793670106917618,-0.0229919634200201,-0.0110911941155791,-0.0001909958082251,0.4209331001268699,-0.0015140215400606
2025-04-30 00:23:37.812058600,10.97705859375,0.02794663648626,0.0100891571491956,0.0112773134167395,-0.0073826466687023,0.1184139159785972,0.9926259002131776,0.2380755346644197,right,-0.0038736462593078,-0.0436828633735168,0.2737655945413745,-9.793469615909457,-0.0233420031773043,-0.0177353508770465,0.0020068362355232,0.4282464188149198,0.0014077238738536
2025-04-30 00:23:37.971601000,11.136600830078123,0.0262264778930118,-0.0172670185565948,0.0103136020274537,-0.0026339460164308,0.1184643113612424,0.9926109818169632,0.2381655701341754,right,0.0021962893661111,-0.0455127273702995,0.2568979002402164,-9.79312591703832,-0.0241487374336503,0.0313123799860477,0.000492125749588,0.4461733763780444,-0.0034785424359142
2025-04-30 00:23:38.011510300,11.17651025390625,0.0262825976425542,-0.0046689347364008,0.0104321454223739,0.0091581400483846,0.1183026641856166,0.9926462688641208,0.2378182153946154,right,-0.0018303093966096,-0.0440575574561834,0.2574642654187046,-9.793750186416506,-0.0234280873105322,0.027434216812253,0.0025340784341096,0.431917362412624,0.000847838120535
2025-04-30 00:23:38.051510300,11.21651025390625,0.0260424403190096,-0.0029046419076621,0.0103277086909136,0.0030642366036772,0.1182369531231621,0.9926581724766008,0.2376767153387805,right,-0.0008689761161804,-0.0438369803660523,0.2551147066178731,-9.793906838282942,-0.0233036792020981,0.0179224349558353,0.0028064977377653,0.4297563119212165,-0.0005218721926212
2025-04-30 00:23:38.091510300,11.25651025390625,0.0258023176623189,-0.0011403488460928,0.0102232730518832,-0.0030296668410301,0.1181711896611984,0.9926700476812492,0.2375351707390224,right,9.22679901123e-05,-0.0436163745334517,0.2527653852790594,-9.7940623211056,-0.0231792726201813,0.0084106549620628,0.0030788946896791,0.4275950057014823,-0.0018915571272373
2025-04-30 00:23:38.250967000,11.415967041015625,0.0236662505007182,0.0109568480402231,0.0090739028443488,-0.0234283450990915,0.1185284011776413,0.9926254550877464,0.2382248741203596,right,0.0010467948159202,-0.044980625080765,0.2318300396801903,-9.793987502303718,-0.0237332665989194,-0.0090859960764646,0.0033493926748633,0.4409605736332014,-0.0032517635263502
2025-04-30 00:23:38.290875400,11.45587548828125,0.0232289792736634,0.0079437624663114,0.0088217009530073,-0.0046124379150569,0.1187330566233417,0.9925977547990912,0.2386340605526972,right,-0.001520833466202,-0.0454892418318848,0.227542151494231,-9.793862414619326,-0.0239615745653758,-0.0137942098081111,0.0011421645758673,0.4459433304818347,-0.0010727985063567
2025-04-30 00:23:38.490417700,11.655417724609377,0.0221732397156198,0.0021824087016284,0.008170219401749,-0.0016536104958504,0.1192924075599298,0.9925144701987786,0.2397621158857149,right,-0.0001574174384586,-0.0473928692722407,0.2171830353694968,-9.793231130978464,-0.024848212109923,-0.0136767020449042,0.001351507846266,0.464591405393742,-0.0010048226686194
2025-04-30 00:23:38.530417700,11.695417724609374,0.0220673744663101,0.0050101736560463,0.0080695941528892,-0.0037370130885392,0.1194300253546003,0.9924896148593616,0.2400471227272931,right,0.0004496574401855,-0.0481356199762373,0.2161386043504811,-9.7929061368078,-0.0252116175186629,-0.0177242383360862,0.0014767199754714,0.471866985887289,0.0004947483539581
2025-04-30 00:23:38.570417700,11.735417724609375,0.0220085585569421,0.0025931261479854,0.0079942702138577,-0.0033426131121814,0.1194982495575676,0.992472700471574,0.2401933882426426,right,0.0006527304649353,-0.0488736533158026,0.2155549044447019,-9.79256769863367,-0.0255749106908273,-0.0158238131552934,0.0013723652809858,0.4790960968906059,0.0014319829642772
2025-04-30 00:23:38.610417700,11.775417724609374,0.0219498537517793,0.0001760784070938,0.0079189466841958,-0.0029482129029929,0.1195664781766889,0.9924556528769362,0.2403396616223524,right,0.0008553862571716,-0.0496117017419631,0.2149722091859206,-9.792224584284424,-0.0259382036410553,-0.013923387043178,0.0012679081410169,0.4863250982960685,0.002369225025177
2025-04-30 00:23:38.650418000,11.81541796875,0.0219178349753117,-0.0062359683215618,0.0078697068215072,-0.0008083670400083,0.1195053943681306,0.9924558947954236,0.240223841618398,right,-0.0006037354469299,-0.0501923451703653,0.2146524391796439,-9.791947520908712,-0.0262239451856003,-0.0071720904670655,0.0008022226393222,0.4920122040217742,0.0001392625272274
2025-04-30 00:23:38.690417700,11.855417724609374,0.0220732005835625,-0.0046786880120635,0.0079293487837298,0.0008301334455609,0.1193830880625443,0.9924653887130904,0.239986300785513,right,-0.0007336735725402,-0.0505353693066749,0.2161700406683608,-9.791744691812992,-0.0264024938306772,-0.0109064755961298,0.0010378342121839,0.4953718531806022,0.0005052536725997
2025-04-30 00:23:38.730417700,11.895417724609375,0.0222284902664388,-0.0031214074697345,0.0079889912243266,0.0024686339311301,0.1192607533491265,0.9924749350302666,0.23974878739974,right,-0.0008637309074401,-0.0508784422250306,0.2176868019068613,-9.7915401091516,-0.0265810443351753,-0.014640862122178,0.0012735296040773,0.4987319041982292,0.0008711963891983
2025-04-30 00:23:38.770417700,11.935417724609374,0.0223437400335224,0.0009290354792028,0.0080156654422645,0.0004580554086714,0.1192419029052483,0.9924699361016552,0.2397212392562497,right,0.0002891421318054,-0.0513939751084599,0.2188095040601678,-9.791256616035104,-0.0268436139604865,-0.0139433918520808,0.0027447193861007,0.5037809677487239,0.0007686950266361
2025-04-30 00:23:38.810417700,11.975417724609375,0.0224996242437009,0.0030619855970144,0.0080650475653681,0.0046415412798523,0.1192812996501464,0.9924585469754966,0.2398112670973601,right,0.000251293182373,-0.0518405692851053,0.2203307222780771,-9.790996503794192,-0.0270748695262451,-0.0068804016336798,0.0029072724282741,0.5081547258535399,0.0005293600261211
2025-04-30 00:23:38.969361700,12.134361572265624,0.022995234591181,0.0094219725579023,0.0082746047813323,-0.0046545034274458,0.1196800568789018,0.9924021030715718,0.240634508932916,right,0.003094598185271,-0.0522599661758248,0.2251782901734113,-9.790672678667306,-0.0273159396261469,-0.0051856637001037,0.0030078566633164,0.5122620150418952,-0.0011846588458865
2025-04-30 00:23:39.009361700,12.174361572265624,0.0232739337894945,0.0054820557124912,0.0083844587594112,-0.0025387497153133,0.1198618859695623,0.9923734860016518,0.2410143567547204,right,0.000705599784851,-0.0526458812494862,0.2279023083098232,-9.790410812860726,-0.0275256849765743,-0.0076076900586485,0.0020932219922542,0.5160413509175181,0.000337366014719
2025-04-30 00:23:39.049361700,12.214361572265624,0.0232739337894945,0.003361735260114,0.0083844587594112,0.0014533328358083,0.1198618859695623,0.9923734860016518,0.2410143567547204,right,0.0009875893592834,-0.0526458812494862,0.2279023083098232,-9.790410812860726,-0.0275256849765743,-0.0087767988443374,0.0016010794788599,0.5160413509175181,0.0014663711190223
2025-04-30 00:23:39.089361700,12.254361572265625,0.0235921800163889,0.0018203360959887,0.00851515852566,0.0017841913504526,0.1199155042120647,0.9923595012292892,0.2411375978238495,right,0.0006053447723388,-0.0530691963136547,0.2310128963447175,-9.790118551915883,-0.0277553087679194,-0.0033923257142305,0.0013713836669921,0.5201868532244116,0.0010778307914733
2025-04-30 00:23:39.129361700,12.294361572265624,0.0239104864690407,0.0002789368154481,0.0086458587012796,0.0021150498650968,0.1199690700550579,0.9923454880490952,0.2412608976859678,right,0.0002228617668151,-0.0534924787373252,0.2341238497057929,-9.789823368361592,-0.0279849323373291,0.0019921469502151,0.001141645014286,0.5243319536725058,0.0006893165409564
2025-04-30 00:23:39.169362000,12.33436181640625,0.0242165987424918,-0.0014974366640672,0.0088010820908454,0.0023907432332634,0.1199052565860395,0.9923516403665756,0.2411404833824864,right,-0.0005888938903808,-0.0534650574425139,0.2371209674288518,-9.789766085216405,-0.027989161846064,0.0028062923811376,0.000887082889676,0.5240634389294311,0.0007460080087184
2025-04-30 00:23:39.209361700,12.374361572265624,0.0245227230682121,-0.0032738102599978,0.0089563077342759,0.0026664366014301,0.1198414387008673,0.9923579258909064,0.2410200967391982,right,-0.0014007687568664,-0.0534376931817765,0.2401181947497651,-9.789707048505544,-0.0279933964891892,0.0036204378120601,0.0006325077265501,0.5237954721756279,0.0008026361465454
2025-04-30 00:23:39.249361700,12.414361572265625,0.0245227230682121,-0.0023108441382646,0.0089563077342759,0.0006258273497223,0.1198414387008673,0.9923579258909064,0.2410200967391982,right,-0.0011929273605346,-0.0534376931817765,0.2401181947497651,-9.789707048505544,-0.0279933964891892,0.0019086663378402,0.0014936495572328,0.5237954721756279,0.0003135837614536
2025-04-30 00:23:39.289361700,12.454361572265626,0.0245227230682121,-0.0002985969185829,0.0089563077342759,-0.0006260958034545,0.1198414387008673,0.9923579258909064,0.2410200967391982,right,-0.0005847811698913,-0.0534376931817765,0.2401181947497651,-9.789707048505544,-0.0279933964891892,0.0003472341923043,0.0009512696415185,0.5237954721756279,0.0001615136861801
2025-04-30 00:23:39.329361700,12.494361572265625,0.0245227230682121,-0.0005195526755414,0.0089563077342759,0.0010261670686304,0.1198414387008673,0.9923579258909064,0.2410200967391982,right,-0.000700831413269,-0.0534376931817765,0.2401181947497651,-9.789707048505544,-0.0279933964891892,-0.0024470165371894,0.0010536033660173,0.5237954721756279,0.0006254650652408
2025-04-30 00:23:39.369361700,12.534361572265626,0.0245227230682121,-0.0027559637092053,0.0089563077342759,0.0031228009611368,0.1198414387008673,0.9923579258909064,0.2410200967391982,right,0.0002133250236511,-0.0534376931817765,0.2401181947497651,-9.789707048505544,-0.0279933964891892,-0.0088425017893314,0.0017360094934701,0.5237954721756279,0.0016076043248176
2025-04-30 00:23:39.409362000,12.57436181640625,0.0251373942399845,-0.0060938261449337,0.0092414810890869,0.0082822758704423,0.1196220513550362,0.9923746562120054,0.2406020157904315,right,-0.0001912117004394,-0.0538645289332643,0.2461299658525735,-9.789333539018036,-0.0282400680193476,-0.0107714384794235,0.0015111900866031,0.5279752786109224,0.0019222870469093
2025-04-30 00:23:39.449362000,12.61436181640625,0.0257519139477353,-0.0094316881150007,0.0095266544438983,0.0134417507797479,0.1194027164087144,0.992391414940936,0.2401843927363533,right,-0.0005964040756225,-0.0542916422839245,0.2521398189929313,-9.788953599789735,-0.0284867395495053,-0.0127003751695156,0.0012865643948316,0.5321576788621023,0.0022367015480995
2025-04-30 00:23:39.647904300,12.812904296875,0.0275655890535887,0.0062601524405181,0.0102598259863503,-0.0106203407049179,0.1185557497871733,0.992436066649164,0.2385841448727917,right,-0.0047145588323473,-0.0574699272177501,0.2698454071566462,-9.786740599915383,-0.0301636659381731,-0.0099894348531961,0.0034668997395783,0.5632773685406893,-0.000292936223559
2025-04-30 00:23:39.687904000,12.852904052734376,0.0271967526051471,0.0074723861180245,0.0100448076329652,-0.0089332945644855,0.1187647031808864,0.9924074420222018,0.2390013873388421,right,-0.0008783340454101,-0.0578999945400436,0.2662290615567006,-9.786596223008631,-0.0303572826329322,-0.009301139973104,0.0034762043505907,0.5674878623751923,6.97411596775e-05
2025-04-30 00:23:39.847465700,13.0124658203125,0.0268855461593152,-0.0008449680171906,0.009805797182585,0.0066815447062253,0.119088203682127,0.9923523704113556,0.2396649043862381,right,0.003409432945773,-0.0591433481940335,0.2631642306259833,-9.78596552388966,-0.0309589545320675,-0.0148886442184448,0.0003048411454074,0.5796601288691162,0.0008249867241829
2025-04-30 00:23:39.887466000,13.052466064453125,0.0270348902373207,-0.0028145425021648,0.009844535047264,0.002892532851547,0.1189647179643199,0.9923564110863444,0.2394318128863339,right,0.0024463534355163,-0.0597941575089706,0.2646154523476027,-9.785547006216644,-0.0312895836122174,-0.0160492919385433,0.000616293400526,0.5860310886731371,0.0004439018666744
2025-04-30 00:23:39.927466000,13.092466064453124,0.0271840907118698,-0.0047841169871389,0.0098832711364535,-0.0008964785374701,0.1188412322465128,0.9923604517613328,0.2391988692495286,right,0.0014828443527221,-0.0604450106150252,0.2660650301014073,-9.78512381236851,-0.0316202094173979,-0.0172099377959966,0.0009279120713472,0.5924022676728665,6.27972185611e-05
2025-04-30 00:23:40.086940000,13.25193994140625,0.0269316375066708,-0.0007883015787228,0.0095351171992937,-0.0120502319186925,0.118753141772007,0.9923137114553704,0.2390779751381914,right,-0.0018285231199115,-0.0642041693897249,0.2635328995415941,-9.782895614925026,-0.03346961642359,-0.0273975227028131,0.0020970446057617,0.6291954364106058,0.0021579321473836
2025-04-30 00:23:40.126851800,13.291851806640626,0.0266015187070601,0.0021681189537048,0.0093307354612749,-0.0121343629434704,0.1187619218345409,0.992303894362616,0.2390961009874879,right,-0.0025129104033112,-0.0648777830031983,0.2602920361905358,-9.782556007707118,-0.0337842832108297,-0.0101804314181208,0.0026479237712919,0.6357875281520188,0.0001588032173458
2025-04-30 00:23:40.166852000,13.33185205078125,0.0259465879904361,0.003604985307902,0.0090245448960232,-0.0146066630259156,0.1187858379613901,0.9923105547915414,0.2391166326700472,right,-0.0011463165283203,-0.0645584070972568,0.2538903524546884,-9.78292717910707,-0.0335870399056585,0.0086560519412159,0.0028577018529176,0.6326620896078646,0.0002269372344017
2025-04-30 00:23:40.206851800,13.371851806640626,0.0253078374634582,-0.0006357133388519,0.0087303893603214,-0.0146002750843763,0.1187787258520909,0.9923215473544722,0.2390746066415117,right,-0.0011440515518188,-0.0641894756834712,0.2476473298792727,-9.78331997781694,-0.0333658853454303,0.0042513259686529,0.001980572938919,0.629051644025743,0.002855509519577
2025-04-30 00:23:40.246851800,13.411851806640623,0.024711017674194,-0.0015988196246325,0.0084416218406603,-0.0161406453698873,0.1187236605950185,0.9923333238335352,0.2389421828620364,right,-0.0003819465637207,-0.0641033804817072,0.2418097462995909,-9.783519884303212,-0.0332871655495989,-0.000377076677978,0.0016277879476547,0.6282090557217598,0.0027320012450218
2025-04-30 00:23:40.286851800,13.451851806640626,0.0240562347576328,-0.0075018326751887,0.0081096328811598,-0.0152611695230007,0.1186201592568963,0.9923467750209662,0.2387145306632188,right,0.0009464621543884,-0.0642858375967254,0.2354008473716676,-9.78356138535738,-0.0333378923669009,3.76925454474e-05,0.0023991093039512,0.629994697029516,0.0018872246146202
2025-04-30 00:23:40.326851800,13.491851806640623,0.0235314241597333,-0.0088527593761682,0.0078521840800532,-0.0144582446664571,0.1184368534279121,0.992370862465333,0.2383283865439812,right,0.0003919601440429,-0.0643442652166964,0.2302654389782808,-9.783646725553274,-0.0333342368957071,0.0035416039172559,0.0016519092023372,0.6305664325028657,0.0010909587144851
2025-04-30 00:23:40.366851800,13.531851806640624,0.0229473424201027,-0.0070528876967728,0.0075686545036461,-0.0161437653005123,0.11826154000955,0.9923952148792484,0.2379554434836498,right,-0.0005716085433959,-0.0643430167012968,0.2245509703216142,-9.783780581066011,-0.0332976164323413,-0.000955470604822,0.0013950765132904,0.6305542306084185,6.705522537231445e-07
2025-04-30 00:23:40.406852000,13.57185205078125,0.0223706423825671,0.0009199143387377,0.0072670302098775,-0.0144998105242848,0.1181998995078496,0.9924009858405004,0.2378163748922151,right,0.0011663436889648,-0.0646420443907193,0.2189043975356966,-9.783719790789483,-0.0334113732322018,-0.013333092443645,0.0015434976667165,0.6334805663838983,-0.0033891387283802
2025-04-30 00:23:40.446852000,13.61185205078125,0.0217739616679807,0.0103857349604368,0.0068911087579822,-0.0178591292351484,0.1183313403624026,0.992367764503201,0.2380799333175026,right,-0.001837134361267,-0.0659096614660773,0.2130489495057612,-9.78303765374422,-0.0340059517267956,-0.0540047660470008,0.0018287226557731,0.6458852168615907,-0.0060978718101978
2025-04-30 00:23:40.486851800,13.651851806640623,0.0211092011498268,0.0231712870299816,0.0063453167428568,-0.0267105139791965,0.1186689624122842,0.99227288837773,0.238787530493122,right,-0.0048144459724426,-0.0693258725035407,0.2064977377640083,-9.780914085718988,-0.0356637473796163,-0.1199392676353454,0.00197659060359,0.6793102243404835,-0.0129563100636005
2025-04-30 00:23:40.526851800,13.691851806640624,0.0200065684215768,0.044886540621519,0.0054233739094757,-0.0437785610556602,0.1194100655946966,0.9920844660643202,0.2403248271854987,right,-0.0034440159797668,-0.0751107660534779,0.1956309643780812,-9.777043381765484,-0.0384722142935012,-0.1795030236244201,0.0033408850431442,0.735892673914507,-0.0203466303646564
2025-04-30 00:23:40.566851800,13.731851806640623,0.0184210551119769,0.0738968327641487,0.0041708351469405,-0.0474772453308105,0.1206851527417404,0.9918023967433556,0.2429301098483098,right,0.0031091570854187,-0.0819636077945627,0.1800319748384878,-9.77206968500614,-0.041781801632782,-0.1725580394268036,0.0056963935494422,0.8028888193447142,-0.026030845940113
2025-04-30 00:23:40.606851800,13.771851806640624,0.0169409258465363,0.1039715111255645,0.0031795956382561,-0.0386816971004009,0.122516641989618,0.9915227712078728,0.2466014773694056,right,0.009281575679779,-0.0848963986950732,0.1655272650753148,-9.76992858132422,-0.0431525953424225,0.0065928548574447,0.0071110967546701,0.8315496080964804,-0.0106706172227859
2025-04-30 00:23:40.646852000,13.81185205078125,0.0162620099914142,0.0936264172196388,0.0030683080309495,-0.01908447034657,0.1245208617614599,0.9913787582035256,0.2505490495996161,right,0.0030385851860046,-0.0799368593604248,0.1589593761933967,-9.774042446383833,-0.0406584724384553,0.1893762946128845,0.0041241403669118,0.783078349589929,0.0237755253911018
2025-04-30 00:23:40.686852000,13.85185205078125,0.0160462185146871,0.0448777116835117,0.0035681689879816,-0.0104497764259576,0.1258961714268562,0.9914025633746274,0.2531815209791337,right,-0.0028783679008483,-0.0694934299406404,0.1569728785512968,-9.781720141404866,-0.0354729497094343,0.309494286775589,0.0006636213511228,0.6809494429148734,0.0404660403728485
2025-04-30 00:23:40.726851800,13.891851806640624,0.0159808033870711,0.0066649168729782,0.0043377780591004,-0.0084096556529402,0.1264077149660514,0.9915425274141828,0.2540562860733442,right,-0.0076141357421875,-0.0566053901153453,0.1564602528540417,-9.789693019980191,-0.0290818707742814,0.3552989065647125,-0.001191858202219,0.554812943588756,0.0434502698481082
2025-04-30 00:23:40.766851800,13.931851806640625,0.0150773024778527,-0.0025475127622485,0.0044087767514704,-0.0191476307809352,0.1260780449218409,0.9916943956521151,0.253277441268884,right,-0.0034992098808288,-0.0485764894968537,0.1476776013989467,-9.793968797603249,-0.0250425371722966,0.2358654290437698,0.0002855118364095,0.4761853970756754,0.0242152847349643
2025-04-30 00:23:40.806851800,13.971851806640624,0.0141803838905815,-0.0117599423974752,0.0044797030248005,-0.0298856049776077,0.1257463019109034,0.9918299527390936,0.2525061397574717,right,0.0005505681037902,-0.0405468925681865,0.1389428898719605,-9.7976045237571,-0.0210027915342857,0.1164319664239883,0.0017579905688762,0.3975203315638005,0.0049841180443763
2025-04-30 00:23:40.846851800,14.011851806640625,0.0132720722390712,-0.0125345075502991,0.004158765770976,-0.0109151639044284,0.1254048471437332,0.9918956307997744,0.2517806681594454,right,0.0098257660865783,-0.0386065751616227,0.1300535449056886,-9.79847955302596,-0.0199819633782626,-0.0209526270627975,0.0011894507333636,0.3785071861991658,-0.0112083423882722
2025-04-30 00:23:40.886852000,14.05185205078125,0.0131525265996439,-0.0054290136322379,0.0039020720015553,0.0043294942006468,0.125173792726492,0.9918926114396523,0.2513417122709852,right,0.0093117356300354,-0.0418237886651738,0.1288654950317461,-9.797226922616362,-0.021569104512517,-0.1529445648193359,-0.0011620018631219,0.4100317668842151,-0.0187143683433532
2025-04-30 00:23:40.926852000,14.09185205078125,0.0133041338868132,-7.050111889839172e-07,0.0034596289357804,-0.000679612159729,0.1251321841190707,0.9918017786436132,0.2513399504981434,right,0.00490003824234,-0.0500761567633938,0.1303013730537612,-9.793490074175596,-0.0256709826798911,-0.2728174328804016,-0.0020614797249436,0.4908742129677906,-0.0252799298614263
2025-04-30 00:23:40.966851800,14.131851806640626,0.0130970400713748,0.0102734034880995,0.0027059039934602,-0.0094383163377642,0.1252375522272805,0.9916459414046184,0.2516505377817822,right,0.0055771470069885,-0.0603775608989662,0.1282001721239648,-9.7879412078768,-0.0307663464989689,-0.281055748462677,0.0009317547082901,0.5917420136658474,-0.0165428258478641
2025-04-30 00:23:41.006851800,14.171851806640625,0.0127398416939899,0.0191232115030288,0.0019798006364989,-0.0135777182877063,0.1255764438198934,0.9914653078826048,0.252412251431293,right,-0.0003261566162109,-0.0689054331985533,0.1246351000535301,-9.782584649279713,-0.034972556046568,-0.1839794814586639,0.0025991732254624,0.675196943802759,-0.0032423213124275
2025-04-30 00:23:41.046851800,14.211851806640626,0.0125330321138525,0.0458112433552742,0.0016476665154817,-0.0089833484962582,0.1262677917917157,0.9913207628502576,0.253834420189441,right,-0.004246175289154,-0.0721371389393407,0.1225839762100018,-9.780376910102367,-0.036562678910699,-0.0226326584815979,0.0029391851276159,0.7068103718150407,0.0105640813708305
2025-04-30 00:23:41.086851800,14.251851806640625,0.0126813557828707,0.0636418908834457,0.0018257015467282,0.003139367327094,0.1274349822025622,0.9912120762298356,0.2561697495133295,right,-0.0072876811027526,-0.0698345453330925,0.1240549529448617,-9.781960379901529,-0.0354329386642812,0.1103168576955795,0.0028473874554038,0.6842865514483303,0.0190801844000816
2025-04-30 00:23:41.126851800,14.291851806640626,0.0126096157619017,0.0781275480985641,0.0021465438920852,-0.0205509755760431,0.128885501438376,0.9911305453510424,0.2590271603812515,right,-0.0094634890556335,-0.0635381750615564,0.1234050742013845,-9.786083597311375,-0.0323109549517768,0.2030695974826812,0.0051612081006169,0.6226775789491832,0.0157790482044219
2025-04-30 00:23:41.166852000,14.33185205078125,0.0116901715887679,0.0752647444605827,0.0021366915627723,-0.0412313714623451,0.1304096176841669,0.991047827200493,0.261999146068389,right,-0.0098474025726318,-0.0559853475366216,0.1144589758128859,-9.790615980044008,-0.0285119418377049,0.1937039643526077,0.0059171197935938,0.5487420261772349,0.0091794654726982
2025-04-30 00:23:41.206851800,14.371851806640626,0.0096689353765255,0.0732226818799972,0.0014794169025552,-0.0699044167995452,0.1318980540338994,0.9909343750938588,0.2648963575954531,right,-0.0051971673965454,-0.0501520079269992,0.0946989484705496,-9.793861830097436,-0.0254917239427006,0.1243123635649681,0.0060919914394617,0.4916171402895823,-0.0038503594696521
2025-04-30 00:23:41.246851800,14.411851806640623,0.0068829426867497,0.0778920575976371,0.0002380019102316,-0.0850468426942825,0.133451774322128,0.9907647852816196,0.2679432189884838,right,0.0020189881324768,-0.0474949574887789,0.0674217412979807,-9.795359375178814,-0.0239918835792998,0.0306804999709129,0.0053133536130189,0.4655914127491414,-0.0130951032042503
2025-04-30 00:23:41.286851800,14.451851806640626,0.00402138131417,0.0835301205515861,-0.001275648248239,-0.0749345272779464,0.1350469396635375,0.9905421346832938,0.2710991952458799,right,0.0074093341827392,-0.0483611105605854,0.0393898433005902,-9.7951051081568,-0.0242280036171305,-0.0705781802535057,0.0009689084254205,0.4740757114453241,-0.0143899135291576
2025-04-30 00:23:41.326851800,14.491851806640623,0.001954118374945,0.0953588113188743,-0.0026370749314184,-0.049491710960865,0.1368707661468825,0.9902386249140268,0.2747508685584548,right,0.0055611133575439,-0.0526495193073835,0.0191365651066822,-9.793042330408095,-0.0262074820194061,-0.1572548747062683,-0.002392441034317,0.516077006752789,-0.0086576342582702
2025-04-30 00:23:41.366851800,14.531851806640624,0.0008135987080423,0.0987860113382339,-0.0036944361895592,-0.0271391049027442,0.138807966741445,0.9898796916118796,0.2786613485046709,right,0.0043258070945739,-0.0590107057401056,0.0079645651214173,-9.789577284646034,-0.0292716525918636,-0.1780655682086944,-0.00463293120265,0.5783616134911775,-0.0042106881737709
2025-04-30 00:23:41.406852000,14.57185205078125,0.0004644994495675,0.0943266823887825,-0.0043361978316161,-0.0048555992543697,0.140768971358405,0.9895114926346922,0.2826407456924865,right,0.0034396648406982,-0.0648462344954191,0.0045453854905645,-9.786037420082092,-0.0321269603914274,-0.1378582864999771,-0.0033420061226934,0.6354788275290281,0.0036320313811302
2025-04-30 00:23:41.446852000,14.61185205078125,0.0007773495307779,0.0696625560522079,-0.0045149654040391,0.0146579053252935,0.1424169883242786,0.989209488737428,0.2860027093034307,right,0.0023797154426574,-0.0687707252897211,0.0076049511576973,-9.78346610828936,-0.0340830308447936,-0.0786916315555572,-0.003987640608102,0.6738790661372244,0.0092591494321823
2025-04-30 00:23:41.486851800,14.651851806640623,0.0015044163908096,0.0395078808069229,-0.0043332972551982,0.0252119358628988,0.1434526533591868,0.9890247509959008,0.2881333051451906,right,0.0036303400993347,-0.0707438634753024,0.0147161537069012,-9.7821094329834,-0.0351061101474324,-0.0309360958635807,-0.0030093791428953,0.6931818786308169,0.0089956820011138
2025-04-30 00:23:41.526851800,14.691851806640624,0.0028621430485016,0.0328945741057395,-0.0037152869100682,0.0301458574831485,0.1439326870201332,0.9889454511283432,0.2891555695977671,right,0.0029082298278808,-0.0712355571690157,0.0279965892219915,-9.781738261583447,-0.0354447368104651,-0.0229823645204305,-0.0019207777222618,0.6979916170001029,0.0049361288547515
2025-04-30 00:23:41.566851800,14.731851806640623,0.0042204237764879,0.0262812674045562,-0.0030972732302615,0.0350797809660434,0.1444126379628301,0.988865428410872,0.2901785862614872,right,0.0021840333938598,-0.0717258675613379,0.0412814566003158,-9.781347800961136,-0.0357833383592095,-0.0150286322459578,-0.0008326307870447,0.7027876191049813,0.0008779838681221
2025-04-30 00:23:41.606851800,14.771851806640624,0.0054073792175576,0.0311205647885799,-0.0025668690449002,0.0311702825129032,0.1448870794414332,0.9887850630174444,0.291185448838096,right,0.0001708269119262,-0.0722553673248249,0.0528894311418291,-9.780918761894108,-0.0361295400923956,-0.0186230614781379,0.0011290293186903,0.7079667753085493,-0.0013458505272865
2025-04-30 00:23:41.646852000,14.81185205078125,0.0064651250887309,0.0340805724263191,-0.0021219917067499,0.0211861133575439,0.1454895232324107,0.9886810704041096,0.2924492372674694,right,-0.0033611059188842,-0.0730127745937969,0.0632316417975351,-9.7803184579134,-0.0365792714726453,-0.0218829195946455,0.0011382028460502,0.7153748596079648,0.0006994009017944
2025-04-30 00:23:41.686852000,14.85185205078125,0.0068471847428006,0.0313031114637851,-0.0020128820747516,-0.0025351848453283,0.1461504288205432,0.9885690411319142,0.293807031421992,right,-0.004580795764923,-0.0737628538958345,0.0669646086476277,-9.77975380976796,-0.0369764840826948,-0.0232780296355485,0.0019998089410364,0.72271082851924,0.004244290292263
2025-04-30 00:23:41.726851800,14.891851806640624,0.0066112104608974,0.0189634505659341,-0.0022117395669359,-0.010354034602642,0.1466764879318478,0.9884755047824716,0.2948700280742751,right,-0.0016018152236938,-0.0746146718449946,0.0646527423755265,-9.779150583177804,-0.0373790933871159,-0.0248170346021652,0.0031875437125563,0.7310412883605808,0.0054333731532096
2025-04-30 00:23:41.766851800,14.931851806640625,0.0062706773904874,0.00781109649688,-0.002457671340466,-0.0110153127461671,0.1469466577076491,0.9884185050955332,0.2954118004489867,right,-0.0010055899620056,-0.0755320234096016,0.061318382921582,-9.778497087705135,-0.0378068251831664,-0.0209245719015598,0.0024979729205369,0.7400120919320732,0.0044405311346054
