time,seconds_elapsed,roll,rotationRateZ,quaternionY,rotationRateY,quaternionZ,quaternionW,yaw,devicelocation,accelerationZ,pitch,gravityX,gravityZ,quaternionX,rotationRateX,accelerationX,gravityY,accelerationY
2025-04-30 00:15:10.673690600,0.476690673828125,-0.7886906842308764,0.0060759847983717,-0.3732124894022961,0.0185862444341182,1.7148895841395686e-17,0.9163852036699583,-0.1122911007110465,right,-0.2088431715965271,-0.2684966188393254,-6.707873252800106,-6.6638482331126925,-0.1447438368364574,0.0123002287000417,0.5391378998756409,2.6015295286014672,0.1535841226577758
2025-04-30 00:15:10.713690600,0.516690673828125,-0.2751919734262874,0.0067477962002158,-0.1489088317150061,0.0275514088571071,0.0994760393513332,0.964138390524962,0.1466816989232432,right,-0.0148006677627563,-0.41952952042483,-2.433689036414027,-8.619228852415084,-0.195877013276615,0.0173858515918254,0.1051496565341949,3.994550113403797,0.0154754221439361
2025-04-30 00:15:10.753690600,0.556690673828125,-0.2240418222830947,0.0013578454963862,-0.1272049164737879,0.0263738203793764,0.1082747368121292,0.9653391995228494,0.1745483338139889,right,-0.0083979368209838,-0.4276375478283409,-1.9825624946080147,-8.700520649701357,-0.2005388859630749,0.0176078062504529,0.062099277973175,4.067035211639106,0.0054053366184234
2025-04-30 00:15:10.793690600,0.596690673828125,-0.1724870720372961,-0.0040321052074432,-0.105428268149075,0.0251962319016456,0.1170115176506595,0.965988007840486,0.2029308232222709,right,-0.0038415789604187,-0.4344307084123258,-1.5267967486940324,-8.763704543367028,-0.2050860947990672,0.0178297609090805,0.0185758471488952,4.1275598229676485,-0.0034452080726623
2025-04-30 00:15:10.833690600,0.636690673828125,-0.1626054230570812,0.0028283302672207,-0.1012195325644127,0.0086472686380147,0.1184886949835643,0.9660887483840112,0.2080304714682725,right,-0.0062950849533081,-0.4354173675927951,-1.439463771547377,-8.774341088193655,-0.2058828046816879,0.007491729222238,0.0099157243967056,4.136334957836568,-0.0011635720729827
2025-04-30 00:15:10.873690600,0.676690673828125,-0.1577104562780834,-0.0047088922001421,-0.0991399996980644,-0.0206424463540315,0.1192664729739367,0.9661417789039188,0.2106662910176376,right,-0.0017387270927429,-0.4357362768464831,-1.3962893773399292,-8.779978801819682,-0.2061963611386095,-0.02192023396492,0.0059081017971038,4.139170473523437,0.0013162493705749
2025-04-30 00:15:10.913690600,0.716690673828125,-0.1556225291123081,-0.0090096481144428,-0.0982156629408086,-0.0218361467123031,0.1194649203410394,0.966205234742254,0.2115286213511124,right,0.0015486478805541,-0.4356289238695363,-1.3780232144176958,-8.783314083722233,-0.2062263808833318,-0.0060527399182319,-0.0014685690402984,4.13821594927758,-0.0018852949142456
2025-04-30 00:15:10.953690600,0.756690673828125,-0.1561978983536949,-0.0034420709125697,-0.0984696391525629,-0.0206079948693513,0.1194534869322558,0.966211368438525,0.2113952226519848,right,0.0023556947708129,-0.4353908989256243,-1.3832298431500791,-8.783492362898588,-0.2060831579858063,0.0019349353387951,-0.0025758296251296,4.136099687775969,-0.0016812980175018
2025-04-30 00:15:10.993690600,0.796690673828125,-0.1567731294408584,0.0021255062893033,-0.0987235940552491,-0.0193798430263996,0.1194420851468944,0.96621745161081,0.2112620955111415,right,0.0031623244285583,-0.4351528148186622,-1.3884358873605729,-8.783667719465493,-0.2059399129610721,0.0099226124584674,-0.0036831647157669,4.133982549491525,-0.0014771819114685
2025-04-30 00:15:11.033690600,0.836690673828125,-0.1580361968223229,0.0061624567024409,-0.0993169257449773,-0.0164781026542186,0.1195234424877848,0.9661797036723174,0.2111710803106403,right,0.0016731619834899,-0.4349779543150814,-1.3996427794210613,-8.782620840761066,-0.2057841856214393,-0.0015742434188723,-0.0011793076992034,4.1324274290040135,0.0019780695438385
2025-04-30 00:15:11.073690600,0.876690673828125,-0.1586510222822152,0.0010646940208971,-0.0996115507266403,-0.0079580591991543,0.1195393379542427,0.966132625386793,0.2110613582375798,right,0.0002931356430053,-0.4351864166263417,-1.4049062529072165,-8.780907607102394,-0.2058539591730861,-0.00663738604635,-0.0006773024797439,4.134281240177154,0.0011823177337646
2025-04-30 00:15:11.113690600,0.916690673828125,-0.1586510222822152,0.0046886620111763,-0.0996115507266403,0.0010091196745634,0.1195393379542427,0.966132625386793,0.2110613582375798,right,-0.0005141496658325,-0.4351864166263417,-1.4049062529072165,-8.780907607102394,-0.2058539591730861,-0.014779957011342,-0.0021398067474365,4.134281240177154,-0.0018852353096008
2025-04-30 00:15:11.153690600,0.956690673828125,-0.1579850923667788,0.0295220725238323,-0.0994428907626942,0.0146782407537102,0.1199287216690892,0.9659483223502854,0.2119264023813679,right,0.0002869367599487,-0.4366748253209825,-1.3980888279773294,-8.775755046644806,-0.2065724075292176,-0.0224454253911972,-0.0046210139989852,4.1475124776721,-0.0067422688007354
2025-04-30 00:15:11.193690600,0.996690673828125,-0.1560405349754329,0.061463177204132,-0.0987308041932994,0.060294609516859,0.1206053249233432,0.965822706134157,0.2136865233390572,right,0.0053561925888061,-0.4377157941767311,-1.380349465408176,-8.774187358936667,-0.2071067457182422,-0.021915441378951,-0.0069555789232254,4.156760783010721,-0.0167222023010253
2025-04-30 00:15:11.233690600,1.036690673828125,-0.1540948215127044,0.0477275624871254,-0.0980025143843824,0.0542246177792549,0.1212144924360514,0.9657111351748088,0.2153133781095927,right,0.003648817539215,-0.4386898983871337,-1.3626526268064976,-8.772851141896844,-0.2076165007189923,-0.055361233651638,-0.0025995671749114,4.165410830195248,-0.0130704939365386
2025-04-30 00:15:11.273690600,1.076690673828125,-0.1512887977755169,-0.0117959454655647,-0.0967404128893445,0.1156117618083953,0.1213249763838719,0.9657793036956498,0.2161370531819691,right,0.0180963277816772,-0.4388554380282492,-1.3379266202203928,-8.775958460262418,-0.207826769426011,0.0077082365751266,0.009583905339241,4.1668806104868645,-0.0006832778453826
2025-04-30 00:15:11.313690600,1.116690673828125,-0.1483115907649324,-0.1039974167943,-0.0948225281680418,0.1009713560342788,0.119022311781692,0.9663140336248788,0.2120779191198552,right,0.0003526806831359,-0.4375280985504421,-1.312608931351453,-8.785365171033144,-0.2075566027745309,-0.0420896708965301,-0.0040293484926223,4.155093726581335,0.0078251361846923
2025-04-30 00:15:11.353690600,1.156690673828125,-0.1476238627853242,-0.0956108942627906,-0.0941932036196199,0.0701029524207115,0.1168749956965991,0.9661628729839734,0.2075783247529381,right,-0.0014551281929016,-0.4415412854606484,-1.3041035533346237,-8.769701153433322,-0.2097554097624604,-0.0931598991155624,0.0031999051570892,4.190708645319939,0.0087895691394805
2025-04-30 00:15:11.393690600,1.196690673828125,-0.1469547923388295,-0.0872243642807006,-0.0935629263951321,0.0392345450818538,0.1147265296165983,0.966002202879198,0.2030732219152372,right,-0.0032817125320434,-0.4455572301459564,-1.2957609646640718,-8.75385301143825,-0.2119521437970165,-0.1442301273345947,0.0104457885026931,4.22628060169965,0.009758323431015
2025-04-30 00:15:11.433690600,1.236690673828125,-0.1475537528559004,-0.0643176436424255,-0.0936554559286479,0.0057848691940307,0.1131740323777633,0.9656626339839016,0.1994958718559865,right,-9.6559524536e-06,-0.4500871538727429,-1.2981759168513118,-8.73404882529378,-0.2142804661503549,-0.1338127851486206,0.0091817826032638,4.266323566013575,0.0030282437801361
2025-04-30 00:15:11.473690600,1.276690673828125,-0.1477829098314884,-0.0228954628109931,-0.09366269544875,-0.0105092879384756,0.112036901877887,0.965279135214318,0.1968567715991643,right,-0.0051774382591247,-0.4546276572560352,-1.297311555106938,-8.71450124425888,-0.2165904403611504,-0.1016990691423416,0.0018408596515655,4.306372083285451,0.0057572722434997
2025-04-30 00:15:11.513690600,1.316690673828125,-0.1482865234159342,0.0410729125142097,-0.0940481666996415,-0.037408847361803,0.1120746956908981,0.9647680270872084,0.1965993490552176,right,-0.0026897192001342,-0.4589584212523099,-1.2989325804375111,-8.695319573926925,-0.2186710721680119,-0.0940824672579765,-0.0095271319150924,4.344487878929078,0.0112372934818267
2025-04-30 00:15:11.553690600,1.356690673828125,-0.1487374854273386,0.0401158779859542,-0.0945032308304983,-0.0328606851398944,0.1127966682328672,0.9643826472784665,0.19786506825964,right,0.0055416822433471,-0.4614678626147811,-1.3012339892476796,-8.683923735165596,-0.2198005180992975,-0.074635162949562,-0.0075892060995101,4.366536629129946,0.0186106860637664
2025-04-30 00:15:11.593690600,1.396690673828125,-0.1477429334628124,0.0610431022942066,-0.0944039478469848,0.0366197191178798,0.1139179211674824,0.9639540979044964,0.2002715639655369,right,-0.0025197863578796,-0.4643563465824737,-1.2907346609346568,-8.672702083927392,-0.2211406099319768,-0.0538059286773204,-0.0130049735307693,4.391881790527701,0.0313343703746795
2025-04-30 00:15:11.633690600,1.436690673828125,-0.1470292964844607,0.0554747581481933,-0.0942298988289817,0.0194245856255292,0.1143035824059902,0.963723164993209,0.2011447516637942,right,0.0070769786834716,-0.4661768840229444,-1.2833717309512198,-8.665697173601389,-0.2220205970500992,-0.0121634826064109,-0.0232396870851516,4.407837484550476,0.0197837352752685
2025-04-30 00:15:11.673690600,1.476690673828125,-0.1463495996208894,0.0232396721839904,-0.0940541815269423,0.0366267189383506,0.1146246496024092,0.963508477887572,0.2018825131649213,right,0.0113927721977233,-0.4679042567741483,-1.2763691587127743,-8.659021933621167,-0.2228599688692692,-0.0267535485327243,-0.0151718854904174,4.422963157489896,0.0199771225452423
2025-04-30 00:15:11.713690600,1.516690673828125,-0.1455683514917207,-0.0183847770094871,-0.0936493606624467,0.0788769721984863,0.1140208329042248,0.9633017663770596,0.2006815418987464,right,0.0090947151184082,-0.4705282109490819,-1.267916095405072,-8.648504046738147,-0.2242294248701788,-0.0306319426745176,-0.0037115365266799,4.445914117227495,-0.0023854970932006
2025-04-30 00:15:11.753690600,1.556690673828125,-0.1443276801520586,-0.0357107706367969,-0.0929077656065934,0.0695618689060211,0.1129518843545785,0.9632223130059188,0.1986488078132371,right,0.0055860877037048,-0.4726445704253728,-1.255829059509188,-8.64073984247744,-0.2254174834900918,-0.0001221504062414,0.0125417187809944,4.4644031291201705,-0.0171276628971099
2025-04-30 00:15:11.793690600,1.596690673828125,-0.14308415252665,-0.0184362512081861,-0.092191220041855,0.066475823521614,0.112299578225662,0.9633319161713207,0.197582352154587,right,0.0035874247550964,-0.4727104992980382,-1.2450411235131322,-8.642002994281054,-0.2255687455472529,0.0038628741167485,0.0165609344840049,4.464978883181512,-0.029460072517395
2025-04-30 00:15:11.833690600,1.636690673828125,-0.1399314697608522,0.0625060647726059,-0.0907668999427795,0.0531584620475769,0.1123904314761116,0.9634587478950613,0.1985230639917415,right,-0.0060243010520935,-0.4724139725326745,-1.2179741067588328,-8.647195886749028,-0.2255594876050809,-0.0131058655679225,0.017836183309555,4.462389743471145,-0.030667632818222
2025-04-30 00:15:11.873690600,1.676690673828125,-0.1365134387845323,0.1012885719537735,-0.0895907607901652,0.0259126331657171,0.1137626568560068,0.9632149895384926,0.2021000800902146,right,-0.0001856088638305,-0.4740478703198523,-1.1874168367359788,-8.644073955336212,-0.2263811074340128,-0.0826251506805419,0.0222413167357444,4.476651785318553,-0.022314041852951
2025-04-30 00:15:11.913690600,1.716690673828125,-0.1330348840935808,0.1454536914825439,-0.0885039274236801,0.0350590646266937,0.1155003163832363,0.9628414817598908,0.2064288695178515,right,0.0009289383888244,-0.4763810767712848,-1.1559522426098583,-8.63777573197484,-0.2275149841455691,-0.0971776470541954,0.018283262848854,4.496997238732874,-0.0158844590187072
2025-04-30 00:15:11.953690600,1.756690673828125,-0.1271231510029403,0.1813411563634872,-0.0868021864428393,0.0282585266977548,0.119044502459391,0.9621526185868936,0.215051868593596,right,0.0004147887229919,-0.4800414885745933,-1.1027737562604247,-8.628072668606043,-0.2292512230294721,-0.0709919854998588,0.0102721750736236,4.528866833463311,-0.0010476410388946
2025-04-30 00:15:11.993690600,1.796690673828125,-0.1211647817564405,0.2172286212444305,-0.0850988166311177,0.0214579887688159,0.1225864132565752,0.9614455957613622,0.2237155463053316,right,-0.0001184940338134,-0.48365651517192,-1.049359561458975,-8.618181973710655,-0.2309831550762563,-0.0448063239455223,0.0022370219230651,4.560281670163572,0.013835459947586
2025-04-30 00:15:12.033690600,1.836690673828125,-0.1327433559377797,1.0340245962142944,-0.0939626950926953,-0.8334355354309082,0.13890274143778,0.9595655841099106,0.2551282984656374,right,0.0513931512832641,-0.4779679631577443,-1.1524880736306309,-8.631028595802187,-0.2260775460996555,0.3898319602012634,0.0484946370124816,4.510820889163017,0.0523094534873962
2025-04-30 00:15:12.073690600,1.876690673828125,-0.1334289754717549,-0.7032378911972046,-0.0978415733273026,0.6473830938339233,0.1557831184729629,0.9577498928406392,0.2904112132073684,right,0.0740818381309509,-0.471195209679413,-1.1624430659338831,-8.660316649606823,-0.2210741264710087,-0.5283187031745911,0.1116450056433677,4.4517432617723935,0.1360182762145996
2025-04-30 00:15:12.113690600,1.916690673828125,-0.123061369366976,-1.023212432861328,-0.0891483225996365,0.6885379552841187,0.1370365638553454,0.9600869017532896,0.2535156296475291,right,0.0326144099235534,-0.4782423048479841,-1.068717976597324,-8.64055396451652,-0.2269514540487758,-0.2970825135707855,-0.0289644598960876,4.513209830126166,0.0119164586067199
2025-04-30 00:15:12.153690600,1.956690673828125,-0.1333280397781554,-0.6645451188087463,-0.0904861944415878,0.2268534004688263,0.1236496048779834,0.9620299104920929,0.2233667803495483,right,0.0440210103988647,-0.4746009450408744,-1.159546759970486,-8.645357565405964,-0.2258798634970512,-0.109492003917694,-0.0275475978851318,4.481476721256971,-0.0395157635211944
2025-04-30 00:15:12.193690600,1.996690673828125,-0.1474684805665331,-0.4595258235931396,-0.0940932307042895,0.0283577889204025,0.1120878877841668,0.963365788014352,0.196183713615861,right,0.0231485366821289,-0.4713753617264989,-1.2837931712336836,-8.642350784805416,-0.2247425993152568,-0.0446835309267044,0.0489536896347999,4.45331737922132,-0.0432005822658538
2025-04-30 00:15:12.233690600,2.036690673828125,-0.1480801670463492,-0.3561542630195617,-0.0922863963622603,-0.0198985338211059,0.1033467510444329,0.9644995421987472,0.1779836812622489,right,-0.0027756690979003,-0.4698468005358087,-1.2900821883752942,-8.648286020073295,-0.2248185068253161,-0.13571497797966,-0.0072855502367019,4.439956962388754,-0.0307639837265014
2025-04-30 00:15:12.273690600,2.076690673828125,-0.14261280374756,0.2291827201843261,-0.0898865862156124,0.2195790261030197,0.1037768933566081,0.9646623117788388,0.1801615482373124,right,0.0125736594200134,-0.4696236465240704,-1.2429206242278217,-8.656191094109415,-0.2248944536585953,0.090133786201477,0.0193904191255569,4.438005536060035,-0.029150515794754
2025-04-30 00:15:12.313690600,2.116690673828125,-0.1084980490222664,0.2568671107292175,-0.0753465745978701,0.8950255513191223,0.1093527869987362,0.9658749460397998,0.1999103232915414,right,0.019547164440155,-0.4623479951218235,-0.9504222904320806,-8.725416606026887,-0.2223745910793896,0.5744296312332153,0.0181356221437454,4.374263423989713,0.0069008469581604
2025-04-30 00:15:12.353690600,2.156690673828125,-0.033261100757505,-0.2498820424079895,-0.0376888878251383,2.2727959156036377,0.1046793659276942,0.9724202250475692,0.2074035077325625,right,0.0270079970359802,-0.4186885766930834,-0.297949858933594,-8.954624590107798,-0.2049896477965972,1.4446370601654053,-0.0091074928641319,3.987016795289516,0.0083661675453186
2025-04-30 00:15:12.393690600,2.196690673828125,0.0456502223022131,-0.6876603960990906,0.0066030279805259,2.5634443759918213,0.0813419591986852,0.9798076331094164,0.1740745684603474,right,-0.0545787811279296,-0.36464036574636,0.4180974017769098,-9.152338534772396,-0.1825294694986196,1.3803958892822266,-0.1130478084087371,3.497181314252317,0.0046383440494537
2025-04-30 00:15:12.433690600,2.236690673828125,0.1276362643208587,-0.0824542641639709,0.0512414818017355,1.654036045074463,0.0636809228278399,0.983814710189278,0.1493964611669365,right,-0.0317728519439697,-0.3122849611772008,1.1879143379293382,-9.256428439322113,-0.1594609685488404,1.108635425567627,-0.0461671948432922,3.01293444700241,0.0161141455173492
2025-04-30 00:15:12.473690600,2.276690673828125,0.1853121022328092,0.909741222858429,0.0819572684271312,0.7183029055595398,0.0624399820428602,0.9856625208314724,0.1504409367228093,right,-0.0300135612487792,-0.2559557631558148,1.7480423755936323,-9.324735082828996,-0.1336182341210482,1.0647763013839722,-0.0057176202535629,2.482750588963926,-0.0121832191944122
2025-04-30 00:15:12.513690600,2.316690673828125,0.197205790476578,1.8929851055145264,0.0861553565943099,-1.2865843772888184,0.0946245013577246,0.9850671347594916,0.212600482921637,right,-0.1469903588294983,-0.21220300659998,1.878319153062254,-9.400869643482563,-0.1151793660136321,-0.0999075174331665,-0.0394143611192703,2.065417157296836,-0.0348795056343078
2025-04-30 00:15:12.553690600,2.356690673828125,0.1579679585108588,1.3567440509796145,0.064477570569275,-1.727146863937378,0.1191568247794655,0.9842989263485076,0.2575346819927218,right,-0.0469393730163574,-0.2088723257819512,1.50917209854573,-9.474057044768331,-0.1131377605339108,-0.2294307947158813,0.0127908587455749,2.033475666373968,0.0216497778892517
2025-04-30 00:15:12.593690600,2.396690673828125,0.0871693154678805,1.2249321937561035,0.02626448480484,-2.183854579925537,0.1490122500097732,0.982083374637037,0.3105528644941774,right,0.0047035813331604,-0.2144465949475222,0.8342014377795159,-9.5456405179888,-0.112329664484883,-0.2575705051422119,0.0130593478679656,2.0869205485746263,0.0175904482603073
2025-04-30 00:15:12.633690600,2.436690673828125,0.0342426144548357,0.8474571108818054,-0.0014816269950358,-1.7929500341415403,0.165986635927774,0.9800326670269962,0.3392784755482498,right,0.0186842083930969,-0.2167407575438999,0.3278851793995126,-9.571594458934664,-0.1094636586520247,-0.1360748708248138,0.0274041667580604,2.1088976948440075,0.0079168528318405
2025-04-30 00:15:12.673690600,2.476690673828125,-0.01786200539839,0.0880883932113647,-0.0292687979038317,-0.2482334375381469,0.1822336403262489,0.976743841437392,0.3668791500119199,right,0.0790302753448486,-0.2257315540963367,-0.1707128875522874,-9.556336684048174,-0.1091135099948653,-0.2062330394983291,0.0621306933462619,2.194917981956899,0.0090769976377487
2025-04-30 00:15:12.713690600,2.516690673828125,0.011412225934947,-0.9302548170089722,-0.0138451668043269,1.9096726179122925,0.1715463511341999,0.9787573303007296,0.348302213818477,right,0.0961199402809143,-0.2247419677570796,0.1090994398074224,-9.55940659301281,-0.1114191658917919,0.2794016599655151,0.0433757118880748,2.185458664216101,0.0090468078851699
2025-04-30 00:15:12.753690600,2.556690673828125,0.1247692676764169,-1.8039302825927728,0.0473959992474036,3.273280382156372,0.1315858962641853,0.9841888551412176,0.2785370525872435,right,0.0125237107276916,-0.2028365782411272,1.1953776595473289,-9.530934531766176,-0.1086792703940725,0.8493881225585938,-0.013850063085556,1.975534934058785,0.0258296728134155
2025-04-30 00:15:12.793690600,2.596690673828125,0.1887105588893465,-1.0419152975082395,0.0819671150592301,1.947435975074768,0.1082635109946948,0.9851694156886722,0.2369488671477095,right,-0.1025249361991882,-0.1900622282295914,1.806526859396696,-9.459093868914248,-0.1048896235659971,0.3775563836097717,-0.0394404232501983,1.852671793847531,-0.0215334594249725
2025-04-30 00:15:12.833690600,2.636690673828125,0.22368609185093,-0.108428418636322,0.0997132564754076,-0.0272496938705444,0.095428405212179,0.9842297756306204,0.2158590307849455,right,-0.0960283279418945,-0.2001039965289601,2.1319569372616707,-9.371523722010853,-0.1106460161658702,-0.7289953827857971,-0.0372569561004638,1.949279525948316,0.0264911204576492
2025-04-30 00:15:12.873490700,2.67649072265625,0.2043701412308612,0.4023731350898742,0.0867032075763404,-0.8734387755393982,0.1036432059515581,0.982324567667363,0.234839267759611,right,0.0543942488729953,-0.2387804519640453,1.9337949565686283,-9.330111515170335,-0.1295347086947917,-0.5785284042358398,0.0040146545507013,2.3194471556842324,0.1031771376729011
2025-04-30 00:15:12.913490700,2.71649072265625,0.1858414363304439,-0.1603497862815857,0.0771202720121973,-1.4931645393371582,0.0980810528973919,0.9825443905430756,0.2232494254437655,right,-0.0649555325508117,-0.2589039820673334,1.7516178959928452,-9.316574572727085,-0.1379832272799722,-1.2294423580169678,0.0168526321649551,2.510709732252359,0.0281434953212738
2025-04-30 00:15:12.953490700,2.75649072265625,0.1669688922040832,-0.7230727076530457,0.0675223498181022,-2.112890243530273,0.0924997986742661,0.9825733001081888,0.2112095668188109,right,-0.1849384903907776,-0.2788138967299184,1.5668695236243306,-9.296828254249691,-0.1464049302661584,-1.8803564310073853,0.0299527794122695,2.698941855083406,-0.0465811342000961
2025-04-30 00:15:12.993490700,2.79649072265625,0.1529906584070908,-0.5210148692131042,0.059700629307427,-1.5039750337600708,0.0915034293822984,0.9818017858427436,0.2089110496428625,right,-0.1278755068778991,-0.2985005520753929,1.4283923424348235,-9.263506999406218,-0.1553332998069059,-1.3518807888031006,0.0211601853370666,2.884011422230304,-0.0326733291149139
2025-04-30 00:15:13.033490700,2.83649072265625,0.1388769724827562,-0.3189570307731628,0.0518704028364371,-0.8950597643852234,0.0904940225581308,0.9808903365096868,0.2063086092597303,right,-0.0713598132133483,-0.3181542994428515,1.289415687290579,-9.224818080049753,-0.1642395343720867,-0.8234052062034607,0.0124185234308242,3.067657094053924,-0.0186203122138977
2025-04-30 00:15:13.073491000,2.876490966796875,0.1246145058176301,-0.1168992072343826,0.0440327831327947,-0.2861445546150207,0.0894717297737577,0.9798390469793395,0.2033950138603242,right,-0.0153891444206237,-0.3377708383698516,1.150018468646705,-9.180784877055885,-0.1731223573770426,-0.2949296832084656,0.0037197694182395,3.249773072092235,-0.0044113099575042
2025-04-30 00:15:13.113491000,2.916490966796875,0.1349571162573836,-0.7167892456054688,0.0479755801620249,1.2201361656188965,0.0968304425838757,0.9792408137526628,0.2198169763167569,right,0.2217200398445129,-0.3326772280390977,1.247119537222385,-9.184683638060092,-0.1714928665985685,0.2209100723266601,0.1257131248712539,3.2026024478554724,0.3049077987670898
2025-04-30 00:15:13.153490700,2.95649072265625,0.1498986870142621,-0.8194887638092041,0.0555733710738045,-0.032862901687622,0.0938908180415253,0.9790058001664614,0.2164448751269087,right,0.0645622611045837,-0.3327915824363883,1.384154118388146,-9.164663178816436,-0.1721738400419474,-0.2030119597911834,0.0917493402957916,3.203662478302419,0.1852102279663086
2025-04-30 00:15:13.193490700,2.99649072265625,0.1648404819214926,-0.9221882224082948,0.0631674473325993,-1.2858617305755615,0.0909448802509531,0.9787053776764876,0.2130747445601284,right,-0.092819333076477,-0.3329535872849792,1.5208458774656055,-9.14244725535512,-0.1728433035775827,-0.6269340515136719,0.0578204989433288,3.205163822776079,0.0654676556587219
2025-04-30 00:15:13.233490700,3.03649072265625,0.1379301854385604,-0.3959170579910278,0.05014416385244,-0.4993270635604858,0.0893515618562593,0.9791299219722032,0.2058164113963469,right,0.0101073384284973,-0.3413386866671721,1.2705590111292897,-9.153115364363789,-0.1755179558148057,-0.1866915225982666,0.0459989458322525,3.282764072068036,0.0051073133945465
2025-04-30 00:15:13.273490700,3.07649072265625,0.1266770824265934,-0.2775647044181824,0.0449423658181181,-0.340038001537323,0.0874474884809694,0.979370931751236,0.2001880248125325,right,0.0038002133369445,-0.3447190562885894,1.1660711933031678,-9.155773185396194,-0.1765380498327262,-0.1243110001087188,0.0336579084396362,3.3139828016743063,0.0085588097572326
2025-04-30 00:15:13.313491000,3.116490966796875,0.1153903316777983,-0.1592123806476593,0.0397391409818896,-0.1807489544153213,0.0855406553934277,0.9795809621739728,0.1945127928777599,right,-0.0026150941848754,-0.3480395659357044,1.0613874145135282,-9.157369514676928,-0.1775525501214415,-0.0619304813444614,0.0213368386030197,3.344612040954828,0.0120703876018524
2025-04-30 00:15:13.353491000,3.156490966796875,0.1067180516302232,-0.0931424871087074,0.035822814157242,-0.1120658218860626,0.0836699870002644,0.9797523117127902,0.1893028413173027,right,-0.0015061497688293,-0.3505804455007284,0.9810248609013856,-9.157750038427114,-0.1783295578574774,-0.0287784188985824,0.0110756978392601,3.3680247729852795,0.001120775938034
2025-04-30 00:15:13.393490700,3.19649072265625,0.0996450561680099,-0.0202425364404916,0.0325984639625091,-0.1198332235217094,0.0826904485919429,0.9799295065525716,0.1860788813913962,right,0.0080195665359497,-0.3515039160993735,0.9159183286100624,-9.161360630139708,-0.1784318758496437,0.0256224311888217,0.0004995763301849,3.37652839743644,-0.0090581774711608
2025-04-30 00:15:13.433490700,3.23649072265625,0.0968448421466183,0.0111916530877351,0.0312411809304862,-0.088560551404953,0.0830713801469826,0.9800235031170406,0.1863015820249812,right,0.0087180733680725,-0.3508109961443453,0.8904870232988148,-9.166216253477334,-0.1779804347450783,0.0091486535966396,-0.0016808435320854,3.370148048749566,-0.0078895986080169
2025-04-30 00:15:13.473490700,3.27649072265625,0.0953262735899737,0.024746648967266,0.0304192696348455,-0.0505877323448658,0.0836077151226055,0.9800051520313832,0.187126082647848,right,0.0024624466896057,-0.3508995898309516,0.8765380659885704,-9.167260794094204,-0.1779731919118214,-0.0039071589708328,-0.0072434023022651,3.3709637490466235,-0.0109387040138244
2025-04-30 00:15:13.513490700,3.31649072265625,0.0941120516464616,0.0200449805706739,0.0297081821129785,-0.0390272065997123,0.0842685772502455,0.9799515326549276,0.188272235144145,right,-0.0006672143936157,-0.3511806699371704,0.8653172184679657,-9.167374775862694,-0.1780769651210208,-0.020283980295062,-0.0023375749588012,3.3735523042351003,0.0040618777275085
2025-04-30 00:15:13.553490700,3.35649072265625,0.0926102502044005,-0.0221569780260324,0.0289358287186463,-0.0345719084143638,0.0843837054753096,0.9799126316086328,0.1882793319946742,right,-0.0011559128761291,-0.351894354467998,0.8513258102554827,-9.166264184272288,-0.1783629017782042,-0.0270694550126791,0.0016600862145423,3.3801229147970675,0.0108585059642791
2025-04-30 00:15:13.593491000,3.396490966796875,0.0907429045628272,-0.0622122734785079,0.0281201537196981,-0.0378949902951717,0.0836942189596984,0.979923231355642,0.1865957110838163,right,-0.0044425129890441,-0.3529153638001773,0.8338946368526667,-9.164396052312853,-0.1787598951480856,-0.0213822498917579,0.0034335702657699,3.3895202732175584,0.0122102200984954
2025-04-30 00:15:13.633490700,3.43649072265625,0.0881627806768678,-0.07329922914505,0.027043904917914,-0.0468991510570049,0.0825874548464051,0.979982049699718,0.1839286456580375,right,-0.0015325546264648,-0.3539411232935309,0.8099400530304759,-9.163048729357122,-0.1791177160810949,-0.0070424005389213,0.0069577917456626,3.398957963648438,0.0120694935321807
2025-04-30 00:15:13.673490700,3.47649072265625,0.0847542928342503,-0.1085166633129119,0.0256479829252295,-0.0638586580753326,0.0808841942776282,0.9800409710604568,0.1799321813447556,right,0.0002243518829345,-0.3556810106887286,0.7782014642685652,-9.159850225576758,-0.1797771088854697,-0.0251617729663848,0.005616545677185,3.4149574968129395,0.0032320320606231
2025-04-30 00:15:13.713490700,3.51649072265625,0.0840936100289303,0.04531991481781,0.0254883683169092,0.0505835711956024,0.0800829840141291,0.9801306444381446,0.1781690554472676,right,0.0204079151153564,-0.3555612169157809,0.7721838844794779,-9.160769678509237,-0.1796693658763445,0.0884066596627235,0.0070267766714096,3.41385625757277,-0.0391022861003875
2025-04-30 00:15:13.753490700,3.55649072265625,0.0835634973877743,0.0002564005553722,0.0252487817292578,9.73753631114e-05,0.0800033810422949,0.980142558859057,0.1779128853082945,right,0.0098081827163696,-0.3556204696837695,0.7673106524199247,-9.160976014736294,-0.1796738913836221,-0.0865414217114448,-0.0018356889486312,3.414401031973958,-0.0053721368312835
2025-04-30 00:15:13.793490700,3.59649072265625,0.0826097395165222,-0.0409525111317634,0.0246881129069635,-0.0499321073293685,0.0804712352675361,0.9800840874421288,0.1787180194062926,right,0.0037748217582702,-0.3560611211832098,0.7584487160503863,-9.160203276798129,-0.1798613487927212,-0.1105981618165969,-0.0028614401817321,3.418451768669486,0.0213668942451477
2025-04-30 00:15:13.833491000,3.636490966796875,0.0810267498931699,-0.0420555807650089,0.0237941814653897,-0.0307810753583908,0.0803367694870627,0.9798393191866902,0.1783356582431988,right,0.0030478239059448,-0.3592820598400872,0.7430522633455693,-9.15037044956982,-0.1813691862599686,-0.0879165530204773,0.0003188326954841,3.4480393899425863,0.0159414708614349
2025-04-30 00:15:13.873490700,3.67649072265625,0.0797272163701734,-0.0180083010345697,0.0231384964705404,0.0098146572709083,0.0796580330285373,0.9796325460429112,0.1768888960759721,right,0.0102335214614868,-0.362478818126341,0.7302787795554846,-9.140294461235404,-0.1828641781598129,-0.0407809019088745,0.0043689832091331,3.47736952932328,-0.0012739598751068
2025-04-30 00:15:13.913490700,3.71649072265625,0.0796851217625257,-0.0310832653194665,0.0231197142334421,0.0191739238798618,0.0790012517288328,0.9794743922739012,0.1756715211114458,right,0.0020453929901123,-0.3648232554028876,0.7292430798321962,-9.132173114100098,-0.1839951933128028,-0.0574188642203807,0.0058329403400421,3.498856846249103,0.0024362802505493
2025-04-30 00:15:13.953490700,3.75649072265625,0.0812710581853554,-0.0158106163144111,0.023843308896374,0.0286616142839193,0.0786914619345864,0.9793221199589924,0.175428770048306,right,-0.0048545002937316,-0.3664379856535905,0.743265613835305,-9.12536226504147,-0.1848445490105435,-0.0306675061583518,0.0060542076826095,3.513645250058174,0.0088924467563629
2025-04-30 00:15:13.993490700,3.79649072265625,0.0806107124901411,-0.0609180182218551,0.0235061364029517,-0.0289128813892602,0.0778517796060046,0.9790752229277612,0.1737909694354433,right,-0.0090410709381103,-0.3700053221549312,0.7362255591306835,-9.113299486804008,-0.1865435742308813,-0.1267646104097366,0.0088947787880897,3.5462840755954383,0.0117473304271698
2025-04-30 00:15:14.033490700,3.83649072265625,0.0804561720328608,0.0118372067809104,0.0232381990463426,-0.0477624423801898,0.078400567324293,0.978873402906126,0.1749813626093648,right,-0.0101664066314697,-0.3717489611647734,0.7343190679222344,-9.1072356567204,-0.1874038344877489,-0.0800709873437881,0.0054702460765838,3.5622204803958533,0.0218544602394104
2025-04-30 00:15:14.073491000,3.876490966796875,0.0789082221114619,0.0445510596036911,0.022140404856995,-0.0751578956842422,0.0793597774820822,0.978497705755214,0.1768430564004049,right,-0.0001618266105651,-0.3752759698727858,0.7192258359476924,-9.095780196726322,-0.1890875268457151,-0.0905090719461441,0.0062037408351898,3.594423837125301,0.0105904936790466
2025-04-30 00:15:14.113491000,3.916490966796875,0.0761052389566216,0.0271878782659769,0.0204408214537892,-0.0775337964296341,0.0803628640111074,0.9781358296249436,0.1785466186663426,right,0.001304805278778,-0.3788110570622787,0.6927572965431958,-9.085033761784434,-0.1907206713314523,-0.0722065567970275,0.0097127705812454,3.626656127688289,-0.0124028325080871
2025-04-30 00:15:14.153490700,3.95649072265625,0.0750583999873494,-0.0011777859181165,0.0197059043082977,-0.0206943340599536,0.0809886175095582,0.9778873250281582,0.1797470720165078,right,-0.0004082918167114,-0.3810917618492294,0.682624317324534,-9.077482323491571,-0.1918043250309264,-0.0620652213692665,0.0047994181513786,3.647427113038301,-0.0041901171207427
2025-04-30 00:15:14.193490700,3.99649072265625,0.0754240616081746,-0.0062177651561796,0.0198633245209511,0.0094892680644989,0.0809892956253493,0.9778551222145456,0.1798351508494546,right,-0.0104472637176513,-0.381363159953353,0.685868925268948,-9.076244890651106,-0.19195250279634,0.020854078233242,0.001188188791275,3.649897594805062,-0.0117008686065673
2025-04-30 00:15:14.233490700,4.03649072265625,0.0766926894073979,-0.0059025906957685,0.020546876523448,0.0085178297013044,0.080914245314371,0.9779678383227202,0.1798545739372053,right,-0.0067129135131835,-0.3799964201979467,0.697764311050251,-9.080332452225685,-0.1913366678968767,-0.0029110200703144,-0.0036233887076377,3.6374540005564686,0.0134670138359069
2025-04-30 00:15:14.273490700,4.07649072265625,0.0784297686938793,-0.000403038226068,0.0212982601818903,0.0725204795598983,0.080867362850244,0.9778069304001974,0.1801779656015804,right,0.0081624388694763,-0.3813984743401309,0.7131362138357012,-9.074013770598173,-0.1920949200357939,-0.0371676720678806,0.0048561096191406,3.650219081844389,0.0174772143363952
2025-04-30 00:15:14.313491000,4.116490966796875,0.0801278493054643,-0.0107213882729411,0.022156480634308,0.033033475279808,0.0803465800810121,0.9777426890483948,0.1794919848415032,right,-4.11868095397e-05,-0.3821917871628877,0.7283115711357444,-9.069900490060448,-0.1925431972956113,0.0047183595597743,0.0015960559248924,3.657438511703908,0.0050868093967437
2025-04-30 00:15:14.353491000,4.156490966796875,0.0803336680656019,-0.0142572028562426,0.022349186685639,-0.0088835842907428,0.0799227473838884,0.977795875709962,0.1786520003924046,right,-0.0013497471809387,-0.3819558487661666,0.7302475076343864,-9.070610099634528,-0.1924269229085227,0.0200190879404544,0.0032271221280097,3.6552915628030895,0.0046784281730651
2025-04-30 00:15:14.393490700,4.19649072265625,0.0793588616756651,-0.0022403392940759,0.0219535757298804,-0.0374230332672596,0.0797135326699277,0.977869831128039,0.1780092605543181,right,-0.0009638667106628,-0.3815515114554713,0.7215222032565624,-9.072790366283058,-0.1921834780077718,0.0214850418269634,0.0019261240959167,3.651611997507513,3.72529029846e-05
2025-04-30 00:15:14.433490700,4.23649072265625,0.0780265738114513,0.0217818487435579,0.0212961409726284,-0.0460994392633438,0.0800787619111294,0.977937685873094,0.1784512005470043,right,0.0004622936248779,-0.3807828775198458,0.7096525364384054,-9.076538905161618,-0.1917597250624553,0.0193731691688299,0.0047973543405532,3.644615270487964,0.0030409097671508
2025-04-30 00:15:14.473490700,4.27649072265625,0.076821451630464,0.0434198379516601,0.0206300501273678,-0.0467355512082576,0.0809026288687249,0.9780026875923036,0.1798346091266014,right,-0.0030067563056945,-0.3796124826632889,0.6990406145963818,-9.081634182474016,-0.1911541876350494,0.037695612758398,0.0064314529299736,3.633957098351418,0.0027513206005096
2025-04-30 00:15:14.513490700,4.31649072265625,0.0757001189326056,0.0557465143501758,0.0200066853198571,-0.0488740429282188,0.0820356300048939,0.978150007426143,0.1818025571748184,right,-0.0123654603958129,-0.3772621862726998,0.6895007059000432,-9.090904115122555,-0.1899806220467254,0.0830673649907112,0.0048184841871261,3.612539339530468,-0.0036497116088867
2025-04-30 00:15:14.553490700,4.35649072265625,0.0737070895435848,0.0757326781749725,0.0189379649643009,-0.1079740896821022,0.0837260183583078,0.9783847609533708,0.1846723540629148,right,-0.0088251829147338,-0.3735950286846745,0.672351929635182,-9.105410779380795,-0.1881345902933641,0.0934446677565574,0.0060203447937965,3.5790815988257525,0.0028122961521148
2025-04-30 00:15:14.593491000,4.396490966796875,0.0705265072975017,0.0595396012067794,0.0172715882873786,-0.1038416549563407,0.0854033428100772,0.9785585996130732,0.1873388689553796,right,0.0087851881980896,-0.3707434689079765,0.644104617055133,-9.117646576097608,-0.1866309239165991,0.055905807763338,0.0019066110253334,3.55303179628998,0.0001023411750793
2025-04-30 00:15:14.633490700,4.43649072265625,0.0669834834156975,0.0915720611810684,0.0153508562845024,-0.1230555176734924,0.0875227027917772,0.9786882541346484,0.1908507153447956,right,0.0152361989021301,-0.3679300766251702,0.6124632781226188,-9.129808723056316,-0.1851314286370128,0.067372515797615,0.002948272973299,3.527302311749756,-0.0005296468734741
2025-04-30 00:15:14.673490700,4.47649072265625,0.0639913476961683,0.1035346761345863,0.0136848961154216,-0.1196344196796417,0.089825402359517,0.9788252879462228,0.1948268086447344,right,-0.0004236698150634,-0.3646541951874688,0.5858787476556375,-9.143083215171098,-0.1834263763261233,0.1036472916603088,-0.0013525672256946,3.497308155502379,-0.0143230557441711
2025-04-30 00:15:14.713490700,4.51649072265625,0.0616779681128085,0.1690052598714828,0.0123377581267733,-0.0798407196998596,0.0928314279821655,0.979072962388974,0.2002671233117399,right,0.0039027333259582,-0.3591868576485388,0.5658959170086308,-9.163361448568104,-0.1806830423035087,0.1517225205898285,-0.0015484541654586,3.44716523745656,-0.0100805163383483
2025-04-30 00:15:14.753490700,4.55649072265625,0.0608509762823954,0.1529577523469925,0.0115587645003259,-0.0887015461921691,0.0964003569491877,0.9791559195257304,0.2071765799673391,right,-0.0144402384757995,-0.3545177061734173,0.5592904177963733,-9.179792358887196,-0.178401945387245,0.0570432022213935,-0.0100735388696193,3.40426103849262,0.0159164667129516
2025-04-30 00:15:14.793490700,4.59649072265625,0.0579859593714226,0.0913689583539962,0.0097635294864317,-0.1204114407300949,0.0992024305743222,0.9790233585614336,0.2123208439805555,right,-0.0007732510566711,-0.3533108591285045,0.5332256003545597,-9.18545169982314,-0.1776991232023548,0.003352478146553,-0.0112803131341934,3.393159506502748,0.0084267258644104
2025-04-30 00:15:14.833491000,4.636490966796875,0.0546212906883816,-0.0081351026892662,0.0078905418544529,-0.0848944634199142,0.1004785016575252,0.9788658169858776,0.2143556189938984,right,0.0045887827873229,-0.3541342993259302,0.5021639244735241,-9.184400729465484,-0.177942761659306,-0.0413299985229969,-0.0075352787971496,3.4007349101930853,0.00547456741333
2025-04-30 00:15:14.873490700,4.67649072265625,0.0511268285909955,-0.1048247367143631,0.0062328312031191,-0.0259080417454242,0.0996566319685554,0.9787609999301572,0.2121588837117201,right,0.0064339637756347,-0.3567594992257603,0.4696085394360125,-9.17715207351148,-0.1790436585488266,-0.076562725007534,0.0021468251943588,3.4248698190182445,-0.0055270791053771
2025-04-30 00:15:14.913490700,4.71649072265625,0.0474069824165691,-0.1015056446194648,0.0046170879884655,-0.0515740253031253,0.0976074423961511,0.9786479824073632,0.2074647305367813,right,0.0045459270477294,-0.3608155004726557,0.4348058869283646,-9.16488412809074,-0.1808304267808606,-0.0889701098203659,0.0050475485622882,3.46211292348057,-0.0038745105266571
2025-04-30 00:15:14.953490700,4.75649072265625,0.0436610717984987,-0.0981865525245666,0.0030013040966448,-0.0772400051355362,0.0955572420453843,0.9785251206533164,0.2027471611137122,right,0.0026360750198364,-0.3648550294870117,0.3998584191225469,-9.152401663136482,-0.1826153746421196,-0.1013774946331977,0.0079630315303802,3.499147938150167,-0.0022007524967193
2025-04-30 00:15:14.993490700,4.79649072265625,0.0410762993297444,-0.0362101234495639,0.0017248786031664,-0.042646799236536,0.0952287909176139,0.978388732361534,0.2016773160839212,right,0.0045536756515502,-0.3669861034750687,0.3758931677758693,-9.14593334390521,-0.1835325571637342,-0.0837097764015197,0.0036549642682075,3.518663078220188,-0.0029182732105255
2025-04-30 00:15:15.033490700,4.83649072265625,0.0384869705570281,0.0257663093507289,0.0004484575134205,-0.0080535970628261,0.0949000951848295,0.9782495892264412,0.200600650362977,right,0.0064617991447448,-0.3691144245006977,0.3519211578948423,-9.13937208569348,-0.1844492271280765,-0.0660420656204223,-0.0006524138152599,3.5381370094969866,-0.0036316215991973
2025-04-30 00:15:15.073491000,4.876490966796875,0.0386180945112625,0.054773636162281,0.000192923008877,-0.0219340547919273,0.0957263774454447,0.977895956442045,0.2024274771317618,right,-0.007885456085205,-0.3720549478523717,0.3527163268605247,-9.128890439167618,-0.1858927242837585,-0.1137265115976333,-0.0042611174285411,3.5650162485942243,0.0033058226108551
2025-04-30 00:15:15.113491000,4.916490966796875,0.0387385647935621,0.0777555555105209,-0.0002748275129471,-0.0268294606357812,0.0969598124434218,0.9772863788523772,0.205175503225359,right,0.0112747550010681,-0.3772615631243035,0.3530924301639199,-9.110176386347412,-0.1884415386615298,-0.1412523984909057,-0.0135138146579265,3.612533786572516,-0.0082979500293731
2025-04-30 00:15:15.153490700,4.95649072265625,0.0388496643420642,0.0571637824177742,-0.0007974528513539,-0.0214457027614116,0.0983715760054698,0.9766370254220678,0.20829758330358,right,0.0100523233413696,-0.3826105101699464,0.3533489987408742,-9.090698363417388,-0.1910569577880831,-0.1461017876863479,-0.0121884457767009,3.661248133119941,-0.0007966458797454
2025-04-30 00:15:15.193490700,4.99649072265625,0.0382607467774472,-0.0090462267398834,-0.0014663262471763,0.0152292139828205,0.0989222782722388,0.9761061230309088,0.2095082168140185,right,0.0058802962303161,-0.3876111076189024,0.3472905754847452,-9.072495767250656,-0.1934665251095424,-0.115576721727848,-0.0029797367751598,3.706695586825907,0.0156048536300659
2025-04-30 00:15:15.233490700,5.03649072265625,0.0379004195153126,-0.0861084014177322,-0.0015945309502808,0.0223314929753541,0.0978115724476562,0.9759122850640224,0.2072865900161168,right,-0.0105566978454589,-0.3907924659844196,0.3435729066684841,-9.060790716409684,-0.195001811792628,-0.0291473343968391,-0.0013024434447288,3.735560739043355,0.0206462144851684
2025-04-30 00:15:15.273490700,5.07649072265625,0.0365704925401229,-0.1341379135847091,-0.0017388492045524,0.0193544309586286,0.0954931661745535,0.976181417760369,0.202259326606854,right,-0.0096676349639892,-0.3905073402355406,0.331561383694224,-9.06230345906019,-0.1948026803228187,0.0483382865786552,0.0076719708740711,3.732975106464326,0.0166458785533905
2025-04-30 00:15:15.313491000,5.116490966796875,0.034149268079632,-0.1410500854253769,-0.0022716542127534,-0.0190534424036741,0.0927444364295411,0.976564999293852,0.1961086642613165,right,0.0012676119804382,-0.3894957944622119,0.3097473190320655,-9.066849285796284,-0.1942014388399388,0.0282392464578151,0.0083187483251094,3.723800158622861,0.0065910816192626
2025-04-30 00:15:15.353491000,5.156490966796875,0.0306484041700938,-0.1187833622097969,-0.0034612797034051,-0.0424104481935501,0.0902645964619397,0.9767477151480652,0.1903616725683275,right,0.0129920244216918,-0.3902818815815506,0.2779138915935531,-9.064949005132911,-0.194433141189901,-0.0408684201538562,0.0082795955240726,3.7309304488942026,-0.0173139572143554
2025-04-30 00:15:15.393490700,5.19649072265625,0.0274333283313869,-0.0510289371013641,-0.004895202517838,-0.0584988072514534,0.0888611337653098,0.97649931873757,0.1869803952247007,right,0.0151285529136657,-0.3943628738308699,0.2483482994891703,-9.05050020854175,-0.1962879295627267,-0.1519219130277633,0.0057358648627996,3.767910810767114,-0.0280635356903076
2025-04-30 00:15:15.433490700,5.23649072265625,0.0255038510530099,-0.0152156725525856,-0.0061667781411032,-0.0686681196093559,0.0885344124245491,0.9756783484651655,0.1861976751083528,right,-0.0066978335380554,-0.4030415990674474,0.2300425169426016,-9.017931817892194,-0.200438029289978,-0.2866110205650329,-0.0012482516467571,3.8463442960128185,-0.0183843672275543
2025-04-30 00:15:15.473490700,5.27649072265625,0.0228198628270438,-0.0354861132800579,-0.0079596166982899,-0.0659950375556945,0.0883266234153916,0.9745177199995751,0.1855802421228837,right,-0.0054934620857238,-0.4147657467081649,0.2047946053742431,-8.972814911314845,-0.2060349698831279,-0.3223530650138855,7.45765864849e-05,3.951839391185343,0.0066122710704803
2025-04-30 00:15:15.513490700,5.31649072265625,0.0198232738782702,-0.0743175148963928,-0.0096845549392744,-0.0572055466473102,0.0875963585047329,0.973563496714846,0.1837403843387887,right,-0.0121442675590515,-0.4246644148728076,0.1771217864802107,-8.933838991710543,-0.2107301503058446,-0.2100520431995391,0.0062321703881025,4.040486519670486,0.0395818650722503
2025-04-30 00:15:15.553490700,5.35649072265625,0.0164033340408165,-0.079932227730751,-0.0111827058799101,-0.0486870557069778,0.0862927163701478,0.9732649304644876,0.1804348615219249,right,-0.0102023482322692,-0.428706803776839,0.1462985315980855,-8.917988511627913,-0.212565457779918,-0.0365318059921264,0.0045391116291284,4.076574316617847,0.0330355763435363
2025-04-30 00:15:15.593491000,5.396490966796875,0.0132337684926807,-0.0371709279716014,-0.0124209123584598,-0.0576053224503994,0.0853500106528917,0.973415746190378,0.1777918790808474,right,-0.0056878924369812,-0.4281744627808582,0.1180603978383354,-8.920576190033554,-0.2121860620847998,0.0534869134426116,0.0004256200045347,4.071825953046977,0.0084730684757232
2025-04-30 00:15:15.633490700,5.43649072265625,0.0101578835484277,-0.0037280768156051,-0.0139507730943502,-0.0819869190454483,0.085929455334312,0.9734242371899592,0.1783004192087608,right,0.0070326328277587,-0.4276953253004547,0.0906410239824093,-8.922847057574987,-0.2118178520660607,0.0155334919691085,-0.000714436173439,4.067550759945809,0.0040913224220275
2025-04-30 00:15:15.673490700,5.47649072265625,0.0070823729846228,0.0297147780656814,-0.0154806058008015,-0.1063685119152069,0.0865086554107218,0.9734299733462326,0.1788104479237162,right,0.0197436809539794,-0.4272175649540563,0.0632120877136942,-8.92502557065785,-0.2114490268057888,-0.0224199295043945,-0.0018535237759351,4.063287257282435,-0.0002915561199188
2025-04-30 00:15:15.713490700,5.51649072265625,0.0031808629423996,0.0197241529822349,-0.0175854635704494,-0.0982471331954002,0.0873434728878064,0.9730965197091234,0.1797309126380022,right,0.0358463525772094,-0.4296879224817709,0.0283586069178185,-8.91513955193758,-0.2124738682453204,-0.099345363676548,-0.0050666248425841,4.08532314800173,-0.0109589397907257
2025-04-30 00:15:15.753490700,5.55649072265625,0.0011699795998867,0.0175748225301504,-0.0188089585203328,-0.0058362185955047,0.0878290054640051,0.972621654009456,0.1803718848323948,right,0.0253244638442993,-0.4337071821056066,0.010411961698468,-8.898686429786682,-0.2143349810003783,-0.102473683655262,-0.005612822715193,4.12112248339653,-0.0161874890327453
2025-04-30 00:15:15.793490700,5.59649072265625,0.0022233500359678,0.0687838494777679,-0.0185855673749947,0.0346250087022781,0.0884617854027185,0.972275305910558,0.1819619033983975,right,-0.0162262916564941,-0.4363702692823568,0.0197610936381272,-8.887664100512861,-0.2156613636163682,-0.0413065068423748,-0.0060961451381444,4.144805849061906,0.0018626451492309
2025-04-30 00:15:15.833491000,5.636490966796875,0.0040037565562489,0.0984800457954406,-0.0181227766506982,-0.0090149529278278,0.0900403355288796,0.9721066843017198,0.1856089193289809,right,-0.0449115633964538,-0.4365762931163275,0.0355812881803489,-8.886761014193295,-0.2158074906980762,0.0435818322002887,0.0009063743054866,4.1466368638813496,0.0327471196651458
2025-04-30 00:15:15.873490700,5.67649072265625,0.0043001161392255,0.1414724588394165,-0.018340720313085,-0.0625278204679489,0.0925764661767666,0.9723257656773682,0.1907947863235914,right,-0.0274304151535034,-0.4323494050849303,0.0382899877333315,-8.904197886684537,-0.2137191850926245,0.1466105431318283,0.0027555220294743,4.109036324283481,0.0367093086242675
2025-04-30 00:15:15.913490700,5.71649072265625,0.0030990815255492,0.1194909214973449,-0.019254040770629,-0.0587650164961814,0.0955566649067191,0.9726679543961672,0.1965262178487672,right,0.0066427588462829,-0.4264689969016842,0.0276701177635812,-8.928246286270022,-0.2107496930257472,0.1354459375143051,0.0024659382179379,4.056604710778593,0.0084523856639862
2025-04-30 00:15:15.953490700,5.75649072265625,0.0018643248052656,0.0975093767046928,-0.0201669957725336,-0.055002212524414,0.0985350496187316,0.972991920582976,0.202250132259925,right,0.040680706501007,-0.4205948832423092,0.0166900247628684,-8.951948064374923,-0.207776262975555,0.1242813318967819,0.0022130799479782,4.004089510643482,-0.0197959840297698
2025-04-30 00:15:15.993490700,5.79649072265625,0.0014525412070642,0.0454567074775695,-0.0206107467485026,-0.0297298394143581,0.1004257542546162,0.9730986301076264,0.205983829131244,right,0.0329157710075378,-0.4177274071862714,0.0130203803563956,-8.963398848193883,-0.2063226740366851,0.0129440799355506,-0.0006202413933351,3.978403280723095,-0.0310360789299011
2025-04-30 00:15:16.033490700,5.83649072265625,0.0004350917701837,-0.0071411021053791,-0.0213559129059297,-0.0285812616348266,0.1009103506072501,0.972712551816024,0.2068357657138112,right,0.0227656960487365,-0.4209399627786147,0.0038949901530344,-8.950580283153057,-0.2078252595506111,-0.1525589227676391,-0.0023934687487781,4.0071784165695306,-0.0369016528129577
2025-04-30 00:15:16.073491000,5.876490966796875,-0.0007843267594904,-0.0339706428349018,-0.0222401007219087,-0.0064416341483592,0.1005263340929552,0.9719442495597008,0.2059526079135868,right,0.0006805658340454,-0.4285666639550249,-0.0069953382092382,-8.919757274866104,-0.211481311750921,-0.229118525981903,-0.0003190510324202,4.075324608817696,-0.0042846500873565
2025-04-30 00:15:16.113491000,5.916490966796875,-0.0019862854314491,-0.0615703016519546,-0.0230035803613755,-0.0158651359379291,0.0995374174414474,0.9711673448475387,0.2038311170734306,right,-0.0300145745277404,-0.4367082500387931,-0.0176500174849992,-8.8862676777184,-0.2154003194161872,-0.178618922829628,0.0019754553213715,4.147809707053005,0.0407823622226715
2025-04-30 00:15:16.153490700,5.95649072265625,-0.0039308327334338,-0.0629151687026023,-0.0237570817392874,-0.0268275700509548,0.0982669600729556,0.9710007913546514,0.2008389260142165,right,-0.0287006497383117,-0.4394057906403349,-0.0348856294998084,-8.874995173075794,-0.2166490024186266,0.0277915447950363,0.0024889484047889,4.171765459918976,0.044097363948822
2025-04-30 00:15:16.193490700,5.99649072265625,-0.0061597234066331,-0.0492921434342861,-0.024336130345718,-0.0299978572875261,0.0973305536004792,0.971615636414944,0.1983217233842146,right,-0.0046790242195129,-0.4346024777325518,-0.0547897163717774,-8.894830923402308,-0.2142372731372457,0.2067282795906067,0.0021297303028404,4.129088055448234,0.0219530463218688
2025-04-30 00:15:16.233490700,6.03649072265625,-0.0087467997066244,-0.0705347582697868,-0.0248991715849975,-0.0044807903468608,0.0965338572465592,0.9726875153953208,0.1959525287962783,right,0.0410418510437011,-0.4253016984861053,-0.0781336437826044,-8.932676377671957,-0.2096194252396789,0.2776248455047607,0.0072664720937609,4.046180055136978,-0.0010674893856048
2025-04-30 00:15:16.273490700,6.07649072265625,-0.0105411114446687,-0.0937926173210144,-0.0250597506200543,-0.0081934826448559,0.0953265437765146,0.9736993443836744,0.19295193262571,right,0.0374114513397216,-0.4167590290675443,-0.0945224228598643,-8.966758680015802,-0.2054131521553039,0.1741265207529068,0.0074943378567695,3.9697216693565247,-0.0093334317207336
2025-04-30 00:15:16.313491000,6.116490966796875,-0.0123702419108786,-0.116229310631752,-0.0253883574266426,0.0009878883138298,0.0933509083418071,0.9741197348020172,0.1884774900230393,right,0.0147495865821838,-0.4145020840867991,-0.1110341707296669,-8.97550663461685,-0.2042840129264489,-0.0301171839237213,0.0031706616282463,3.9494729543149454,-0.0120335221290588
2025-04-30 00:15:16.353491000,6.156490966796875,-0.0149090057055124,-0.0955012217164039,-0.0263317462852081,-0.0227223820984363,0.0912629183242356,0.9738536806519216,0.1837114112004401,right,-0.0019304752349853,-0.4188892198750185,-0.1335608680400531,-8.957784515443445,-0.206365568376086,-0.1382147669792175,-0.0015454199165105,3.988814492361248,-0.0236717462539672
2025-04-30 00:15:16.393490700,6.19649072265625,-0.0174434383541241,-0.0464862138032913,-0.0274374663786307,-0.0432784482836723,0.0900019266186931,0.9735015775892594,0.1806315313053292,right,-0.0183615088462829,-0.4232721980001012,-0.1559568699091672,-8.93985138386786,-0.2084265871787911,-0.0650972574949264,-0.000882675871253,4.028042340900004,-0.0070209801197052
2025-04-30 00:15:16.433490700,6.23649072265625,-0.0191399520441379,0.0157871656119823,-0.0281788937861388,-0.0179926548153162,0.0898646738428683,0.9735480774095904,0.179982565863689,right,-0.0112723112106323,-0.4228823894413203,-0.17115325173093,-8.941142592722176,-0.2081695134899675,0.0663937479257583,-0.0012107379734516,4.024556544610857,0.0017065107822418
2025-04-30 00:15:16.473490700,6.27649072265625,-0.0181800024276718,0.0795035064220428,-0.0277277978130074,0.0010454300791025,0.0909512221677872,0.974008345743565,0.1823647024902314,right,-0.0154625177383422,-0.4175637535967008,-0.1629569579295814,-8.962578179460763,-0.2055890912415086,0.1635365486145019,-0.0071409232914447,3.976936423040926,0.0089823007583618
2025-04-30 00:15:16.513490700,6.31649072265625,-0.0162641232631019,0.0958547890186309,-0.026936012543356,0.0067520253360271,0.0928309109054045,0.974507211447576,0.1865545319975401,right,-0.0027727484703063,-0.4110920971997436,-0.146200971241435,-8.988419892203808,-0.2024662728839839,0.1484652757644653,-0.0072856461629271,3.918841376946866,0.0127882957458496
2025-04-30 00:15:16.553491000,6.356490966796875,-0.0143010163968255,0.0544981509447097,-0.0262002127603907,0.0244934204965829,0.0942024847213047,0.9746128741623238,0.1897491221256543,right,0.0098938941955566,-0.4088409650957709,-0.1286813067044131,-8.997487580278515,-0.2014183505897395,0.0655845925211906,-0.0055966293439269,3.898594707731904,0.0074295103549957
2025-04-30 00:15:16.593491000,6.396490966796875,-0.0123475795819418,0.0131415165960788,-0.0254643013020516,0.0422348156571388,0.0955738081219266,0.9747150049059622,0.192935953270322,right,0.0225545763969421,-0.4065840420243227,-0.1112134088872466,-9.006497400686145,-0.2003697079611916,-0.0172960832715034,-0.0039023095741868,3.878275850063562,0.0020780861377716
2025-04-30 00:15:16.633490700,6.43649072265625,-0.0110099028451963,-0.0419152490794658,-0.024882207767868,0.0566306933760643,0.0953266731874505,0.9745457652502646,0.1927319588383101,right,0.0240657925605773,-0.408523219258858,-0.0990825429827906,-8.99910086069405,-0.2013813231088206,-0.0796371698379516,-0.0008067619055509,3.895735226647556,-0.0069077312946319
2025-04-30 00:15:16.673490700,6.47649072265625,-0.0092993469454902,-0.0763261318206787,-0.0239438742356379,0.0882231667637825,0.0938821088366052,0.9743495546965538,0.1901716624379795,right,0.0023509860038757,-0.4118511368294131,-0.083567916391557,-8.986243132686614,-0.2031152759636192,-0.0818587467074394,0.003626462072134,3.9256636241823433,-0.001662790775299
2025-04-30 00:15:16.713490700,6.51649072265625,-0.0073737981815777,-0.0763961002230644,-0.0227591323081935,0.0668312087655067,0.092006672619317,0.974304507017732,0.1867591476596488,right,-0.026478111743927,-0.4140631541880712,-0.0662001362143084,-8.977682225090264,-0.204322387787577,-0.0257377997040748,0.0069191390648484,3.9455326922565694,0.0124247074127197
2025-04-30 00:15:16.753490700,6.55649072265625,-0.0071951329129118,-0.0462542995810508,-0.0223785416139076,0.0009852349758148,0.090726672833592,0.9744893337641746,0.1841593731654852,right,-0.0319925546646118,-0.4134372584801728,-0.0646138853695942,-8.980161182424425,-0.2040549205334744,0.0378250628709793,0.0069921584799885,3.939912514287233,0.0194892883300781
2025-04-30 00:15:16.793490700,6.59649072265625,-0.0087572135835923,0.0136688798666,-0.0229514405977857,-0.0743140652775764,0.0906884295786412,0.9748180385468768,0.1837063581132058,right,-0.0180082321166992,-0.4102423872466431,-0.0787513646889943,-8.99259045588672,-0.2024320123596709,0.107704147696495,0.0053527643904089,3.9112013835877177,0.0112470388412475
2025-04-30 00:15:16.833491000,6.636490966796875,-0.011146363926404,0.0484461486339569,-0.0240927721541459,-0.0809811651706695,0.0917751005893693,0.975148577732356,0.1853811658444832,right,0.002574861049652,-0.4059398969639206,-0.1004224041512701,-9.009120150405169,-0.2002054986784915,0.1110061407089233,0.0043359859846532,3.8724733012646433,0.003445953130722
2025-04-30 00:15:16.873490700,6.67649072265625,-0.013423170675625,0.0429702140390872,-0.025261629204118,-0.0742807835340499,0.0931462362159541,0.9753931241659712,0.1876786332693714,right,0.0211414694786071,-0.4021569328299045,-0.1211299232104793,-9.023452042618391,-0.1982267665544669,0.0806977897882461,4.60566952824e-05,3.838362357348204,-0.0039573311805725
2025-04-30 00:15:16.913490700,6.71649072265625,-0.0146180043177138,0.0108122862875461,-0.0259059991313296,-0.0148431621491909,0.0939039560518548,0.9754629223149826,0.1889720883970327,right,0.0277361273765563,-0.4006954717386189,-0.1319932168645318,-9.028900371152162,-0.1974413683755461,0.0081367045640945,-0.0049221161752939,3.825169698297977,-0.0124358832836151
2025-04-30 00:15:16.953490700,6.75649072265625,-0.0143393677386623,-0.0221556462347507,-0.025815129854643,0.0412305556237697,0.0937866404067141,0.9753394977479448,0.1888043247015157,right,0.0183324813842773,-0.4020499276966527,-0.12940301770824,-9.023747810694577,-0.1981173752892151,-0.0653239414095878,-0.000926992855966,3.837396727186441,-0.0046439170837402
2025-04-30 00:15:16.993490700,6.79649072265625,-0.0123068890562489,-0.019903402775526,-0.0248597794011717,0.0851993411779403,0.0930535484276786,0.975105312897818,0.1877545579495603,right,2.31266021728e-05,-0.4051376431054166,-0.1109158415796235,-9.01210121204257,-0.1997315973059713,-0.067648597061634,0.0036435625515878,3.865243934533,-0.0007879436016082
2025-04-30 00:15:17.033490700,6.83649072265625,-0.0096294546953579,-0.00791004486382,-0.0235782300840422,0.0563988164067268,0.0924730639154006,0.9749767018379872,0.1871399033450732,right,-0.0180540084838867,-0.4070214674737835,-0.0867159046942368,-9.005068829187751,-0.2007818169233897,-0.0328906551003456,0.0070154559798538,3.88221552760005,0.0096353888511657
2025-04-30 00:15:17.073491000,6.876490966796875,-0.0087303630898926,0.0114937983453273,-0.0231722065019814,-0.0189132317900657,0.0924052793096945,0.9749251336019096,0.1871948991759469,right,-0.0200628042221069,-0.4076117524039573,-0.078599462062912,-9.0028499840945,-0.2011105262055344,-0.0097062774002552,0.0048510171473026,3.88753058514297,0.0075110495090484
2025-04-30 00:15:17.113491000,6.916490966796875,-0.0101568603720894,0.0166161358356475,-0.0239522057104792,-0.0639405846595764,0.0928898717477796,0.9748448630987918,0.1878991991481212,right,-0.0035115480422973,-0.4079164787875746,-0.091429881938314,-9.00154357767105,-0.2011847236928628,-0.0253608264029026,0.0045472495257854,3.8902740386322137,0.0040628314018249
2025-04-30 00:15:17.153490700,6.95649072265625,-0.0120836093123548,0.00721091683954,-0.0250503906120145,-0.0523887500166893,0.0934632272049442,0.9746094089999304,0.1887013697609527,right,0.0097757577896118,-0.4096390692535853,-0.1086922837786376,-8.994636867022514,-0.2019248432200398,-0.0730668306350708,0.0005746539682149,3.905774974624813,0.0020158886909484
2025-04-30 00:15:17.193490700,6.99649072265625,-0.0135201198753613,-0.0154716959223151,-0.0258974367654804,-0.0263949669897556,0.0935217168147193,0.9742371226322438,0.1885696362630386,right,0.0133911371231079,-0.4131712262898455,-0.1214257826182059,-8.98062061662972,-0.2035807103441878,-0.0950766801834106,-0.0038346825167536,3.937523281063139,-0.0044353306293487
2025-04-30 00:15:17.233490700,7.03649072265625,-0.0141880121391057,-0.0407969318330287,-0.0262787742956234,5.70584088563e-05,0.0930365387879514,0.9738984975731776,0.1874810881067717,right,0.0053784251213073,-0.4168719713265897,-0.1272162299873773,-8.965905862578749,-0.2053666388447663,-0.1020502671599388,-0.0020056245848536,3.970734353530407,0.0048524737358093
2025-04-30 00:15:17.273490700,7.07649072265625,-0.0141367678563556,-0.0306750647723674,-0.0262459438961954,0.0255092196166515,0.0923019036583403,0.9736376809678532,0.1860237107892925,right,0.0004893541336059,-0.4200442195464065,-0.1265780782143119,-8.953272590976953,-0.2069331003444968,-0.0672633200883865,0.0004336042329668,3.99915936076492,0.0077608227729797
2025-04-30 00:15:17.313491000,7.116490966796875,-0.0137278932699412,-0.005797516554594,-0.0260576846020002,0.0142735168337821,0.0918821322181287,0.973470362911285,0.1852741202367035,right,-0.0043773651123046,-0.4220288975053219,-0.1228081038220785,-8.9453692705065,-0.2079281098758113,-0.0270746499300003,-0.0002212543040513,4.016922396470606,0.0035288631916046
2025-04-30 00:15:17.353491000,7.156490966796875,-0.0134788975106957,0.0170987546443939,-0.0260112068177112,-0.0043392069637775,0.0920513202453433,0.9733795815451528,0.1856844192255445,right,-0.0033932328224182,-0.4227474737061537,-0.1205418028579093,-8.942511542987823,-0.2082840417945761,-0.0057546757161617,-0.0014663618057966,4.023350091430545,0.0064706206321716
2025-04-30 00:15:17.393490700,7.19649072265625,-0.0134141567524366,0.0219155047088861,-0.026084118806272,-0.0021571514662355,0.0925577061103394,0.973344032054796,0.1867372161565522,right,0.0014041066169738,-0.422631242349427,-0.1199691358027979,-8.942986759284139,-0.2082167308119816,0.0132467467337846,0.0005034189671278,4.022310519249737,0.0025678277015686
2025-04-30 00:15:17.433490700,7.23649072265625,-0.0128069561814262,0.0144530329853296,-0.0258630819393918,0.0105799613520503,0.0929372068187753,0.9733554946429968,0.1876409239102621,right,-0.0001682639122009,-0.4221964430346763,-0.1145613128093537,-8.944805791404843,-0.2080214950944205,0.0156336855143308,0.0014472473412752,4.018421402856707,0.0008323192596435
2025-04-30 00:15:17.473490700,7.27649072265625,-0.0121232628051884,0.0059396047145128,-0.025568023268351,0.0104871625080704,0.0931052382302978,0.9733717155623256,0.188128261546289,right,-0.0011612772941589,-0.4219091655979844,-0.1084597719307057,-8.946036209982633,-0.2079071677355166,0.0087224505841732,0.002421679906547,4.015851260107755,-0.001939833164215
2025-04-30 00:15:17.513490700,7.31649072265625,-0.0121232628051884,0.0064810239709913,-0.025568023268351,-0.006716794334352,0.0931052382302978,0.9733717155623256,0.188128261546289,right,-0.0030150413513183,-0.4219091655979844,-0.1084597719307057,-8.946036209982633,-0.2079071677355166,-0.0106586124747991,0.0038434499874711,4.015851260107755,-0.0020375549793243
2025-04-30 00:15:17.553491000,7.356490966796875,-0.0125618557277696,0.0122346403077244,-0.025874905205465,-0.0334668383002281,0.0934523177069727,0.9732719650254156,0.1887564171468571,right,-0.0040347576141357,-0.4225285932232022,-0.1123521579930558,-8.943498215937614,-0.2081801656570437,-0.0107646463438868,0.0035687489435076,4.021392527621984,-0.0028157532215118
2025-04-30 00:15:17.593491000,7.396490966796875,-0.0138240505689124,0.0201555080711841,-0.0265792556292922,-0.0484743639826774,0.0939605674283496,0.9731977121617272,0.189533650872938,right,-0.0014723539352416,-0.4227316674115766,-0.1236292109466157,-8.94253258577585,-0.2082096859451508,0.0004340121522545,0.0015281029045581,4.023208637133241,0.0001096129417419
2025-04-30 00:15:17.633490700,7.43649072265625,-0.0151834117222511,0.0201785955578088,-0.0273214936354818,-0.0466045551002025,0.0945927813245956,0.9731859313584674,0.1905355286006332,right,0.0010610818862915,-0.4222178729077127,-0.1358165928112808,-8.944422345045208,-0.2078820287883812,0.0193674452602863,-0.0014920914545655,4.0186131260365245,0.0027299523353576
2025-04-30 00:15:17.673490700,7.47649072265625,-0.0164464034188141,0.012032551690936,-0.0279691790492045,-0.0331148281693458,0.0951306681896197,0.9732485727861552,0.1913571809099266,right,0.003726840019226,-0.421078278118922,-0.1471884296425152,-8.948816780611873,-0.2072560584945574,0.0325465351343154,-0.0022424980998039,4.008416141670942,0.0037108957767486
2025-04-30 00:15:17.713490700,7.51649072265625,-0.0173787613944678,-0.0020531341433525,-0.0284003850675655,-0.0238594412803649,0.0953623454519311,0.9733363433182142,0.1916218914594875,right,0.0032685995101928,-0.4199900572857072,-0.1556075815474614,-8.953031767958402,-0.2066781552725088,0.0307601671665906,-0.0011120159178972,3.9986742075964807,-0.0007988512516021
2025-04-30 00:15:17.753490700,7.55649072265625,-0.0183935262200303,-0.0151653084903955,-0.0288007062838491,-0.0216021947562694,0.0952594933640724,0.9734524719364458,0.1911832824670988,right,0.0048178434371948,-0.4189356374112359,-0.1647701630976982,-8.957079582044482,-0.2061226894770398,0.0304099842905998,0.0007351990789175,3.9892303796857593,-0.0037692189216613
2025-04-30 00:15:17.793490700,7.59649072265625,-0.019645054727616,-0.0209359377622604,-0.0292776629065209,-0.0289715323597192,0.0949524613287784,0.973566318982514,0.1902785416513477,right,0.0072465538978576,-0.4180780309287873,-0.1760472160512581,-8.960283346521853,-0.205658716922287,0.0175223350524902,0.0033522462472319,3.9815459626629934,-0.0118502080440521
2025-04-30 00:15:17.833491000,7.636490966796875,-0.0208977900906798,-0.0150017254054546,-0.0297869257794591,-0.0263830032199621,0.0946603950837402,0.9736151374734002,0.1894115136289248,right,0.0079580545425415,-0.4178255000065682,-0.1872929422847926,-8.961060760635137,-0.205489150161335,-0.0093780644237995,0.0048398207873106,3.979282693906128,-0.0143598616123199
2025-04-30 00:15:17.873490700,7.67649072265625,-0.0222914945236775,0.0045221056789159,-0.0304570303843581,-0.0279446560889482,0.0946114096642058,0.9735398254960292,0.1890230808385646,right,0.0093134641647338,-0.4185265218771294,-0.1997196036648936,-8.958000204020738,-0.2057704362298762,-0.0284970961511135,0.004257284104824,3.985564842915535,-0.0155616104602813
2025-04-30 00:15:17.913490700,7.71649072265625,-0.0233937566811995,0.0130955642089247,-0.0311457351962167,-0.0377445071935653,0.0948701026515815,0.973231672125848,0.1893441673371917,right,0.0020800232887268,-0.4211732233383809,-0.2093460581335239,-8.94719765497744,-0.2070020133883081,-0.1122530251741409,0.0013004820793867,4.009266036498547,-0.003255546092987
2025-04-30 00:15:17.953490700,7.75649072265625,-0.0241203794181133,0.0257125496864318,-0.0318088298609904,-0.0130261071026325,0.0952485396831208,0.9726276138284208,0.1900123143852364,right,0.0029513835906982,-0.4265023300751471,-0.2153288771364837,-8.925556316533685,-0.2095506552721771,-0.1701051741838455,0.006283912807703,4.056902524681389,0.0013568699359893
2025-04-30 00:15:17.993490700,7.79649072265625,-0.0235499278030022,0.0571871697902679,-0.0319954688693122,0.0012567490339279,0.0958503910096133,0.9718291741202272,0.1914365249559937,right,-0.0104967951774597,-0.4334319791083592,-0.2095702040119096,-8.897358980575204,-0.2129254540489569,-0.1796686649322509,0.0011108834296464,4.118673628939688,0.0079446732997894
2025-04-30 00:15:18.033490700,7.83649072265625,-0.0232302562860313,0.0280589181929826,-0.0323734934065462,-0.0504605248570442,0.0966788621594817,0.9709489685613965,0.1932843966591248,right,-0.0291829705238342,-0.4407751436443572,-0.2060178818251937,-8.866949813786148,-0.2164794433760954,-0.1763157993555069,-0.0021842531859874,4.183914747396111,0.0369828343391418
2025-04-30 00:15:18.073491000,7.876490966796875,-0.0255856516949217,-0.0207226071506738,-0.0337201222455334,-0.0655534490942955,0.0968961308704645,0.9704132171145076,0.1932479140272638,right,-0.0127630233764648,-0.4453116169754419,-0.2264145539700985,-8.847374760222435,-0.2185689673040979,-0.049248069524765,-0.0003803167492151,4.2241070570528505,0.0283785760402679
2025-04-30 00:15:18.113491000,7.916490966796875,-0.0281966200782853,-0.0377970859408378,-0.0348287552387052,-0.0410613045096397,0.0965373882915814,0.9704645318832836,0.1919184256116373,right,-0.0018559098243713,-0.4450242775815928,-0.2495481767982244,-8.847966296374798,-0.2183259796313236,0.0512675270438194,-0.0022742711007595,4.221563802310824,0.0168748795986175
2025-04-30 00:15:18.153490700,7.95649072265625,-0.0306036031343474,-0.033871803432703,-0.035750533869734,-0.0459162965416908,0.0961211270574105,0.9707171663376049,0.1905063025644742,right,0.0032486319541931,-0.4429650075750862,-0.2711097828029655,-8.856010486620663,-0.2172349659642329,0.0632798746228218,-0.003800194710493,4.2033273038744925,0.0039673149585723
2025-04-30 00:15:18.193490700,7.99649072265625,-0.0327232382122286,-0.0147111117839813,-0.0365737482447689,-0.0278906188905239,0.0958505624614292,0.9709575567875666,0.1894641977478531,right,0.0116054415702819,-0.4408815082171143,-0.290166548113618,-8.86414995393455,-0.2161400433435189,0.0552297756075859,-7.8972429037e-05,4.184858165726065,-0.0052353143692016
2025-04-30 00:15:18.233490700,8.03649072265625,-0.0337354091453272,-0.0042418763041496,-0.036951806999129,-0.0203612335026264,0.0958013353288359,0.971145853986818,0.1891299204076665,right,0.0056549310684204,-0.4391361081547101,-0.2993843487161211,-8.871137913125754,-0.2152496620436185,0.0428932979702949,-0.0018733460456132,4.169371842780709,-0.0057600736618041
2025-04-30 00:15:18.273490700,8.07649072265625,-0.0347823598243801,-0.004901411011815,-0.0373738041483159,-0.0182459224015474,0.095881174728941,0.971323311559957,0.1890557108920178,right,0.0047359466552734,-0.4373617678294386,-0.3089285865277051,-8.878198937553167,-0.214338597209483,0.0468111112713813,0.0027927830815315,4.153616055244207,-0.0041809380054473
2025-04-30 00:15:18.313491000,8.116490966796874,-0.0357062854362988,-0.0044312383979558,-0.0377380409686281,-0.0244151186197996,0.0959212131426834,0.9714866158964316,0.1889292092157859,right,-0.0007991194725036,-0.4357540337759771,-0.3173692287452518,-8.88457197971642,-0.2135152085542005,0.0334704853594303,0.0009849518537521,4.139328294433653,-0.0027911365032196
2025-04-30 00:15:18.353491000,8.156490966796875,-0.0370198005402005,-0.0063119181431829,-0.0383147291078609,-0.0406054407358169,0.0960138313119233,0.971590855247295,0.1888284464392648,right,-0.0029963850975036,-0.4346051966251738,-0.3292147840354591,-8.888893934568761,-0.2128956047040084,0.0222280472517013,0.0020017065107822,4.129112020845711,0.0011613965034484
2025-04-30 00:15:18.393490700,8.19649072265625,-0.0389210778127445,-0.0104390475898981,-0.0391815440395694,-0.0606778338551521,0.0961113833749917,0.9716475542470564,0.1886116616299997,right,-0.0044164061546325,-0.4338365799317312,-0.3462378150288015,-8.891420822697878,-0.2124347758575983,0.0215808115899562,0.0009373724460601,4.122273991519212,0.0019632875919342
2025-04-30 00:15:18.433490700,8.23649072265625,-0.0412417041074928,-0.0190322417765855,-0.0402105765808778,-0.056861363351345,0.0961242551559626,0.9717414682709048,0.1881307358842395,right,-0.0003193020820617,-0.4327528231806888,-0.3670545026840642,-8.89505128815472,-0.2118058309331959,0.0281214155256748,0.0019374676048755,4.112628211295604,0.0026592910289764
2025-04-30 00:15:18.473490700,8.27649072265625,-0.0431125772733589,-0.020321337506175,-0.0409921391855695,-0.0378841198980808,0.0959170645169823,0.971840950049276,0.1872974510360413,right,-9.64403152465e-05,-0.4318486007322745,-0.3838554884245619,-8.898060991364718,-0.2112931712708138,0.0088179688900709,-0.0002848617732524,4.104576422265172,0.0035283863544464
2025-04-30 00:15:18.513490700,8.31649072265625,-0.0443374188044624,-0.0270231142640113,-0.041465543184969,-0.0083835702389478,0.0954808524829147,0.9718685277298608,0.1861334648520324,right,0.0018360018730163,-0.4318762386891024,-0.3947488940890878,-8.897471208778024,-0.2112719785882487,-0.0076340585947036,0.0007962696254253,4.104822798241675,-0.0005922615528106
2025-04-30 00:15:18.553491000,8.356490966796875,-0.0452294002238741,-0.0171450078487396,-0.0418118060612669,-0.0118151539936661,0.0950478097352836,0.9718320610913552,0.185046963611888,right,0.0018285512924194,-0.4325220561423785,-0.4025651573305949,-8.894465012699365,-0.2115662325477007,-0.0179838743060827,-0.000589944422245,4.110573616853356,-0.0034658312797546
2025-04-30 00:15:18.593491000,8.396490966796875,-0.0461582137600546,-0.0165835730731487,-0.0422368232348835,-0.0128206424415111,0.0947865389539817,0.971714727841166,0.1843036924697257,right,0.0029135942459106,-0.4337540304174516,-0.4105922868438065,-8.889021944862604,-0.2121369398187682,-0.0360330268740654,0.0006262771785259,4.121539539764822,-0.0023173391819
2025-04-30 00:15:18.633490700,8.43649072265625,-0.046793746979028,-0.0069314613938331,-0.042548437459947,-0.0082308975979685,0.09461843671996,0.971584478136178,0.1838150285047502,right,-0.0019065737724304,-0.435046867364909,-0.4159918808650225,-8.883429239422082,-0.2127458700407462,-0.0359587930142879,-0.00114082172513,4.13304030020535,0.0018453299999237
2025-04-30 00:15:18.673490700,8.47649072265625,-0.0473073916990381,-0.0067974179983139,-0.0428081750504839,-0.0039595612324774,0.0944798893184027,0.971455991536234,0.1834132008409602,right,0.0008222460746765,-0.4363030866339156,-0.4203089038139209,-8.878021242898702,-0.2133409818912406,-0.0244210064411163,-0.0005893744528293,4.144208759951591,0.0019981861114501
2025-04-30 00:15:18.713490700,8.51649072265625,-0.0476106362638617,-0.0096322651952505,-0.0429386630446011,0.0002074060030281,0.0943151000902678,0.971399539197104,0.1830051514854521,right,0.0019246935844421,-0.436938910350808,-0.4228755759641527,-8.875259376969932,-0.213644541974461,-0.0093213412910699,0.0007657036185264,4.149859333059191,0.0029428601264953
2025-04-30 00:15:18.753490700,8.55649072265625,-0.0476106362638617,-0.0088386349380016,-0.0429386630446011,0.0038279921282082,0.0943151000902678,0.971399539197104,0.1830051514854521,right,-0.0010541677474975,-0.436938910350808,-0.4228755759641527,-8.875259376969932,-0.213644541974461,-0.0036881165578961,0.0014321915805339,4.149859333059191,0.003013253211975
2025-04-30 00:15:18.793490700,8.59649072265625,-0.0479688601158836,-0.0177586749196052,-0.043035159626275,-0.0078207040205597,0.093998996105229,0.9714250851363508,0.1822755288681569,right,-0.0025325417518615,-0.4369496791745326,-0.4260527446955442,-8.875062977614999,-0.2136485806709659,0.005089109763503,0.0011422671377658,4.149954902388156,0.0041885673999786
2025-04-30 00:15:18.833491000,8.636490966796876,-0.0488097886453816,-0.0220553427934646,-0.0433390647328644,-0.0204528085887432,0.0936397614298275,0.9714656146467768,0.1813515921088307,right,-0.0021911859512329,-0.4368087572593339,-0.4335444156251847,-8.875285680454969,-0.2135605693504122,0.001863665645942,-0.0006262212991714,4.148702856500447,0.0034839212894439
2025-04-30 00:15:18.873490700,8.67649072265625,-0.0497951051327231,-0.0125863188877701,-0.0437452064282489,-0.0172946378588676,0.0933852088669425,0.9714611267270804,0.1806101616705391,right,-0.0001444220542907,-0.4369709017407376,-0.4422556914776563,-8.874182103127241,-0.213609485538531,-0.0083350744098424,0.0003706105053424,4.150143410697579,0.0083321928977966
2025-04-30 00:15:18.913490700,8.71649072265625,-0.0508999282467425,-0.0128479544073343,-0.0442451874490122,-0.0232670307159423,0.0932135222699673,0.9713919894780056,0.1800101646073833,right,0.0009118318557739,-0.4376374589740514,-0.4519189708253368,-8.870922809070349,-0.2138952505221635,-0.0140280313789844,-0.0012630112469196,4.156064909701049,0.007138967514038
2025-04-30 00:15:18.953490700,8.75649072265625,-0.0521443451604081,-0.000190582126379,-0.0448302301456512,-0.0259610936045646,0.093151646253129,0.9713192974029192,0.1796052613618283,right,0.0031300783157348,-0.4382222869466262,-0.4628309715924784,-8.867924796298146,-0.2141306085770818,-0.0031179301440715,-0.0002489425241947,4.161258971212804,0.0032159686088562
2025-04-30 00:15:18.993490700,8.79649072265625,-0.053059770309567,-0.0002480075054336,-0.045271708311516,-0.0044567864388227,0.0932195960591651,0.9712920729487196,0.17954283318706,right,0.0102000832557678,-0.4383100841779678,-0.4709293397109955,-8.867132769137621,-0.2141320279978645,0.0183025430887937,0.0023264549672603,4.162038723413646,-0.0058703124523162
2025-04-30 00:15:19.033490700,8.83649072265625,-0.0527878989675424,0.0058527314104139,-0.0451345832565314,0.0127414260059595,0.0933399189952451,0.9713866511270656,0.1798564913161185,right,0.0079330205917358,-0.4373656464827566,-0.4687257652521133,-8.871181752267479,-0.2136784754836551,0.0324542932212352,0.002931747585535,4.153650542035699,-0.0081556737422943
2025-04-30 00:15:19.073491000,8.876490966796876,-0.0520917136031217,0.0091204810887575,-0.0448071168157033,0.0048927729949355,0.0935148577634392,0.9714969907062292,0.1803763643494008,right,-2.25901603698e-05,-0.436274771698561,-0.4627853423524647,-8.876025685167312,-0.2131688788351702,0.0252178590744733,0.0018883645534515,4.143957123278081,-0.0066905617713928
2025-04-30 00:15:19.113491000,8.916490966796875,-0.0516824382052945,0.013653565198183,-0.0446674967998721,-0.0045915702357888,0.0937970226792459,0.971507580972675,0.1810488070550903,right,-0.0046445727348327,-0.4359726759868865,-0.4592172015421092,-8.877464193537831,-0.2130260969028765,-0.0105771142989397,0.002287570387125,4.141271829716861,-0.0029443204402923
2025-04-30 00:15:19.153490700,8.95649072265625,-0.0517941863567374,0.0169663242995739,-0.0448434354454729,-0.0186580475419759,0.0942157929313113,0.971379572281024,0.1818819156687934,right,-0.0043191909790039,-0.4367655587164029,-0.4600391123842448,-8.874130665200948,-0.213387726181568,-0.0303748864680528,0.0027581937611103,4.148318825618922,0.0023843944072723
2025-04-30 00:15:19.193490700,8.99649072265625,-0.0523039967114398,0.0266097672283649,-0.0452372566948961,-0.0295936316251754,0.0947903792526694,0.971232925969618,0.1829485030224814,right,-0.0052254796028137,-0.4375424134070282,-0.46439456764739,-8.870674387267231,-0.2137173024771226,-0.0134237892925739,0.0002534724771976,4.155220860092341,0.00257408618927
2025-04-30 00:15:19.233490700,9.03649072265625,-0.0531637455102457,0.0192865058779716,-0.0458195446860539,-0.0399652272462844,0.0954818431045015,0.9710679514533996,0.1841784843398072,right,-0.0096197724342346,-0.4383374205343061,-0.4718452489795163,-8.866970272052287,-0.2140348601567117,-0.0298394504934549,0.0008913613855838,4.162281299997866,0.0118303000926971
2025-04-30 00:15:19.273490700,9.07649072265625,-0.0542328881866173,0.0215314421802759,-0.0464890771883474,-0.0417198613286018,0.0960977141142983,0.9708887118540844,0.1852051865968105,right,-0.0074751377105712,-0.439300024122723,-0.481107619376108,-8.862456009498239,-0.2144278037475901,-0.0122424717992544,-0.0010913014411926,4.170827010025084,0.0117705464363098
2025-04-30 00:15:19.313491000,9.116490966796874,-0.0553748659873741,0.0112758558243513,-0.0471270418126302,-0.0267343632876873,0.0966487656065919,0.9708484213794588,0.1860900146830562,right,0.0028092861175537,-0.4390345732360639,-0.4912892965747043,-8.863006044596434,-0.2142230678020447,0.0331609100103378,0.0001185536384582,4.168470802287757,0.0113067030906677
2025-04-30 00:15:19.353491000,9.156490966796875,-0.0560899312190418,0.0073348325677216,-0.0474510035748382,-0.0222040824592113,0.0969825990082416,0.9710149693317393,0.1866338145484615,right,0.0060977339744567,-0.4371162292648164,-0.4980741709418594,-8.8706194422096,-0.2132432408381195,0.0654559955000877,-0.0024385154247283,4.151434619551897,0.0045185387134552
2025-04-30 00:15:19.393490700,9.19649072265625,-0.0562885313116611,0.0016813152469694,-0.0474664553304669,0.0044308733195066,0.0971420482842606,0.9712859928681828,0.1869383946410366,right,0.0105942487716674,-0.4344482676284613,-0.5004571936208755,-8.881547663459182,-0.2119293459002473,0.0700840502977371,0.0006047077476978,4.127716182573139,-0.0003377199172973
2025-04-30 00:15:19.433490700,9.23649072265625,-0.0561232619157291,-0.0082810427993536,-0.047303146199565,0.0050492533482611,0.0971588719627025,0.9715202025209768,0.1870251775366841,right,0.0080117583274841,-0.4322815453379366,-0.4994898464260622,-8.89053877916634,-0.2108817297292289,0.0501056313514709,0.0015129297971725,4.1084322209104895,-0.0038037896156311
2025-04-30 00:15:19.473490700,9.27649072265625,-0.0560286081430271,-0.0254545044153928,-0.0471381337522015,0.0084582371637225,0.0968662214196028,0.97169937531614,0.1864536903615589,right,0.0032668709754943,-0.4308973824027504,-0.4989662974759936,-8.896255403247475,-0.2102266137613621,0.0259537473320961,0.0015184991061687,4.0961029006913305,-0.0038456618785858
2025-04-30 00:15:19.513490700,9.31649072265625,-0.0558613404107352,-0.0247260574251413,-0.0469208362454049,0.0143654495477676,0.0962657253106284,0.9717869811710356,0.1852557901224772,right,-0.0030753016471862,-0.4306581132862603,-0.4975329402046278,-8.897316894999147,-0.2101464548267968,-0.0129566863179206,0.00080107152462,4.093970857098698,-0.0020104944705963
2025-04-30 00:15:19.553491000,9.356490966796876,-0.0556003946342824,-0.0152138564735651,-0.0467176732799263,0.0117907207459211,0.0957358148647868,0.9717584436266576,0.1842156963541756,right,-0.0011452436447143,-0.4314429924695293,-0.495032501691021,-8.894235295596719,-0.2105651318699578,-0.0180975794792175,0.0002512745559215,4.100963784725964,-0.0052518844604492
2025-04-30 00:15:19.593491000,9.396490966796875,-0.0550502690410626,-0.0183988139033317,-0.0464340744052539,0.031706303358078,0.0955230266304311,0.97174149217421,0.1838939234698233,right,-0.0032563209533691,-0.4318628855136073,-0.4900447033410892,-8.892786265832186,-0.210803147690361,-0.0140016665682196,-0.0003791004419326,4.104703848037124,-0.0016332566738128
2025-04-30 00:15:19.768905500,9.571905517578124,-0.0568165703029366,-0.0026594479568302,-0.0471797460815631,-0.0110071636736392,0.0952680680780477,0.9717878708535684,0.1829894890553935,right,-0.0028878219891339,-0.4314488376245383,-0.5058477275528014,-8.893602842912077,-0.2105386751382111,-0.0155497677624225,0.0018068891949951,4.101015807174146,-0.0037609622813761
2025-04-30 00:15:19.808808200,9.61180810546875,-0.0569000494018148,-0.0013220065739005,-0.0472679023111621,-0.0059792292304337,0.0952968168035016,0.9716695898740196,0.1830217111558162,right,-0.0038709677755832,-0.4325119355825026,-0.5063419042779133,-8.889202562126517,-0.2110510564848462,-0.0441151149570941,0.0011274787830188,4.110483600482344,0.004021109547466
2025-04-30 00:15:19.848808000,9.651807861328123,-0.0562498400013926,3.80541896447e-05,-0.0469996753747423,0.0013172598555684,0.0952891936546144,0.9715879616040192,0.1831405498566614,right,-0.0020990371704101,-0.4333556997970539,-0.5003668119236827,-8.88606426410079,-0.2114896229982899,-0.0309867691248655,0.0015667229890823,4.117994706764817,0.0046513676643371
2025-04-30 00:15:19.888808000,9.691807861328124,-0.0555992862098097,0.00139811495319,-0.0467314389880342,0.0086137484759092,0.0952815327045982,0.9715061690392024,0.1832600336494701,right,-0.0003281831741333,-0.4341994741077399,-0.4943925598196685,-8.882915444681048,-0.2119281484380259,-0.0178584232926368,0.002006072551012,4.125502890437841,0.0052819550037384
2025-04-30 00:15:20.048224300,9.851224365234376,-0.0556536655497403,-0.0107376528903841,-0.0466573401716976,-0.0206957180052995,0.0945349258552483,0.971408167897145,0.1816990979560356,right,0.0003641938092187,-0.4357713553223206,-0.4945142865031957,-8.87640270178616,-0.2127263864123049,-0.0053473869338631,0.0034632380120456,4.139482315951586,-0.0039407988078892
2025-04-30 00:15:20.088127500,9.89112744140625,-0.0571074245106921,0.0224017798900604,-0.0474464771800502,-0.0623787678778171,0.0949079929438792,0.9712580223515546,0.1821416470667221,right,-0.0059259161353111,-0.4366428929391172,-0.5072117824476212,-8.872069056496024,-0.2130708900231232,-0.0254217162728309,0.0032171504572033,4.147228692294657,-0.0032863717060536
2025-04-30 00:15:20.128127700,9.931127685546874,-0.0587346239231179,0.0345536507666111,-0.0484606225727689,-0.0562062971293926,0.0959262169143964,0.971032614075778,0.1838731411726458,right,-0.005001962184906,-0.4375935348135618,-0.5214160662258044,-8.867292343613505,-0.2134138885095706,-0.0243687219917774,0.0008530542254447,4.155674741339683,-0.0004271268844604
2025-04-30 00:15:20.168127700,9.971127685546875,-0.0599809046572275,0.0319731086492538,-0.0492832927987174,-0.0426115319132804,0.0969348864354671,0.9708481975957068,0.1856712140201428,right,0.0005143284797668,-0.4382079414177028,-0.5323136366087943,-8.864085072004794,-0.2136085096775566,-0.0120769711211323,0.0003705024719238,4.161131545440853,0.0030532777309417
2025-04-30 00:15:20.208127700,10.011127685546874,-0.0604529118761521,0.021989319473505,-0.0496812166209112,-0.0101104602217674,0.0976595753691662,0.9707148478418448,0.1870557006900928,right,0.0042572021484375,-0.4387036266855033,-0.5363728123391047,-8.861773287931085,-0.213792196263096,-0.0034365244209766,-0.0002858042716979,4.165532703009248,0.0002597272396087
2025-04-30 00:15:20.248127700,10.051127685546875,-0.0604487530509454,-0.0002766922116279,-0.0497351894786411,0.001719232648611,0.0979336576864139,0.9706991432819808,0.1876223446732572,right,0.0044863224029541,-0.4385958745392576,-0.5363630946626886,-8.862223369786143,-0.2137259343340561,0.0140703041106462,-0.0016662627458572,4.164576132936776,-0.000382661819458
2025-04-30 00:15:20.288127700,10.091127685546876,-0.0604535642504578,-0.0230350270867347,-0.0496735240142384,0.0148000409826636,0.0977106524874827,0.9707605293590174,0.187165137892792,right,0.0036340355873107,-0.4382378481777942,-0.5364957445990294,-8.863708639907836,-0.2135630865515045,0.0047340244054794,0.000288501381874,4.161397210639715,0.0034801065921783
2025-04-30 00:15:20.328127700,10.131127685546875,-0.0605978789743468,-0.0345351994037628,-0.049610738521909,0.0089140143245458,0.097087890796086,0.9708007982268856,0.1858486166188048,right,-0.0003407001495361,-0.4384224300915402,-0.5377283916665241,-8.86286400577724,-0.2136784515762795,-0.0084250280633568,0.0005077570676803,4.163036210018396,0.0011155009269714
2025-04-30 00:15:20.368127700,10.171127685546876,-0.0610958484818068,-0.0274230912327766,-0.0497128516911846,0.0045598479919135,0.0963952358925972,0.9707966874377844,0.184306071367565,right,-0.002317726612091,-0.4390288191175135,-0.5419875469483435,-8.860074082797766,-0.2139873508320494,-0.005977276712656,0.001719631254673,4.16841965662241,-0.003365933895111
2025-04-30 00:15:20.408127700,10.211127685546876,-0.0617345756579443,-0.0095600746572017,-0.0499489899347871,-0.0119985155761241,0.0960752057998649,0.9707875003114408,0.1835029710931633,right,-0.0028722882270812,-0.4393196247775324,-0.5475717768214643,-8.85851574743986,-0.2141179592882639,-0.0059521626681089,0.0013589337468147,4.171000905287266,-0.0040685832500457
2025-04-30 00:15:20.448127700,10.251127685546876,-0.0624318953055459,0.0151032097637653,-0.05031491719494,-0.0153703391551971,0.0962239694520002,0.970732383792418,0.1836526987503497,right,0.0006494522094726,-0.4395959108413009,-0.5536769252961501,-8.856981377479434,-0.2142149756182227,-0.0090812230482697,0.0016526728868484,4.1734529746145,-0.0038953125476837
2025-04-30 00:15:20.488127700,10.291127685546876,-0.062543142034233,0.0223097298294305,-0.0504818957259736,-0.0123217403888702,0.0966564184820401,0.9706331881742274,0.1845138662535103,right,0.0005077123641967,-0.4400957613165288,-0.5545317885598168,-8.854836766666173,-0.2144308014174635,-0.0119944866746664,0.0019060149788856,4.177888034452498,-0.0019266605377197
2025-04-30 00:15:20.528127700,10.331127685546877,-0.0626933049742028,0.017028521746397,-0.0506699704498629,-0.0148981492966413,0.0970949998834303,0.9705281270646172,0.1853787122726421,right,0.0003615021705627,-0.4406343058847345,-0.5557204138224944,-8.852506277891994,-0.2146633649634817,-0.014633247628808,0.0018298998475074,4.182665624117851,0.0011947154998779
2025-04-30 00:15:20.568127700,10.371127685546876,-0.0628890132582904,0.0121922241523861,-0.0508604758385608,-0.01263446547091,0.0974378229886848,0.970425290527136,0.18603559444725,right,-0.0007500052452087,-0.4412322183521608,-0.5572956272499635,-8.84989989478588,-0.2149276863507812,-0.0164347384124994,0.0017437823116779,4.187968406701088,0.0023495554924011
2025-04-30 00:15:20.608127700,10.411127685546877,-0.0629210919030999,0.0157951153814792,-0.0509788704426324,-0.0093103079125285,0.0978013984304822,0.9703263721272924,0.1867719385787934,right,0.0016329288482666,-0.4417962237126088,-0.5574309075348078,-8.847523228782414,-0.2151813636164311,-0.0106754284352064,0.0016416050493717,4.192968991467357,0.0014133751392364
2025-04-30 00:15:20.648127700,10.451127685546876,-0.0628863668256834,0.0130442408844828,-0.0510680304408212,-0.0114048160612583,0.0982691780884472,0.970275659285538,0.1877434445034749,right,0.0019701123237609,-0.4418311501292055,-0.5571144619967788,-8.847396387532353,-0.2151752728217786,-0.0006554424762725,0.002734325826168,4.193278495807945,0.0017301738262176
2025-04-30 00:15:20.688127700,10.491127685546877,-0.0628516558659137,0.0102933663874864,-0.0511571904390095,-0.0134993251413106,0.0987369072224255,0.970224914820362,0.1887149451387938,right,0.0023072361946105,-0.4418662422707794,-0.5567981260566041,-8.8472689617604,-0.2151691820271239,0.0093645444139838,0.0038270540535449,4.193589461453259,0.0020468533039093
2025-04-30 00:15:20.728127700,10.531127685546876,-0.0628516558659137,-0.0043048849329352,-0.0511571904390095,-0.0031045228242874,0.0987369072224255,0.970224914820362,0.1887149451387938,right,0.0045547485351562,-0.4418662422707794,-0.5567981260566041,-8.8472689617604,-0.2151691820271239,0.003953160252422,0.0038135014474391,4.193589461453259,0.0026181638240814
2025-04-30 00:15:20.768127700,10.571127685546877,-0.0628516558659137,-0.031181801110506,-0.0511571904390095,-0.0046263448894023,0.0987369072224255,0.970224914820362,0.1887149451387938,right,0.0030490756034851,-0.4418662422707794,-0.5567981260566041,-8.8472689617604,-0.2151691820271239,-0.0030405675061047,0.0051298886537551,4.193589461453259,0.0040324628353118
2025-04-30 00:15:20.808127700,10.611127685546874,-0.0640071465809398,-0.1074918806552887,-0.0513602156130746,-0.0109669305384159,0.0972487226114468,0.9703579109620816,0.1853911497739719,right,-0.0048955082893371,-0.441867324458302,-0.5670203909939154,-8.846614881765841,-0.2151983051555643,-0.0078838374465703,0.0009407699108123,4.193599106064439,0.0129892528057098
2025-04-30 00:15:20.848127500,10.65112744140625,-0.0663028161447125,-0.1061182841658592,-0.0519373427672003,0.0147030558437109,0.0950442935062577,0.9705222379655756,0.1803367106084392,right,0.0054331421852111,-0.4420435060614819,-0.5872788237119093,-8.844552688539027,-0.2153040535782862,-0.0154035678133368,0.00316147133708,4.195160948553681,-0.0009659230709075
2025-04-30 00:15:20.888127700,10.691127685546874,-0.0670319091156273,-0.0576167404651641,-0.0519283707840487,0.0199261978268623,0.0933074766137104,0.9705633204630364,0.176581731147448,right,0.0005173087120056,-0.4430984593778498,-0.5934304051442072,-8.839701741376519,-0.2158798570541887,-0.0341394357383251,0.000969972461462,4.204509791657328,-0.0062537193298339
2025-04-30 00:15:20.928127700,10.731127685546875,-0.0670317895244916,-0.0039476566016674,-0.0518390521561268,0.0052164467051625,0.092614224605998,0.9704383822956412,0.1751294639716102,right,-0.0026620030403137,-0.4448314376407679,-0.5929403931375593,-8.832418014109134,-0.2167595946526459,-0.0367017798125743,0.0004863739013671,4.219856998392939,-0.009385198354721
2025-04-30 00:15:20.968127700,10.771127685546874,-0.0665931650724356,0.0334354974329471,-0.0517569866701151,-0.0073093175888061,0.0929465779535773,0.9702785751011916,0.1758961558663529,right,-0.0035565495491027,-0.446049172675452,-0.5887238348884508,-8.827543686071039,-0.2173516858400382,-0.020331846550107,0.0013025701045989,4.230633536212146,-0.0057026743888854
2025-04-30 00:15:21.008127700,10.811127685546875,-0.0663993260376282,0.0395514070987701,-0.0518765745621766,-0.0237942356616258,0.0937986823831091,0.9701471345422384,0.1776899148928199,right,-0.0040673017501831,-0.446521657823216,-0.5868800336526706,-8.825662110108137,-0.2175437736664838,-0.0098778381943702,0.0008220709860324,4.23481315998435,0.0002897083759307
2025-04-30 00:15:21.048127700,10.851127685546874,-0.0668996429367157,0.0329693406820297,-0.0523103388788711,-0.0394745543599128,0.0946902885674386,0.9700430202161244,0.1794147618979413,right,-0.0012722611427307,-0.4466091540377759,-0.5912708159575238,-8.824997508719562,-0.2175177755008959,0.0036543700844049,0.0007317140698432,4.235587066966295,-0.0004985332489013
2025-04-30 00:15:21.088127500,10.89112744140625,-0.0678797755918878,0.0252766944468021,-0.0529404785167067,-0.0468741282820701,0.0955023251752198,0.9699577323166838,0.1808704833253562,right,-0.0006149411201477,-0.4465217954716384,-0.5999452669309452,-8.824782989186048,-0.2173904483229173,0.0018654688028618,0.0001292750239372,4.234814329028129,0.0004342496395111
2025-04-30 00:15:21.128127700,10.931127685546874,-0.069009106803611,0.0225830562412738,-0.0536158442667065,-0.0409184135496616,0.0961933148766635,0.9698705836184556,0.1820421558387397,right,-0.0004574656486511,-0.4465308700903736,-0.6099083694754168,-8.824061689174174,-0.2173095001381877,-0.0041649271734058,0.0010064020752906,4.234894700787962,0.0005256235599517
2025-04-30 00:15:21.168127700,10.971127685546875,-0.069991392630835,0.0253417529165744,-0.054226663030309,-0.0388601571321487,0.0968621093168648,0.9697638470017976,0.1831981951630019,right,-0.0005732178688049,-0.4467496206403195,-0.618511033854261,-8.822533748954534,-0.2173371539222693,-0.0050414493307471,0.0005454719066619,4.236829468242824,-0.0001015663146972
2025-04-30 00:15:21.208127700,11.011127685546874,-0.0710614741112368,0.0266127325594425,-0.0548875920576195,-0.041195660829544,0.0975519295878215,0.9696389090932171,0.1843761315385786,right,-0.0007085800170898,-0.4470944430254797,-0.6278477481286973,-8.820409596407414,-0.2174204316697609,-0.0086800381541252,0.0005694925785064,4.239878918941319,0.0004305243492126
2025-04-30 00:15:21.248127700,11.051127685546875,-0.0722583905237945,0.0226640943437814,-0.0556050138313957,-0.044617298990488,0.0982333733961359,0.9695119628772512,0.1855082557178486,right,0.0003644227981567,-0.447437257006225,-0.6382995840381831,-8.818201272708176,-0.2174970365294365,-0.0082892496138811,0.0006096586585044,4.242909957200289,-0.0004352629184722
2025-04-30 00:15:21.288127700,11.091127685546876,-0.0736490282947616,0.0242336280643939,-0.0564160430368949,-0.0460355281829834,0.0989112468339057,0.9693666792519174,0.1865874194061416,right,0.0010431408882141,-0.4479120296949834,-0.6504135810062289,-8.815295029872656,-0.2176287504196427,-0.0119132194668054,-9.25958156585e-05,4.247107116629183,-0.0018491446971893
2025-04-30 00:15:21.328127700,11.131127685546875,-0.0750423743936987,0.027766665443778,-0.0572474686779527,-0.0431200228631496,0.0996359000821369,0.9691912573540704,0.1877587027808928,right,0.0028660297393798,-0.4486032415306553,-0.6624754824608564,-8.811450629404186,-0.2178618480958338,-0.0187205448746681,-0.0004614293575286,4.253215954898297,-0.003298670053482
2025-04-30 00:15:21.368127700,11.171127685546876,-0.075929250513718,0.0359848141670227,-0.0578666766389401,-0.0272118300199508,0.100439029477772,0.969007294152724,0.1892042696028758,right,0.0035040378570556,-0.449369078286159,-0.6700425567142665,-8.807609151545167,-0.218147578876812,-0.0170569699257612,-0.0001215785741806,4.25998179577142,-0.0007965862751007
2025-04-30 00:15:21.408127700,11.211127685546876,-0.0763511677701641,0.0320651941001415,-0.0582814404957365,-0.0239864811301231,0.1012566844675979,0.9688131557024352,0.1907821721216674,right,0.0023140907287597,-0.4502769506378932,-0.6734633249431848,-8.803466060391068,-0.218521044781828,-0.0204622112214565,-0.0006099045276641,4.267999390271306,0.0032213926315307
2025-04-30 00:15:21.448127700,11.251127685546876,-0.0767868960096287,0.0223285406827926,-0.0586578751421702,-0.0205760300159454,0.1019030839531152,0.9686540086083796,0.1920061697698481,right,0.0027267336845397,-0.4510233985075839,-0.677054554368183,-8.79999283132255,-0.2188252884280699,-0.0142740495502948,-9.06065106391e-05,4.274588705533743,0.0050215423107147
2025-04-30 00:15:21.488127700,11.291127685546876,-0.0771996084621541,0.0117537155747413,-0.0589631097032387,-0.0140641499310731,0.1022940138857403,0.9685303727872956,0.192709127979861,right,0.0017749667167663,-0.4516918946042844,-0.6804658971816301,-8.7968615475595,-0.2191078555882338,-0.0172042846679687,0.0008134022355079,4.280487992705405,0.0049655139446258
2025-04-30 00:15:21.528127700,11.331127685546877,-0.0776577354275527,0.0074026947841048,-0.0592550242846643,-0.0102258855476975,0.1025106069196486,0.9684099147665473,0.1930395839807867,right,0.0022715926170349,-0.452487104445348,-0.6842316063906997,-8.793152756169437,-0.2194603488808066,-0.0187264643609523,0.0008357539772987,4.287502839903533,0.0017583668231964
2025-04-30 00:15:21.568127700,11.371127685546876,-0.0778891240315921,0.0014375890605151,-0.0594249830597036,-0.003133294172585,0.1026304809640443,0.9682922050951598,0.1932198138790234,right,0.0013604760169982,-0.4533822194376827,-0.685967344142124,-8.789164563316106,-0.2198772843048437,-0.0196887645870447,0.000588946044445,4.295395638979971,0.0020437836647033
2025-04-30 00:15:21.608127700,11.411127685546877,-0.0780683721450402,-0.0052058529108762,-0.0595378821715228,-0.0009185331873595,0.102602893633979,0.9681897835958516,0.1931070201979024,right,0.0011197328567504,-0.4542872942878295,-0.6872392637740821,-8.785161757415533,-0.2203103646241006,-0.0236790776252746,0.0013690516352653,4.303373193730414,0.0028605163097381
2025-04-30 00:15:21.648127700,11.451127685546876,-0.0782630356048501,-0.0135403387248516,-0.0596220916321451,0.0008952942444011,0.1023808953507604,0.968083178850954,0.1925853220202761,right,-0.0001806020736694,-0.4554057756844461,-0.6885726312696934,-8.780223716491461,-0.220858317339716,-0.02562084980309,0.0003122612833976,4.31322647922486,0.0020117759704589
2025-04-30 00:15:21.688127700,11.491127685546877,-0.0786664498456958,-0.0183290317654609,-0.059761945308406,0.0019862961489707,0.101998144879597,0.967997817858556,0.1916847326868282,right,0.0013450980186462,-0.4564504050092564,-0.6917601752646267,-8.77544875717461,-0.2213710973220781,-0.0212867688387632,0.00059724599123,4.322424223420024,0.0003391206264495
2025-04-30 00:15:21.728127700,11.531127685546876,-0.0789411856216116,-0.0139302117750048,-0.059837846497132,0.0052022072486579,0.1016297598503812,0.96793466799462,0.1908460730843851,right,0.0012723207473754,-0.4573034446711461,-0.6938800900280475,-8.771579222264885,-0.2217957693589823,-0.0157006420195102,0.001103475689888,4.329931822571158,-0.0003317594528198
2025-04-30 00:15:21.768127700,11.571127685546877,-0.079016478913277,-0.0082598943263292,-0.0598307829296694,0.0048407786525785,0.1013291262258119,0.967886852163518,0.1901957732855798,right,0.0013156533241271,-0.4579890431562204,-0.6943060603551566,-8.768566011923552,-0.2221437788694265,-0.0118088694289326,0.0017822310328483,4.335963211689889,-0.0035664439201354
2025-04-30 00:15:21.808127700,11.611127685546874,-0.0790449985060975,-0.0014957156963646,-0.0598449419526369,-0.002324235625565,0.1012464736822235,0.96783758029706,0.1900097095198723,right,1.78217887878e-05,-0.45849350214176,-0.6943832903098315,-8.76636470248699,-0.2223924409490271,-0.0102282781153917,0.0023482516407966,4.340400025093556,-0.001569390296936
2025-04-30 00:15:21.963823400,11.7668232421875,-0.0796848567355296,-0.014076292514801,-0.0602175719554178,-0.0117500200867652,0.1012855358590785,0.9676190128184968,0.1899121346971765,right,0.0007444637594744,-0.4602677171473536,-0.6993783221181482,-8.758228157782554,-0.2232230019572275,-0.0047303815372288,0.0029931711032986,4.355995361371338,0.0039092493243515
2025-04-30 00:15:22.003823400,11.8068232421875,-0.0803636310976881,-0.0180092696100473,-0.0604878834764971,-0.0043816459365189,0.1009743722799805,0.9675483628679572,0.1890981822238638,right,0.0031793117523193,-0.4610599931778429,-0.7050457002300768,-8.754308938512205,-0.2235972026780685,-0.008904724381864,0.002330407500267,4.362954971250892,-0.0006932914257049
2025-04-30 00:15:22.043823400,11.8468232421875,-0.0808121750175403,-0.0148928416892886,-0.0606538285931748,-0.003845642786473,0.1006500597376655,0.9674696235022732,0.1883075656187564,right,0.0011649131774902,-0.4619677465183149,-0.7086523464199155,-8.750040175151824,-0.224038469553727,-0.0247724652290344,0.0014576092362403,4.370925511738657,0.0001190304756164
2025-04-30 00:15:22.083823400,11.8868232421875,-0.081346739479874,-0.0109700374305248,-0.0608820811478153,-0.0034311136696487,0.1003580794160454,0.9673385536369546,0.1875557551353006,right,0.0009198188781738,-0.4632854568898933,-0.7128611232213675,-8.74391204766035,-0.2246729588006477,-0.0344295054674148,0.00154609978199,4.382489692804217,-0.0022275745868682
2025-04-30 00:15:22.123823400,11.9268232421875,-0.0822028557358372,-0.0189709030091762,-0.0612322080212524,-0.0120572773739695,0.1000713669471478,0.967277371511612,0.1867517931381194,right,-0.0004812479019165,-0.4639340596383736,-0.7201130671110004,-8.740463953033089,-0.2249688753660493,-0.0230204705148935,0.0016443133354187,4.388178844356537,-0.0049318671226501
2025-04-30 00:15:22.163823400,11.9668232421875,-0.0830598181628799,-0.0269717685878276,-0.0615823128133993,-0.0206834413111209,0.0997846293999775,0.9672158924200588,0.1859469598822757,right,-0.0018831491470336,-0.4645820787758893,-0.7273669837620109,-8.737007675099372,-0.2252647429518867,-0.0116114346310496,0.0017426908016204,4.39386098164618,-0.0076354444026947
2025-04-30 00:15:22.203823400,12.0068232421875,-0.0847571360683375,-0.0519890524446964,-0.0621880598370984,-0.0319557338953018,0.0992966409222609,0.9674075294813868,0.1845737616063285,right,0.0073441267013549,-0.4630693515608185,-0.74275722592175,-8.742373586046694,-0.2244897664375743,0.0874320790171623,0.0045099481940269,4.380593503794074,-0.0183615088462829
2025-04-30 00:15:22.243823400,12.0468232421875,-0.0870846602114546,-0.0885345041751861,-0.0628155636981385,-0.0334480553865432,0.0983671103511575,0.9681453036309708,0.1822459405435495,right,0.0121005177497863,-0.4570389032119812,-0.7653869908809662,-8.76677912850678,-0.2215240283673242,0.1774445176124572,0.0043040215969085,4.3276039641454815,-0.0220203101634979
2025-04-30 00:15:22.283823600,12.08682373046875,-0.091063629945571,-0.0614024773240089,-0.0641492625599683,-0.0873312205076217,0.0973371577636615,0.9689738661515996,0.1793860348834506,right,0.015164315700531,-0.4498770743564976,-0.8030615455631166,-8.794304264292121,-0.2179453150180044,0.1379328072071075,0.0031359568238258,4.264468585796654,-0.0344950556755065
2025-04-30 00:15:22.323823400,12.1268232421875,-0.0958387236700091,-0.0121750570833683,-0.06622641196116,-0.1060951054096221,0.0971325809796881,0.96912455764769,0.1779480672892557,right,0.0178347826004028,-0.447780381627072,-0.8458996204882859,-8.799250488522649,-0.2167421759082431,-0.0343371331691741,0.0066754594445228,4.245943333546817,-0.0271373689174652
2025-04-30 00:15:22.363823400,12.1668232421875,-0.1000475381762762,0.0175881348550319,-0.0684090955758475,-0.0722535103559494,0.0974770935510511,0.968447301111766,0.1775727839979564,right,0.0078444480895996,-0.4526740778400295,-0.8808404393576085,-8.774832086580991,-0.2189252846424961,-0.233387678861618,0.0066888481378555,4.289151776154339,0.0028458535671234
2025-04-30 00:15:22.403823400,12.2068232421875,-0.1026724320864127,0.0053646843880414,-0.0700441449667914,-0.0337487496435642,0.0974441045521502,0.9669131418525466,0.176513456056148,right,0.0031327605247497,-0.4656314403345283,-0.8980985942810773,-8.716471667549014,-0.2251165643455603,-0.2196020185947418,0.0045911073684692,4.403058725841343,0.0128886103630065
2025-04-30 00:15:22.443823400,12.2468232421875,-0.1053302074077418,-0.0068587670102715,-0.0716761522494426,0.0047560147941112,0.0974068845365144,0.965337097267375,0.1754087833231574,right,-0.0017330050468444,-0.4785863041465564,-0.915187603182718,-8.656599090388417,-0.2312980995786165,-0.2058163732290268,0.0024761408567428,4.516204628027976,0.0230089724063873
2025-04-30 00:15:22.483823400,12.2868232421875,-0.1066309920345358,-0.0234506055712699,-0.0724175196779137,0.000148476101458,0.096994109509724,0.9644216217899876,0.1739947282923791,right,-0.0167657136917114,-0.4863280725842736,-0.9226983441390096,-8.620377437928319,-0.2350293194360326,-0.0901355296373367,-0.000868871808052,4.583459424394369,0.0380017161369323
2025-04-30 00:15:22.523823400,12.3268232421875,-0.1078841322029041,-0.0142331169918179,-0.0729296761047441,-0.011185273528099,0.0967638075000855,0.9644144518930275,0.1732118784724225,right,-0.0079576969146728,-0.4863244381839111,-0.9335019891608506,-8.619231190502642,-0.2349953074238916,-0.0184244886040687,-0.0012633949518203,4.583427860212326,0.0256798863410949
2025-04-30 00:15:22.563823400,12.3668232421875,-0.1091373079227271,-0.0050156265497207,-0.0734418183561421,-0.0225190222263336,0.0965334487887534,0.9644070355538434,0.1724289863446722,right,0.0008491873741149,-0.4863199932824789,-0.9443049035303294,-8.618075006204844,-0.2349612338011892,0.0532865598797798,-0.0016580075025558,4.583389281767606,0.0133588016033172
2025-04-30 00:15:22.603823400,12.4068232421875,-0.1099130361999008,0.0066912677139043,-0.0738539585856784,-0.0134999779984354,0.0968550970656679,0.9644247594438444,0.172926422296777,right,0.0086343884468078,-0.4857430185924137,-0.9512797840442508,-8.619967103561759,-0.2346265437224127,0.0188862346112728,-0.0013089925050735,4.578386358913779,0.0040877163410186
2025-04-30 00:15:22.643823400,12.4468232421875,-0.1106888733541577,0.0183981619775295,-0.0742660672836416,-0.0044809319078922,0.0971766697403244,0.9644421547442144,0.1734241385847199,right,0.0164185762405395,-0.4851664021630021,-0.9582586831461638,-8.621848679524659,-0.2342917635903655,-0.0155140869319438,-0.0009595975279808,4.573384897364676,-0.0051835179328918
2025-04-30 00:15:22.683823400,12.4868232421875,-0.1096307485882415,0.020969346165657,-0.0739211564657188,0.015334228053689,0.0974156959560238,0.9641511547888608,0.1740958384468149,right,0.0119708180427551,-0.4876034701345355,-0.9479128648944198,-8.611753401967883,-0.2354961862575208,-0.0395851656794548,-0.0009606853127479,4.594512733328342,-0.0008319914340972
2025-04-30 00:15:22.723823400,12.5268232421875,-0.1085694099137364,0.0235405303537845,-0.073576127427344,0.0351493880152702,0.097654558979234,0.9638585057076396,0.1747713360881107,right,0.0075172185897827,-0.4900399763578772,-0.9375565252486616,-8.601600256744026,-0.2367002360805978,-0.0636562407016754,-0.0009628012776374,4.615608420588075,0.0035228133201599
2025-04-30 00:15:22.763823400,12.5668232421875,-0.1069035575219576,0.0167583711445331,-0.072940902319039,0.0373667925596237,0.0978003098478776,0.963569807773898,0.1754014123246337,right,-0.0016535520553588,-0.4926281688585681,-0.9219485486850142,-8.59124369790256,-0.2380086478834909,-0.0486500039696693,-0.0001757517457008,4.6379874256566165,0.0141291320323944
2025-04-30 00:15:22.921746400,12.724746337890624,-0.1033357301748489,-0.0166516378521919,-0.071165208037547,-0.0090954070910811,0.0972880349967447,0.9638382190099484,0.1752516513082112,right,0.0008239421877078,-0.4915531635486967,-0.8918044625729322,-8.59943226505518,-0.2376688699764796,0.0294026210904121,0.0024679522030055,4.628696157959103,-0.0100969886407256
2025-04-30 00:15:22.961746700,12.76474658203125,-0.1036802492902336,0.0024060700088739,-0.0712538694607122,-0.0069140256382524,0.0971916652977081,0.964002634654796,0.1750068301407994,right,0.0005278587341308,-0.4902144311963681,-0.8954076016314327,-8.605280406561493,-0.2370141409107062,0.0141498539596796,0.0009479224681854,4.617117948368192,-0.0135223269462585
2025-04-30 00:15:23.121306000,12.92430615234375,-0.1030362261610843,0.041818406432867,-0.0716343203954118,-0.0128932939842343,0.099741125929685,0.9635948825774996,0.1804164723778338,right,-0.0058160712942481,-0.491550341547363,-0.8892301551055163,-8.599712251040339,-0.2374978697255438,0.005163793452084,-0.0047376449219882,4.6286716080397365,0.0049789892509579
2025-04-30 00:15:23.161218000,12.964218017578125,-0.1033128674707861,0.0275367125868797,-0.0719666105108148,-0.0306932833045721,0.1006241114427238,0.9635337508501622,0.1821898850841377,right,0.0003731250762939,-0.4912450036216793,-0.8917549243427813,-8.600871357947588,-0.2372728915167809,0.0128467306494712,0.00127806852106,4.626031614924967,0.0026096717920154
2025-04-30 00:15:23.201217800,13.0042177734375,-0.1033128674707861,0.013074173592031,-0.0719666105108148,-0.017274810001254,0.1006241114427238,0.9635337508501622,0.1821898850841377,right,0.001548945903778,-0.4912450036216793,-0.8917549243427813,-8.600871357947588,-0.2372728915167809,-0.0038488451391458,0.0014275535941123,4.626031614924967,0.0024982690811157
2025-04-30 00:15:23.241217800,13.0442177734375,-0.1033128674707861,-0.0013883654028177,-0.0719666105108148,-0.0038563357666134,0.1006241114427238,0.9635337508501622,0.1821898850841377,right,0.0027248263359069,-0.4912450036216793,-0.8917549243427813,-8.600871357947588,-0.2372728915167809,-0.0205444190651178,0.0015770494937896,4.626031614924967,0.0023868680000305
2025-04-30 00:15:23.400689400,13.203689453125,-0.1041243776591712,0.0140298493206501,-0.0724107334589009,-0.0223124232143163,0.1006435633715369,0.9632555152284534,0.1819688874175372,right,-0.002509337849915,-0.4933513600518641,-0.8977195318356156,-8.590434719607234,-0.2382570870599791,0.0160932634025812,0.0017738559981808,4.644235087874532,0.0027789913583546
2025-04-30 00:15:23.440601000,13.24360107421875,-0.1042242536878455,0.0137328766286373,-0.0725216410529218,-0.0112211294472217,0.1009991066950725,0.9632948059358653,0.1827012291362446,right,-0.002042444422841,-0.4927058120421992,-0.8988892332021147,-8.593324595829843,-0.2379138476399774,0.0144259398803114,-0.0009695657063275,4.638658164525032,0.001863177283667
2025-04-30 00:15:23.600251000,13.4032509765625,-0.1057176300802354,0.0104616219177842,-0.0735819619359277,-0.0131466435268521,0.1026414556368239,0.963157045567808,0.1857600674149101,right,0.0021043072920292,-0.4921185060193511,-0.9120086078204214,-8.594680102092028,-0.2374425546105375,-8.8135479018e-05,0.0040765819139778,4.633583053217828,0.0013570369919762
2025-04-30 00:15:23.640251000,13.4432509765625,-0.1065302503060069,0.0028456677682697,-0.0739574083593863,-0.0169307123869657,0.1026308521214483,0.9631017490934712,0.1855287027906923,right,0.0013492703437805,-0.492420170808205,-0.918843860667944,-8.592546597194671,-0.2375550043300062,-0.0070888241752982,0.0031663253903388,4.63619002084583,0.0005678236484527
2025-04-30 00:15:23.680251000,13.4832509765625,-0.1073430923050608,-0.0047702863812446,-0.0743328453325537,-0.0207147803157567,0.1026201919043785,0.9630462061769098,0.1852969087295638,right,0.0005937218666076,-0.4927216036029514,-0.9256781636673956,-8.590406662556529,-0.2376674129757657,-0.0140895117074251,0.0022559762001037,4.638794650386274,-0.0002212226390838
2025-04-30 00:15:23.720251000,13.5232509765625,-0.1084694890320069,-0.0261519718915224,-0.0748015521962101,-0.0068864421918988,0.1023567338353765,0.9629597795530328,0.1844497675293096,right,0.0050402879714965,-0.4934317616184605,-0.934996903893724,-8.586081785094738,-0.2379840734714939,-0.0362955555319786,0.0043174996972084,4.64492949987948,0.0005830228328704
2025-04-30 00:15:23.760251000,13.5632509765625,-0.1091090322594738,-0.0382032208144664,-0.0749565746547673,0.0119888605549931,0.1016328490999685,0.9628582803984096,0.1827464775431611,right,0.0028483867645263,-0.4947580879090709,-0.9398162138089536,-8.579350431013108,-0.2386554029688894,-0.042162112891674,0.0025282129645347,4.656380575959385,-0.0006819069385528
2025-04-30 00:15:23.919561200,13.722561279296874,-0.1112043807707833,0.0086685772985219,-0.0755686017773464,-0.0151142226532101,0.0997120914464504,0.9624679451505788,0.1780930888749944,right,-0.0031901528127491,-0.4991342455337088,-0.9555203442234546,-8.557028709089755,-0.2408367902944504,-0.0059936651960015,0.0014506673905998,4.694105034197866,0.003400050336495
2025-04-30 00:15:24.079210800,13.882210693359376,-0.1115721229603069,-0.0079759154468774,-0.0759327576729458,-0.0189692545682191,0.1006184870308903,0.9624720945033692,0.1799134077934177,right,-0.0022016481962054,-0.4982611281481269,-0.9591230448905378,-8.560746268308161,-0.2403281794874779,0.0216608196496963,0.0008189759682863,4.686585452347994,-0.0004517394409049
2025-04-30 00:15:24.238860500,14.041860595703126,-0.1130768917105211,0.0102356066927313,-0.0767210865599744,-0.0103063723072409,0.1009671724415863,0.9623125949026896,0.1802392892642157,right,0.0013652022462338,-0.4989458739366764,-0.9716415310062468,-8.556102826416492,-0.2405702522544107,-0.0177606083452701,-0.0002276906743645,4.692482985953986,0.0013780698645859
2025-04-30 00:15:24.278772700,14.081772705078125,-0.1131744642285816,0.0016272680368274,-0.076846526186461,-0.0113037368282675,0.1011594217257294,0.9621633989813834,0.1805800865172701,right,0.0005269699613563,-0.4999689808685305,-0.9719337188858538,-8.551233759075403,-0.2410457603742024,-0.0251498874276876,0.0008006285643205,4.701290561787784,0.0009943062905222
2025-04-30 00:15:24.438422500,14.241422607421876,-0.1145240805771103,0.0161555930972099,-0.0775525287564441,-0.005234258249402,0.1013869489970307,0.9619498637950152,0.1806722891446483,right,0.0039310441352427,-0.5012168103389922,-0.9828025380983948,-8.54407921114564,-0.2415756911494623,0.0149254389107227,0.0024165716022253,4.7120261830747125,-0.0021109892986714
2025-04-30 00:15:24.478422500,14.281422607421876,-0.1143089987225142,0.0066961143165826,-0.0774752759540219,-0.0013668127357959,0.10150271502502,0.961979147936638,0.1809768464664582,right,0.0021482706069946,-0.500928130269033,-0.981119991838932,-8.545641638156772,-0.2414355561733467,0.0067991157993674,0.0018461197614669,4.709543134087324,0.0002542436122894
2025-04-30 00:15:24.518422500,14.321422607421876,-0.1143089987225142,-8.67736525833e-05,-0.0774752759540219,-0.0041374959982931,0.10150271502502,0.961979147936638,0.1809768464664582,right,0.0006172657012939,-0.500928130269033,-0.981119991838932,-8.545641638156772,-0.2414355561733467,0.0039596483111381,0.0014090090990066,4.709543134087324,-0.0001311600208282
2025-04-30 00:15:24.558422500,14.361422607421876,-0.1143089987225142,-0.0007341321324929,-0.0774752759540219,-0.0066990866325795,0.10150271502502,0.961979147936638,0.1809768464664582,right,0.0003986358642578,-0.500928130269033,-0.981119991838932,-8.545641638156772,-0.2414355561733467,0.0034023735206574,0.0020003765821456,4.709543134087324,3.159046173e-06
2025-04-30 00:15:24.598422500,14.401422607421877,-0.1143089987225142,-0.0030124322511255,-0.0774752759540219,-0.0070126741193234,0.10150271502502,0.961979147936638,0.1809768464664582,right,0.0002581477165222,-0.500928130269033,-0.981119991838932,-8.545641638156772,-0.2414355561733467,-0.0027723333332687,0.0011010468006134,4.709543134087324,-0.0012732446193695
2025-04-30 00:15:24.638422500,14.441422607421876,-0.1149073218786236,0.0017146533355116,-0.0777505282657592,-0.0069056921638548,0.1014999292014914,0.961939784458154,0.1808142273653713,right,0.001840591430664,-0.5011222281001195,-0.9861280292592942,-8.544145262119173,-0.241505105409677,-0.0028372558299452,0.0015801414847373,4.711212820865214,-0.0028546750545501
2025-04-30 00:15:24.678422500,14.481422607421877,-0.1149073218786236,0.0111591471359133,-0.0777505282657592,0.0003876029513776,0.1014999292014914,0.961939784458154,0.1808142273653713,right,0.0013123154640197,-0.5011222281001195,-0.9861280292592942,-8.544145262119173,-0.241505105409677,-0.0009266264969483,0.0008623898029327,4.711212820865214,-0.0016452968120574
2025-04-30 00:15:24.718422500,14.521422607421876,-0.1149616505717733,0.0073110456578433,-0.0778446718672853,-0.006554699037224,0.1017611920179467,0.9618952421133518,0.1813395032170151,right,-0.0013805031776428,-0.5012472311535169,-0.9865246273614464,-8.543506379693746,-0.2415421972115579,-0.005268023815006,0.0014573633670806,4.712287756620348,0.0013666749000549
2025-04-30 00:15:24.758422500,14.561422607421877,-0.1153954332704475,-0.0032775974832475,-0.0780689816630379,-0.0128494380041956,0.101856469692422,0.9618550265944116,0.1814234656192659,right,-0.0003396272659301,-0.501398354239977,-0.9901485900122672,-8.542370069140196,-0.2415897230811363,-0.0005756076425313,0.0008847191929817,4.7135874410420655,0.0003629922866821
2025-04-30 00:15:24.798422500,14.601422607421876,-0.1159701490625609,-0.0055379215627908,-0.0783121200160243,-0.0049377540126442,0.1018105900378983,0.961861257825154,0.1811883508866175,right,0.0020865201950073,-0.5012657376336622,-0.9951301778171212,-8.542420338022708,-0.2415056919433527,0.0017389147542417,0.0018428862094879,4.712447038835287,0.0002771615982055
2025-04-30 00:15:24.838422500,14.641422607421877,-0.1159701490625609,-0.0021643347572535,-0.0783121200160243,-0.0042821387760341,0.1018105900378983,0.961861257825154,0.1811883508866175,right,0.000954270362854,-0.5012657376336622,-0.9951301778171212,-8.542420338022708,-0.2415056919433527,-0.0068726274184882,0.0014709904789924,4.712447038835287,0.0012239515781402
2025-04-30 00:15:24.878422500,14.681422607421876,-0.1159701490625609,-0.0016054040752351,-0.0783121200160243,-0.0057750777341425,0.1018105900378983,0.961861257825154,0.1811883508866175,right,0.0028186440467834,-0.5012657376336622,-0.9951301778171212,-8.542420338022708,-0.2415056919433527,-0.0033163917250931,0.0016749948263168,4.712447038835287,0.0030911266803741
2025-04-30 00:15:24.918422500,14.721422607421877,-0.1159701490625609,-0.0034493643324822,-0.0783121200160243,0.0027422509156167,0.1018105900378983,0.961861257825154,0.1811883508866175,right,0.002012014389038,-0.5012657376336622,-0.9951301778171212,-8.542420338022708,-0.2415056919433527,-0.009241484105587,0.0016909092664718,4.712447038835287,0.0052317678928375
2025-04-30 00:15:24.958422800,14.7614228515625,-0.1161218176133976,-0.0012882819864898,-0.078378317189804,-0.0015130601823329,0.1017034927679543,0.9617734107312828,0.180900802988986,right,-0.0003900527954101,-0.50203198560407,-0.9960071067821232,-8.538679982450605,-0.2418787420828483,-0.010931346565485,0.0006214305758476,4.719035477314889,0.0025104880332946
2025-04-30 00:15:24.998422500,14.801422607421877,-0.1161603451190922,0.0020015854388475,-0.0784359185980121,-0.0046023605391383,0.1018192513903711,0.9617173249438422,0.1811198109843243,right,-0.0005403757095336,-0.5023763929310769,-0.9961476842965932,-8.53702695454657,-0.2420342645495083,-0.0062639908865094,0.0006113499402999,4.721996080686152,0.0019767582416534
2025-04-30 00:15:25.038422500,14.841422607421874,-0.1161603451190922,0.0052914530970156,-0.0784359185980121,-0.0076916608959436,0.1018192513903711,0.9617173249438422,0.1811198109843243,right,-0.0005220770835876,-0.5023763929310769,-0.9961476842965932,-8.53702695454657,-0.2420342645495083,-0.0015966347418725,0.0005869641900062,4.721996080686152,0.0017449259757995
2025-04-30 00:15:25.078422500,14.881422607421875,-0.1161603451190922,0.0060627735219895,-0.0784359185980121,-0.0069384579546749,0.1018192513903711,0.9617173249438422,0.1811198109843243,right,0.0006049871444702,-0.5023763929310769,-0.9961476842965932,-8.53702695454657,-0.2420342645495083,0.0008589248172938,0.000341348350048,4.721996080686152,0.0011845827102661
2025-04-30 00:15:25.118422500,14.921422607421874,-0.1162489191044136,0.003293166635558,-0.0785549906886439,-0.0040277689695358,0.1020952954322622,0.9616484929148637,0.1816611609427704,right,-0.0001279115676879,-0.5026756173982196,-0.9967398780360818,-8.5355346701622,-0.2421527763810329,-0.001440568594262,0.0002461969852447,4.724567684739828,0.0017200708389282
2025-04-30 00:15:25.158422500,14.961422607421875,-0.1164470231125168,-0.0016440988983958,-0.0786853435989261,-0.0038508642464876,0.1022328124659905,0.9616037054369452,0.1818902852183747,right,0.0004744529724121,-0.5028762515021807,-0.9983206444215028,-8.534395436999201,-0.2422303749455323,0.002554073696956,0.0009368434548377,4.7262917320534585,0.0018568634986877
