time,seconds_elapsed,roll,rotationRateZ,quaternionY,rotationRateY,quaternionZ,quaternionW,yaw,devicelocation,accelerationZ,pitch,gravityX,gravityZ,quaternionX,rotationRateX,accelerationX,gravityY,accelerationY
2025-04-30 01:09:03.400886000,0.564885986328125,1.0804344418167682,0.0326331816613674,0.5104729205952163,-0.0122742876410484,1.354332135174749e-17,0.8563742987828196,0.0801460476793185,left,-0.3793947994709015,-0.1335109059902962,8.574069860261678,-4.577293302980065,-0.0777198809475245,-0.183013379573822,-0.8768506050109863,1.3054084984533487,0.3763167858123779
2025-04-30 01:09:03.440886000,0.604885986328125,0.3121621832448552,0.0623127445578575,0.1799725088449258,0.082945130765438,-0.1677630331394354,0.950634637658767,-0.2800994187362017,left,0.0113804936408996,-0.4333550824245231,2.7333856842160222,-8.470014442503452,-0.1891013767424949,0.1975787281990051,-0.2854767441749573,4.1179900305897,0.158133864402771
2025-04-30 01:09:03.480886000,0.644885986328125,0.0182843324640008,0.0752633139491081,0.0615907642803665,0.1267549991607666,-0.2190514433654734,0.9464411206672158,-0.4504239663779372,left,0.0361195802688598,-0.4786512421419296,0.1591479393017478,-8.703093715059756,-0.2290683030429582,0.2319706827402115,-0.0070233456790447,4.5167707374781365,0.0958332121372222
2025-04-30 01:09:03.520886000,0.684885986328125,0.0007606575640219,0.0635918229818344,0.0665068189675353,0.0923590958118438,-0.2180969641922142,0.931722824418017,-0.4596475104112386,left,-0.0045024752616882,-0.5892676473286196,0.0062013833822857,-8.152735376259685,-0.2826712235158842,0.1162259802222251,0.0174186062067747,5.450068655434251,-0.0215466618537902
2025-04-30 01:09:03.560886000,0.724885986328125,0.0058453704297885,0.0554786324501037,0.0682660159645983,0.0198632627725601,-0.2167276167431179,0.9320095526996096,-0.4551804746777672,left,0.0058400034904479,-0.5894622478875325,0.0476492426331387,-8.151537690907716,-0.2823596812777668,-0.0894779488444328,0.013796143233776,5.45165504784286,-0.0254653096199035
2025-04-30 01:09:03.600885800,0.7648857421875,0.0094401389386171,0.0466165840625762,0.0695906887365121,-0.0148739777505397,-0.2154484435047091,0.9320544688771768,-0.4514546461234704,left,-0.0023587942123413,-0.5911071903405277,0.0768670122471172,-8.14233556279838,-0.2828666658821165,-0.1667326390743255,0.0109063060954213,5.465056965729594,-0.0206215381622314
2025-04-30 01:09:03.640886000,0.804885986328125,0.013046179075217,0.0377545319497585,0.0709150735113267,-0.0496112219989299,-0.2141684908542156,0.9320959223334044,-0.4477175831814871,left,-0.0105642080307006,-0.5927407642646303,0.1061114278394263,-8.13306738371551,-0.2833725487613987,-0.2439873367547989,0.0080137504264712,5.478351331588626,-0.0157669186592102
2025-04-30 01:09:03.680886000,0.844885986328125,0.0151392252416103,0.0342350490391254,0.0715993846225478,-0.0250383708626031,-0.2132648541316842,0.932199297223583,-0.4451827712774444,left,-0.0075552463531494,-0.593389894962886,0.1230802078948821,-8.129270329520105,-0.283542027655984,-0.1636160612106323,0.0053202640265226,5.4836301487743855,-0.0110668540000915
2025-04-30 01:09:03.720886000,0.884885986328125,0.0172351164569293,0.0307155679911375,0.0722835872510141,-0.0004655197262763,-0.2123609614758649,0.9323013846494989,-0.4426452587361539,left,-0.0045477151870727,-0.5940345358043149,0.1400570433926302,-8.12545866227746,-0.2837111100566461,-0.0832447931170463,0.0026259683072566,5.488869802993536,-0.0063627958297729
2025-04-30 01:09:03.760886000,0.924885986328125,0.0193339072545133,0.0271960888057947,0.0729677127673099,0.0241073295474052,-0.2114567846936982,0.9324022371265306,-0.4401050195089419,left,-0.001541793346405,-0.5946748779500197,0.1570423818572424,-8.121630628421903,-0.283879863542978,-0.0028735250234603,-6.92307949066e-05,5.494072632333636,-0.0016549229621887
2025-04-30 01:09:03.800886000,0.964885986328125,0.0208210416244158,0.0195203255861997,0.0734649627634598,0.0279452688992023,-0.2112585618997885,0.9325373343213508,-0.4391897938874051,left,-0.0014086365699768,-0.5940300857639309,0.1691938795577734,-8.124928500923513,-0.2834551678186997,-0.0141922459006309,0.0026061926037073,5.488833562636375,-0.0007058978080749
2025-04-30 01:09:03.840885800,1.0048857421875,0.0223067888428335,0.0118445642292499,0.0739621772438146,0.0317832082509994,-0.2110602738804025,0.932671922943226,-0.438276183496492,left,-0.0012770295143127,-0.5933840975879338,0.1813443178123794,-8.128211175855993,-0.2830303177258111,-0.0255109667778015,0.005281725898385,5.483582802501321,0.0002443194389343
2025-04-30 01:09:03.880886000,1.044885986328125,0.0237934299236955,0.01880444586277,0.0747419720955853,0.0244772396981716,-0.2109493988544081,0.932438536449104,-0.4376814028967898,left,0.0010303854942321,-0.5950558773100144,0.1932094728522002,-8.118756534290313,-0.2836763279771735,-0.0589020438492298,0.0067983511835336,5.497167091217637,-0.0007992386817932
2025-04-30 01:09:03.920886000,1.084885986328125,0.0251392120195132,0.0224963780492544,0.0753437991377141,0.0107864560559391,-0.210398474837888,0.932280846543152,-0.4361918722053247,left,-0.0003477931022644,-0.5968824427665669,0.2038826416284777,-8.108437384849786,-0.284443396930876,-0.0528822094202041,0.0055583342909812,5.511991735383868,-0.0024129152297973
2025-04-30 01:09:03.960886000,1.124885986328125,0.0264900058447891,0.0261883120983839,0.0759455500353575,-0.0029043285176157,-0.2098472910173397,0.9321220023967532,-0.4346975427620608,left,-0.0017294287681579,-0.5987073861661214,0.2145684872232377,-8.098085502183437,-0.2852101036642943,-0.0468623749911785,0.0043170526623725,5.526784815368056,-0.004023253917694
2025-04-30 01:09:04.000886000,1.164885986328125,0.0273027596855297,0.0166311226785182,0.0762342207577668,-0.0130426408722996,-0.2091890358282946,0.9320605295741746,-0.4331102175763435,left,0.0006107687950134,-0.6000605046274827,0.2209458037028089,-8.090425927340984,-0.2858171040425604,-0.0346733853220939,-0.0019042268395423,5.537741093668341,-0.0058134794235229
2025-04-30 01:09:04.040886000,1.204885986328125,0.0275020875766616,0.004319155588746,0.0763559290980846,0.0073583116754889,-0.2091719488496299,0.9320033918708348,-0.4330339128182069,left,-0.0041589736938476,-0.6004553309436163,0.2224983121081255,-8.08819539180994,-0.2859834971374849,-0.0313849672675132,-0.0005659870803356,5.540936090317368,-0.002596378326416
2025-04-30 01:09:04.080885800,1.2448857421875,0.0275020875766616,-0.0079928133636713,0.0763559290980846,0.0277592651546001,-0.2091719488496299,0.9320033918708348,-0.4330339128182069,left,-0.0087013244628906,-0.6004553309436163,0.2224983121081255,-8.08819539180994,-0.2859834971374849,-0.0280965454876422,0.00093056820333,5.540936090317368,0.0009465217590332
2025-04-30 01:09:04.120886000,1.284885986328125,0.0292022376430058,0.0156673267483711,0.0772902439170914,0.0446654334664344,-0.2093130508864913,0.9317177517736516,-0.4329010897890112,left,-0.0050181150436401,-0.6020585457131136,0.2359894426482729,-8.078915522289275,-0.2865591818914234,-0.0517490766942501,0.0013371258974075,5.553900785830616,0.004557728767395
2025-04-30 01:09:04.160886000,1.324885986328125,0.0305883586516973,0.0180229451507329,0.0778882874546093,0.0223641693592071,-0.2089960535770548,0.9316233397187316,-0.4318489480886644,left,0.0027076601982116,-0.6030880944490392,0.2470125756396912,-8.072861044555902,-0.2869355989595475,-0.0290126986801624,0.0006436184048652,5.562219116842747,-0.0022516250610351
2025-04-30 01:09:04.200886000,1.364885986328125,0.0319767541419206,0.02037856541574,0.0784862772345924,6.29052519798e-05,-0.2086789423975041,0.9315282576739914,-0.4307943001512532,left,0.0104317069053649,-0.6041162763185605,0.2580376631261781,-8.066790200209617,-0.2873118011277332,-0.0062763225287199,-5.01293689012e-05,5.570520496720075,-0.0090593099594116
2025-04-30 01:09:04.240886000,1.404885986328125,0.0324543060748847,0.0072054527699947,0.0785340042033771,-0.0045911241322755,-0.208318534745363,0.9316659228446752,-0.4298526841769109,left,-0.0039408802986145,-0.6037195902134079,0.2619616316368803,-8.06887402074635,-0.2871138034022937,0.018097011372447,-0.00020557269454,5.567318485808372,-0.005749762058258
2025-04-30 01:09:04.280886000,1.444885986328125,0.0325418183511442,0.0053585129790008,0.0785707195727439,0.0025036390870809,-0.2084370866151614,0.9316910744458818,-0.4300624571288204,left,-0.0021173357963562,-0.6033762888992757,0.2627299308619462,-8.070760857406258,-0.28693615953265,0.0083741815760731,-0.0012200940400362,5.564546683007478,-0.0037300586700439
2025-04-30 01:09:04.320886000,1.484885986328125,0.0326294498551111,0.0035115727223455,0.0786074359097957,0.0095984023064374,-0.2085555859695816,0.9317161978540291,-0.4302721078261473,left,-0.0002938508987426,-0.6030329637001401,0.2634994904623366,-8.072646525022387,-0.2867584823570522,-0.0013486491516232,-0.0022347271442413,5.561773711162806,-0.0017101764678955
2025-04-30 01:09:04.360886000,1.524885986328125,0.0326294498551111,0.0016646325821056,0.0786074359097957,0.0166931673884391,-0.2085555859695816,0.9317161978540291,-0.4302721078261473,left,0.0013372898101806,-0.6030329637001401,0.2634994904623366,-8.072646525022387,-0.2867584823570522,-0.011071478947997,-0.0031708870083093,5.561773711162806,2.68816947937e-05
2025-04-30 01:09:04.400886000,1.564885986328125,0.0325404397059192,-0.0095769632607698,0.0787590497557842,0.0144254770129919,-0.2089941875002099,0.9315416303617766,-0.4312672391973908,left,0.0017971396446228,-0.6035379710843234,0.2626895257863216,-8.06986186273992,-0.2869644051942421,-0.0127790812402963,-0.0021176934242248,5.565851920387148,0.0004956126213073
2025-04-30 01:09:04.440886000,1.604885986328125,0.032450775065982,-0.0208185613155365,0.0789106322311881,0.012157785706222,-0.2094327160638814,0.9313668207442112,-0.4322627640386923,left,0.0022568106651306,-0.6040429509457312,0.2618747205384075,-8.067074862369894,-0.2871702604518388,-0.0144866835325956,-0.0010640211403369,5.5699289605677125,0.0009644627571105
2025-04-30 01:09:04.480886000,1.644885986328125,0.0323605291165675,-0.032060157507658,0.0790622166419617,0.0098900943994522,-0.2098711959829148,0.93119184970977,-0.4332587606484021,left,0.0027163028717041,-0.6045479831627458,0.2610556592404842,-8.0642861084342,-0.2873760490975276,-0.0161942858248949,-9.9260360002e-06,5.574004247182607,0.0014334321022033
2025-04-30 01:09:04.520886000,1.684885986328125,0.0322770683849058,-0.0288683474063873,0.0792623084842963,0.0176712553948164,-0.2104130530087546,0.9309741478933444,-0.434481618801737,left,0.0014508366584777,-0.6051773058407004,0.2602693494346924,-8.060800604406,-0.2876300347986648,-0.0132039040327072,-5.7574361562e-06,5.579080819794536,0.000765323638916
2025-04-30 01:09:04.560886000,1.724885986328125,0.0321925959331232,-0.0256765373051166,0.079462350714306,0.0254524163901805,-0.2109547922937396,0.9307559093109148,-0.4357049664063283,left,0.0001850724220275,-0.6058064468369474,0.2594753860454075,-8.057312177768349,-0.2878838923888808,-0.0102135222405195,-7.953494787216187e-07,5.584153885275125,9.7632408142e-05
2025-04-30 01:09:04.600885800,1.7648857421875,0.0324296196425201,-0.0312827117741107,0.0798441817726817,0.0376331359148025,-0.2117758517708432,0.9305282391587358,-0.4374099390990745,left,-0.0019362568855285,-0.6060651304341456,0.2613383121067658,-8.055806449380517,-0.2879115666361874,0.0021800901740789,0.0038894172757864,5.5862388748556375,0.0025156140327453
2025-04-30 01:09:04.640886000,1.804885986328125,0.0331263192550923,-0.0224764719605445,0.0802944900076458,0.0343783609569072,-0.2123534654360263,0.9304217386624626,-0.4384255100423428,left,-1.28149986267e-05,-0.6058680164922702,0.2669872047139331,-8.056722979703546,-0.2877051118989538,0.0011567240580916,0.0036233775317668,5.584650144359469,0.0023363828659057
2025-04-30 01:09:04.680886000,1.844885986328125,0.0338231242545839,-0.0136702340096235,0.08074474351739,0.0311235841363668,-0.2129309652310952,0.9303145681763688,-0.43944108119953,left,0.0019100308418273,-0.6056713716759766,0.2726382162129506,-8.057632495763897,-0.2874984755677356,0.0001333579421043,0.0033571254462003,5.583064920994639,0.0021567344665527
2025-04-30 01:09:04.720886000,1.884885986328125,0.0345200708742357,-0.004863996990025,0.0811949544630745,0.0278688073158264,-0.2135083716076284,0.9302069416327085,-0.4404568133673756,left,0.003831923007965,-0.6054754474934071,0.278291638864763,-8.058533243995905,-0.2872916979967516,-0.0008900081738829,0.0030906107276678,5.581484958326816,0.0019766092300415
2025-04-30 01:09:04.760886000,1.924885986328125,0.0353321732386284,0.0001561879180371,0.0815400627121007,0.0175895169377326,-0.2136008150719073,0.9302146943010274,-0.4403927986082198,left,0.003749668598175,-0.6052453944496389,0.2848812646544538,-8.05958830600679,-0.2871003071340324,0.0050570638850331,0.0038256049156188,5.579630270370841,-0.000400424003601
2025-04-30 01:09:04.800886000,1.964885986328125,0.0361441812483587,0.0051763732917606,0.0818851536870717,0.0073102246969938,-0.2136931330538509,0.9302221766509742,-0.440328724198531,left,0.0036668181419372,-0.6050150911466106,0.2914720412216149,-8.060637522798777,-0.2869088224340307,0.0110041359439492,0.0045605022460222,5.577772659805417,-0.0027772188186645
2025-04-30 01:09:04.840885800,2.0048857421875,0.0363645122720306,-0.0080762524157762,0.0819487314117339,-0.0019166035344824,-0.2137438864861247,0.9302715456530584,-0.4403486540426105,left,-0.0006654262542724,-0.6046040787734136,0.2933313688200898,-8.062863966676593,-0.2866927981693398,0.0092141404747962,0.0033146701753139,5.574456667125225,-0.0027058124542236
2025-04-30 01:09:04.880886000,2.044885986328125,0.0363645122720306,-0.0003356826491653,0.0819487314117339,-0.0127373440191149,-0.2137438864861247,0.9302715456530584,-0.4403486540426105,left,0.0020420551300048,-0.6046040787734136,0.2933313688200898,-8.062863966676593,-0.2866927981693398,0.0090708676725626,-0.0007352270185947,5.574456667125225,-0.0064443945884704
2025-04-30 01:09:04.920886000,2.084885986328125,0.0363618525411229,0.0093426499515771,0.0818433730788395,-0.0076181013137102,-0.213576142303276,0.9303837678632844,-0.4399639891596769,left,-0.0022978782653808,-0.6041216789084908,0.293407667193003,-8.065551013803482,-0.2864838524968081,0.015101421624422,0.0004316233098506,5.5705643358618016,-0.00565105676651
2025-04-30 01:09:05.080797700,2.244797607421875,0.0373132142917588,-0.000188356032595,0.081906128703178,-0.0175603963434696,-0.2121605527618699,0.9305613102316432,-0.436674425444741,left,0.00136877479963,-0.6050289088424142,0.3008921229305677,-8.060214328950643,-0.286940445864508,-0.0433731786906719,0.001101758563891,5.577883718964457,0.0039982581511139
2025-04-30 01:09:05.120797700,2.284797607421875,0.0368649712867615,-0.0013819802552461,0.0817700371549268,-0.0106767807155847,-0.2119769740162151,0.9304521341657784,-0.4364696286447019,left,0.0002529025077819,-0.6060411099147697,0.2970709024082869,-8.0547022875309,-0.2874684968865285,-0.0276787020266056,-0.0004127342253923,5.586045398110151,0.0030505657196044
2025-04-30 01:09:05.160797700,2.324797607421875,0.0364166513216306,-0.0025756044778972,0.0816339020749311,-0.0037931650876998,-0.2117932979812843,0.9303426352661628,-0.4362651834608413,left,-0.0008638501167297,-0.6070533497413678,0.2932537735392339,-8.04917972471714,-0.287996439974737,-0.0119842234998941,-0.0019276421517133,5.594201232036948,0.0021033287048339
2025-04-30 01:09:05.200797400,2.36479736328125,0.0359682484616981,-0.0037692287005484,0.0814977558014602,0.0030904500745236,-0.2116096296878342,0.9302328699189152,-0.4360613717357607,left,-0.0019818544387817,-0.6080657833053773,0.2894406632581726,-8.043646640509367,-0.2885243094027729,0.0037102550268173,-0.0034429784864187,5.602352974310517,0.0011565685272216
2025-04-30 01:09:05.240797400,2.40479736328125,0.0361758427735323,-0.0027708949055522,0.0816568533097616,0.0123570952564477,-0.2119719562278517,0.9302063029518544,-0.4367567308223969,left,-0.0001583099365234,-0.6076909998779365,0.2911863926806487,-8.045684283816813,-0.2882991868150408,0.004696749150753,-0.001273076981306,5.599336256837844,0.0041897296905517
2025-04-30 01:09:05.280797700,2.444797607421875,0.0363836968325615,-0.0017725611105561,0.0818159335440076,0.0216237399727106,-0.2123342136716525,0.9301793606356652,-0.4374518422662605,left,0.0016650557518005,-0.6073161254048602,0.2929350447125732,-8.047720173558591,-0.2880739703900265,0.0056832432746887,0.0008965022861957,5.596317785799503,0.0072231292724609
2025-04-30 01:09:05.320797700,2.484797607421875,0.0372955224607665,0.0054014669731259,0.0821654345134612,0.0128647265955805,-0.2124338938707325,0.9302409247467234,-0.4373532238133329,left,0.0062753558158874,-0.6067169161835807,0.3003980010043829,-8.05079885035157,-0.2877017898262151,0.0220667794346809,0.0037904810160398,5.591491388556361,-0.0041102766990661
2025-04-30 01:09:05.360797700,2.524797607421875,0.0370415219582948,-0.0001733605749905,0.0819748381074341,0.0085418876260519,-0.212592713044192,0.9303945824368556,-0.437710561355505,left,0.0022862553596496,-0.6054894220641595,0.2986070442006923,-8.057728357353806,-0.2871416399102588,0.0186301283538341,0.0043432265520095,5.581597771051526,-0.0015512704849243
2025-04-30 01:09:05.400797700,2.564797607421875,0.0367883056120546,-0.0057481881231069,0.081784212266192,0.0042190491221845,-0.2127514106060566,0.9305478365847992,-0.4380671000337759,left,-0.0017040967941284,-0.6042617806182695,0.2968184985497966,-8.064645004874468,-0.2865813558028014,0.0151934782043099,0.0048957262188196,5.571694801196456,0.0010086894035339
2025-04-30 01:09:05.440797400,2.60479736328125,0.0367883056120546,0.0090788267552852,0.081784212266192,-0.0066434084437787,-0.2127514106060566,0.9305478365847992,-0.4380671000337759,left,-0.0037005543708801,-0.6042617806182695,0.2968184985497966,-8.064645004874468,-0.2865813558028014,0.0025068717077374,0.000955618917942,5.571694801196456,0.0013744831085205
2025-04-30 01:09:05.480797400,2.64479736328125,0.0366906493358183,-0.0023690545931458,0.0817149638935924,-0.0106984740123152,-0.2124689319748344,0.9305301357904724,-0.4375178325187082,left,-0.0004575848579406,-0.6048058052343936,0.2959197048128582,-8.061643484970928,-0.2868679568718039,0.001720979809761,-0.0003190878778696,5.576084560588002,-0.0009234547615051
2025-04-30 01:09:05.520797700,2.684797607421875,0.0365932930355153,-0.0138169350102543,0.0816457164886774,-0.0147535391151905,-0.2121864854074118,0.9305122492569512,-0.4369685735326613,left,0.0027851462364196,-0.6053499067432114,0.2950237971527502,-8.058639042457937,-0.2871545246348526,0.0009350880281999,-0.0015941206365823,5.580472566413879,-0.0032212734222412
2025-04-30 01:09:05.560797700,2.724797607421875,0.0364962483853841,-0.0252648163586854,0.0815764306649132,-0.0188086051493883,-0.211903962002292,0.930494253821933,-0.4364191038027369,left,0.0060275793075561,-0.6058940489346939,0.2941309034336358,-8.05563226185739,-0.2874410379471526,0.0001491961884312,-0.002869414165616,5.584859987717866,-0.0055189132690429
2025-04-30 01:09:05.600797700,2.764797607421875,0.0354068517948286,-0.0237841103225946,0.0813068736640357,-0.0052786404266953,-0.2125079774326809,0.9303620131637376,-0.438055147176446,left,0.0024389028549194,-0.6059148687886121,0.2853508549275808,-8.055831583821773,-0.2874997009295444,0.0024349819868803,-0.0039467979222536,5.585027745500207,-0.0017762780189514
2025-04-30 01:09:05.640797700,2.804797607421875,0.0343173708231684,-0.0223034042865037,0.0810372558573592,0.0082513252273201,-0.2131118994445345,0.9302293164479754,-0.4396912217630083,left,-0.001149833202362,-0.6059340331310958,0.2765703314974904,-8.056030905786157,-0.2875581621408421,0.004720767494291,-0.005024129524827,5.585182059279084,0.0019676089286804
2025-04-30 01:09:05.680797700,2.844797607421875,0.0340878272567064,-0.0115060312673449,0.0810348283567092,0.0151479486376047,-0.2136243200601571,0.930203296959531,-0.4408328245942714,left,-0.0031223893165588,-0.6053468651186068,0.274832840180397,-8.059370279341936,-0.2872626450876098,0.0230544134974479,-0.0024189446121454,5.580448016494512,0.0008213520050048
2025-04-30 01:09:05.720797400,2.88479736328125,0.0341428646538671,-0.0154037214815616,0.0810627889943819,0.0125212939456105,-0.2139125845181044,0.9302540732511464,-0.4413949506929214,left,-0.0027921199798583,-0.6045785945380019,0.2754226775660179,-8.063637873658537,-0.2868757755728927,0.0172720905393362,-0.0006391368806362,5.574251499941945,-0.0011441111564636
2025-04-30 01:09:05.760797400,2.92479736328125,0.0341983997915169,-0.0193014107644557,0.0810907192291548,0.0098946392536163,-0.2142007516867757,0.9303045267090112,-0.4419566584521805,left,-0.0024623274803161,-0.6038101875082647,0.2760168623331934,-8.067900791800021,-0.2864888051726285,0.0114897666499018,0.0011402312666177,5.56804972269237,-0.0031090378761291
2025-04-30 01:09:05.800797700,2.964797607421875,0.033858658460346,-0.0178098585456609,0.0811102717489484,0.0107490299269557,-0.2147060868640845,0.9301809392072206,-0.4431511095059215,left,-0.0016151666641235,-0.603873433599818,0.273263928629551,-8.067641848602891,-0.2865062869681133,0.0032363263890147,0.0023558940738439,5.568560594823956,-0.0012527108192443
2025-04-30 01:09:05.840797700,3.004797607421875,0.0338165623111403,-0.01396354008466,0.0812292015891614,0.0106316749006509,-0.2151289447180184,0.9300746358092796,-0.4440763874886133,left,-0.000582993030548,-0.6039314089176558,0.2729133798925205,-8.067330882957577,-0.2865003021980249,0.0032978989183902,0.0017710197716951,5.569028212335706,6.1810016632e-05
2025-04-30 01:09:05.880797700,3.044797607421875,0.0337657973000672,-0.0137960743159055,0.081301364609343,0.0089324535802006,-0.2154328714965896,0.930004877821908,-0.4447456149820676,left,-0.000400424003601,-0.6039307198649164,0.2725039771077223,-8.067348418614268,-0.2864782249861661,0.0039959982968866,0.0026241745799779,5.569022951638698,0.000531256198883
2025-04-30 01:09:05.920797700,3.084797607421875,0.0337657973000672,-0.0136286094784736,0.081301364609343,0.0072332322597503,-0.2154328714965896,0.930004877821908,-0.4447456149820676,left,-0.000219702720642,-0.6039307198649164,0.2725039771077223,-8.067348418614268,-0.2864782249861661,0.0046940972097218,0.0034355614334344,5.569022951638698,0.0010000467300415
2025-04-30 01:09:05.960797400,3.12479736328125,0.0332592079027613,-0.0098425392061471,0.0811252679103973,0.0010822131298482,-0.2157359744554346,0.930015791014994,-0.4455260850691862,left,-0.0005435943603515,-0.6034226681168419,0.2685111628782003,-8.070311944594978,-0.2862643506563279,0.0060723447240889,0.002891719341278,5.564921361538768,0.0003461837768554
2025-04-30 01:09:06.000797400,3.16479736328125,0.0327533145442284,-0.0060564684681594,0.0809491590502918,-0.0050688050687313,-0.2160390005765822,0.9300265953065828,-0.4463058938913437,left,-0.0008677840232849,-0.6029143354072852,0.2645210155298002,-8.073273132488131,-0.2860504359722707,0.007450592238456,0.0023476146161556,5.560815679785609,-0.0003072619438171
2025-04-30 01:09:06.143711000,3.3077109375,0.0309765933964722,0.0124636394903063,0.0801793450386163,-0.0025089066475629,-0.2162788430968214,0.9301138855669544,-0.4473209450311606,left,-0.0024137832224369,-0.602057150434046,0.2503241844057105,-8.078491743919253,-0.2858020578177456,0.0074699930846691,0.0026846681721508,5.553889679914713,0.0005635996931232
2025-04-30 01:09:06.183711000,3.3477109375,0.0307498628278618,0.020602747797966,0.0798522674703511,-0.0230302661657333,-0.2156901085017944,0.930321371854562,-0.4460996789103513,left,0.0024080872535705,-0.6016017405093308,0.2485702716767787,-8.081075330671668,-0.2856631319096325,-0.0007656496018171,-0.0022402293980121,5.550208361053467,0.0007463097572326
2025-04-30 01:09:06.223711000,3.3877109375,0.0305225151018318,0.0287418588995933,0.0795251473380262,-0.0435516275465488,-0.2151012804882318,0.930528402084603,-0.4448787282531358,left,0.0072298049926757,-0.6011465923453821,0.246810111870151,-8.083655994814634,-0.2855240647617537,-0.0090012932196259,-0.0071644596755504,5.54652762671411,0.0009288191795349
2025-04-30 01:09:06.263711200,3.427711181640625,0.0300265947946678,0.0216351207345724,0.0791819735568042,-0.0103569142520427,-0.2144677219971775,0.9305953296316812,-0.4436992611337724,left,-0.009246289730072,-0.6016908525328367,0.2427105858631432,-8.080759104329347,-0.2858778754135875,-0.0174716040492057,0.0001131501048803,5.55092849202156,0.0050402283668518
2025-04-30 01:09:06.303711200,3.467711181640625,0.0310765217763871,0.0193570163100957,0.0795395987763643,-0.0068995915353298,-0.2140928905616443,0.9306328401910644,-0.4425861920536143,left,-0.0015380382537841,-0.6019655466283426,0.2511472642916255,-8.078975728043913,-0.2859376270947087,0.0006449613720178,0.0014818962663412,5.55314909068048,0.0005991458892822
2025-04-30 01:09:06.343711200,3.507711181640625,0.0310765217763871,0.0170789118856191,0.0795395987763643,-0.0034422690514475,-0.2140928905616443,0.9306328401910644,-0.4425861920536143,left,0.0063520073890686,-0.6019655466283426,0.2511472642916255,-8.078975728043913,-0.2859376270947087,0.0187615267932415,0.0037109665572643,5.55314909068048,-0.0036154389381408
2025-04-30 01:09:06.383711000,3.5477109375,0.0322003901459926,0.0127648152410984,0.0797089052661604,-0.015085163526237,-0.2133922854721376,0.9309092110715386,-0.440691939829763,left,0.0026403069496154,-0.6011529431413107,0.2603719878252595,-8.08319539156556,-0.2855139500612735,0.0322697311639785,0.0066427923738956,5.546579064640403,-0.0036836862564086
2025-04-30 01:09:06.423711000,3.5877109375,0.0313262786763531,0.0115568405017256,0.0791594196060703,-0.0186249073594808,-0.2131018385937206,0.9311088569039484,-0.440291148458108,left,0.0008049607276916,-0.6003160700090969,0.2534515774449333,-8.088056860122084,-0.2852326392147646,0.0189292095601558,0.0041366908699274,5.539809132114052,-0.0028413534164428
2025-04-30 01:09:06.463711000,3.6277109375,0.0304521952093014,0.0103488648310303,0.0786098843336554,-0.0221646502614021,-0.2128113264898271,0.9313079941634134,-0.4398898006970367,left,-0.001031756401062,-0.5994794991187464,0.2465228741602972,-8.092904300153254,-0.2849512002573346,0.005588686093688,0.001631386578083,5.533037446022034,-0.0019987821578979
2025-04-30 01:09:06.503711200,3.667711181640625,0.0298976150968698,0.0053411973640322,0.0782351273902144,-0.0187588389962911,-0.2125047362908791,0.9314464762869086,-0.439378054278717,left,-0.0024793148040771,-0.5990521984153663,0.2421053317126817,-8.095402546709776,-0.2848308028268058,0.0147497709840536,-0.0001480486243963,5.529577660956979,-0.0064610242843627
2025-04-30 01:09:06.543711200,3.707711181640625,0.0298976150968698,0.0003335298970341,0.0782351273902144,-0.0153530286625027,-0.2125047362908791,0.9314464762869086,-0.439378054278717,left,-0.0041815638542175,-0.5990521984153663,0.2421053317126817,-8.095402546709776,-0.2848308028268058,0.0239108558744192,-0.0023779477924108,5.529577660956979,-0.0112761259078979
2025-04-30 01:09:06.583711200,3.747711181640625,0.0286390249075042,-0.0083594033494591,0.0775201827653468,-0.0077824760228395,-0.2122721913404439,0.931662391415293,-0.4392076829026788,left,-0.0043962001800537,-0.5980274964144279,0.2320784614833071,-8.101359993809462,-0.2844928835227252,-0.0027561970055103,-0.0007899943739175,5.52127569655776,0.0015062689781188
2025-04-30 01:09:06.623711200,3.787711181640625,0.0283984089552837,0.0020169634371995,0.0774603383510467,-0.0104952082037925,-0.2122259682075578,0.9315975270266486,-0.4392097733509215,left,-0.0018789768218994,-0.5985365955731838,0.2300492937432602,-8.098605142143368,-0.2847559506265018,-0.0161685887724161,-0.0033620540052652,5.525400667533278,-0.0017145872116088
2025-04-30 01:09:06.663711000,3.8277109375,0.0280381222165895,-0.0003414554521441,0.077368916774197,-0.0076553621329367,-0.2121943993424981,0.9315101545695196,-0.4392873306138035,left,-0.0008572340011596,-0.5991769802526657,0.2270322109444066,-8.095148864209651,-0.285090028529552,-0.0190235208719968,-0.0026214066892862,5.530588299304247,-0.0010240674018859
2025-04-30 01:09:06.703711000,3.8677109375,0.0276776795207937,-0.0026998743414878,0.0772775022456121,-0.0048155160620808,-0.2121627779620601,0.9314227539193312,-0.4393651806083898,left,0.000163972377777,-0.5998174623200785,0.2240162971893325,-8.091687910100816,-0.2854240933037576,-0.0218784511089324,-0.0018808972090482,5.535773592987656,-0.0003333687782287
2025-04-30 01:09:06.743711000,3.9077109375,0.0276776795207937,-0.0050582932308316,0.0772775022456121,-0.0019756697583943,-0.2121627779620601,0.9314227539193312,-0.4393651806083898,left,0.0015381574630737,-0.5998174623200785,0.2240162971893325,-8.091687910100816,-0.2854240933037576,-0.0247333832085132,-0.0014479085803031,5.535773592987656,0.0008860826492309
2025-04-30 01:09:06.783711200,3.947711181640625,0.0268631426856969,-0.0061791455373167,0.0770823232710165,-0.0019131384324282,-0.2122648538805487,0.9312430756428532,-0.4398932991588966,left,-0.0002762675285339,-0.6008808939562981,0.217266987325903,-8.08597771576047,-0.2859863150352253,-0.0183892454952001,-0.0024557225406169,5.544378924247623,0.0024619102478027
2025-04-30 01:09:06.823711200,3.987711181640625,0.0260473618732543,-0.0072999983094632,0.0768871401512106,-0.0018506071064621,-0.2123669093474587,0.9310631834341212,-0.4404230795482833,left,-0.0020920038223266,-0.6019441635984373,0.2105168920111842,-8.080255246460437,-0.2865484499776757,-0.012045107781887,-0.0034634582698345,5.552976656723022,0.0040386915206909
2025-04-30 01:09:06.863711200,4.027711181640625,0.0260473618732543,-0.0068279551342129,0.0768871401512106,0.0008965313900262,-0.2123669093474587,0.9310631834341212,-0.4404230795482833,left,-0.0003930926322937,-0.6019441635984373,0.2105168920111842,-8.080255246460437,-0.2865484499776757,0.0011303592473268,-0.0030281469225883,5.552976656723022,0.0011763572692871
2025-04-30 01:09:06.903711000,4.0677109375,0.0258637967617579,-0.0075132697820663,0.0768901629181733,0.0039307321421802,-0.2127233614420175,0.931023112161189,-0.4412302829461371,left,-0.0001601576805114,-0.6016793728473097,0.2090716433726251,-8.081763312935829,-0.2864134348196328,0.0037452089600265,-0.0012814439833164,5.55083613756299,0.0010188817977905
2025-04-30 01:09:06.943711000,4.1077109375,0.0256805512907337,-0.0081985844299197,0.0768931805722408,0.0069649331271648,-0.2130797648919383,0.9309828794713816,-0.4420372172038163,left,7.28368759155e-05,-0.6014144171229225,0.2076284588269889,-8.08327137941122,-0.2862783661785265,0.0063600586727261,0.0004650708287954,5.548693864837288,0.0008615851402282
2025-04-30 01:09:06.983711000,4.1477109375,0.0254975719078225,-0.008883899077773,0.0768961860651484,0.0099991336464881,-0.2134361722125995,0.930942513557758,-0.4428440361343862,left,0.0003057122230529,-0.6011493520069647,0.2061868634502403,-8.084778861364722,-0.2861432571832014,0.008974908851087,0.0022114086896181,5.546550423067808,0.0007044672966003
2025-04-30 01:09:07.023711200,4.187711181640625,0.0264571897084373,0.0236836690455675,0.0769647744002577,0.0049432818777859,-0.2126892950222283,0.9312539141662588,-0.4408906081162909,left,0.0003767609596252,-0.6001870566367647,0.214086165332701,-8.0899092099905,-0.2856673527535525,0.0154956756159663,0.0006425622850656,5.538765176019072,-0.0009275078773498
2025-04-30 01:09:07.063711200,4.227711181640625,0.0274138586938244,0.0562512353062629,0.077033264478403,-0.0001125698909163,-0.2119422028017267,0.9315644551750047,-0.4389395066431812,left,0.0004473328590393,-0.5992230910819359,0.2219716761518269,-8.095034297919273,-0.2851911587961071,0.0220164433121681,-0.000924864783883,5.530961224269866,-0.002557635307312
2025-04-30 01:09:07.103711200,4.267711181640625,0.0283676639145374,0.0888188034296035,0.0771017017666981,-0.0051684216596186,-0.2111949198734135,0.9318742172924332,-0.43699081249852,left,0.000517189502716,-0.5982576370909248,0.2298440169621259,-8.100152956107259,-0.284714716632769,0.0285372100770473,-0.0024909488856792,5.52314032138586,-0.0041859745979309
2025-04-30 01:09:07.143711000,4.3077109375,0.030893441514306,0.0809443444013595,0.0775704963871081,0.0057119238190352,-0.2094925531402487,0.9323518076589444,-0.4325283202564637,left,-0.0052990317344665,-0.5975284783473086,0.2504267862636596,-8.103569486552477,-0.2842811206379206,-0.0001461878418922,0.0020226500928401,5.517230220559239,-0.008564293384552
2025-04-30 01:09:07.183711000,4.3477109375,0.0318531603790044,0.038492452353239,0.0778607207702719,0.0064258966594934,-0.2088896729199607,0.9323843990987026,-0.4309753432356968,left,-0.0023722648620605,-0.598164392157019,0.2580920053956099,-8.099816856020688,-0.284538185094107,-0.0127282477915287,0.0002317037433385,5.522385119104385,-0.0065993070602416
2025-04-30 01:09:07.223711000,4.3877109375,0.0328145056366529,-0.0039594434201717,0.078150902589376,0.0071398694999516,-0.208286671088078,0.9324165869962724,-0.4294209591304509,left,0.0005539655685424,-0.5987991333085079,0.2657635629368014,-8.096060133835673,-0.2847951083105275,-0.0253103077411651,-0.0015598591417074,5.527527742689848,-0.0046330094337463
2025-04-30 01:09:07.263711200,4.427711181640625,0.0332245974341147,-0.0078941993415355,0.0785278657986893,0.0046596196480095,-0.2084836278822116,0.9321662771391604,-0.429786616214494,left,0.0031363368034362,-0.6001436264366968,0.2688365406413562,-8.088515125283598,-0.2853661797945828,-0.0330166891217231,-0.0011907331645488,5.538413878363371,0.0009641051292419
2025-04-30 01:09:07.303711200,4.467711181640625,0.0336345690555645,-0.0118289552628993,0.0789048005404722,0.0021793697960674,-0.2086803862270528,0.9319154548383632,-0.4301517406056405,left,0.0057170391082763,-0.6014882380137746,0.2719019195613451,-8.080954334640502,-0.2859370837811829,-0.0407230667769908,-0.0008208416402339,5.549290661686658,0.0065622329711914
2025-04-30 01:09:07.343711200,4.507711181640625,0.0330524410031095,-0.0018239300698041,0.0788230563441543,-0.0222427770495414,-0.2086405565839739,0.9316782657327568,-0.4303296229807092,left,0.0035181045532226,-0.6031365059345736,0.2668950877173803,-8.071958542758226,-0.2867604669886911,-0.0349500998854637,0.0013435184955596,5.562610161986947,0.0060871839523315
2025-04-30 01:09:07.383711000,4.5477109375,0.032488164373356,-0.0011045201681554,0.0785732133847665,-0.0131451087072491,-0.2085292466989955,0.9316755383677192,-0.4302752710794673,left,-0.0001221895217895,-0.6033458548882669,0.2623024078985676,-8.07094439727962,-0.2869191649455777,-0.0062376148998737,0.0005875416100025,5.56430059929192,0.0003107786178588
2025-04-30 01:09:07.423711000,4.5877109375,0.032488164373356,-0.0003851104411296,0.0785732133847665,-0.0040474403649568,-0.2085292466989955,0.9316755383677192,-0.4302752710794673,left,-0.0036590695381164,-0.6033458548882669,0.2623024078985676,-8.07094439727962,-0.2869191649455777,0.0224748682230711,-0.0006367489695549,5.56430059929192,-0.0052933096885681
2025-04-30 01:09:07.463711000,4.6277109375,0.032488164373356,0.0134356738999485,0.0785732133847665,-0.0043464070186018,-0.2085292466989955,0.9316755383677192,-0.4302752710794673,left,-0.0037833452224731,-0.6033458548882669,0.2623024078985676,-8.07094439727962,-0.2869191649455777,0.0093196695670485,-0.0034086667001247,5.56430059929192,0.0031755566596984
2025-04-30 01:09:07.503711200,4.667711181640625,0.0323600995027005,0.0137317050248384,0.0783171221140563,-0.000919371843338,-0.2080142260590063,0.9318534590041344,-0.4291880972084252,left,-0.0014817714691162,-0.6029383334929734,0.2613421297653578,-8.073243321871757,-0.2867848948937612,-0.0099245393648743,0.0004450641572475,5.561009741052985,0.0013380646705627
2025-04-30 01:09:07.543711200,4.707711181640625,0.0327912872486673,0.0077147320844233,0.0785030969476428,0.0001984579721465,-0.2078889229860489,0.9318174443477568,-0.4288070566178006,left,0.0020933151245117,-0.6033386760748392,0.2647501846431754,-8.07090406526923,-0.2869419349660111,-0.0049849296920001,0.0035182163119316,5.564242731624842,0.0013565421104431
2025-04-30 01:09:07.583711200,4.747711181640625,0.0327912872486673,0.0016977586783468,0.0785030969476428,0.0013162876712158,-0.2078889229860489,0.9318174443477568,-0.4288070566178006,left,0.0059069395065307,-0.6033386760748392,0.2647501846431754,-8.07090406526923,-0.2869419349660111,-4.53204847872e-05,0.0069388952106237,5.564242731624842,0.0017046928405761
2025-04-30 01:09:07.623711200,4.787711181640625,0.0327912872486673,0.0102682970464229,0.0785030969476428,-0.0253440700471401,-0.2078889229860489,0.9318174443477568,-0.4288070566178006,left,0.0064640641212463,-0.6033386760748392,0.2647501846431754,-8.07090406526923,-0.2869419349660111,-0.0023238561116158,0.0019798837602138,5.564242731624842,0.004694640636444
2025-04-30 01:09:07.663711000,4.8277109375,0.0320613980420935,0.0138873122632503,0.0779369349077386,-0.0307453013956546,-0.2070859020417705,0.9320171846378544,-0.4273030984843951,left,0.0024017691612243,-0.603235017085249,0.258877730679512,-8.07167154251039,-0.2870280810550832,0.0137060824781656,-0.000188436359167,5.56340569627881,-0.0031878352165222
2025-04-30 01:09:07.703711000,4.8677109375,0.0313313932411493,0.0175063293427228,0.0773707079168244,-0.0361465327441692,-0.2062826942604208,0.9322160128128184,-0.4257992190288124,left,-0.0016614198684692,-0.6031323003572251,0.2530032126229256,-8.072429667401313,-0.287113938584044,0.0297360215336084,-0.0023565590381622,5.5625762597173445,-0.0110711455345153
2025-04-30 01:09:07.743711000,4.9077109375,0.0301489756757607,-0.0201068725436925,0.0766748954119513,-0.0211116001009941,-0.2061224911795825,0.932470697268268,-0.4257473189104316,left,-0.0071771740913391,-0.6017420230675568,0.2436909386700019,-8.080445216074585,-0.2865883776629367,0.0382664315402507,-0.0029632002115249,5.551342333519458,-0.0127187371253967
2025-04-30 01:09:07.783711200,4.947711181640625,0.0291560977324037,-0.0164457932114601,0.0764095712910208,-0.0107499379664659,-0.2067371408406084,0.9323909800677872,-0.4273535304724958,left,-0.0022879242897033,-0.6014128958252536,0.2357211653672158,-8.082509162867069,-0.2864756531745979,0.0066653117537498,-0.005822155624628,5.548681589877605,-0.0005437135696411
2025-04-30 01:09:07.823711200,4.987711181640625,0.0281641580277537,-0.0127847157418727,0.0761442238154551,-0.0003882749006152,-0.2073516406969799,0.932310911840496,-0.4289588890485104,left,0.002601146697998,-0.6010825545702804,0.2277553010545671,-8.084570771571993,-0.2863628146718673,-0.0249358117580413,-0.0086815040558576,5.546009740319848,0.0116323828697204
2025-04-30 01:09:07.863711200,5.027711181640625,0.0281641580277537,0.0234957188367843,0.0761442238154551,-0.0098736379295587,-0.2073516406969799,0.932310911840496,-0.4289588890485104,left,0.0049229264259338,-0.6010825545702804,0.2277553010545671,-8.084570771571993,-0.2863628146718673,-0.008964329957962,-0.0052200425416231,5.546009740319848,0.0041813850402832
2025-04-30 01:09:07.903711000,5.0677109375,0.0283511140846476,0.014098834246397,0.0759996402277605,-0.0064048338681459,-0.2067493086022062,0.9324981092874696,-0.4275902881843301,left,-0.0007838010787963,-0.6007222499756194,0.2293233906215056,-8.086524828249216,-0.2862272176429252,0.0077049657702445,-0.0013233628123998,5.543095314177871,-0.0014600753784179
2025-04-30 01:09:07.943711000,5.1077109375,0.0285374658727164,0.0047019496560096,0.0758550332854307,-0.0029360295739024,-0.2061468548958375,0.9326849031922548,-0.4262220297065658,left,-0.0064905881881713,-0.6003617618184318,0.2308873337362892,-8.088478884926438,-0.2860915065995914,0.024374259635806,0.0025737360119819,5.5401791344702245,-0.0071012377738952
2025-04-30 01:09:07.983711000,5.1477109375,0.0285374658727164,-0.0061095152050256,0.0758550332854307,0.0182106867432594,-0.2061468548958375,0.9326849031922548,-0.4262220297065658,left,-0.0080993175506591,-0.6003617618184318,0.2308873337362892,-8.088478884926438,-0.2860915065995914,-0.0086931493133306,0.0049199275672435,5.5401791344702245,0.0059264302253723
2025-04-30 01:09:08.023711200,5.187711181640625,0.0286245198191069,0.0079523548483848,0.0759711087415266,0.0049844197928905,-0.2061434749937908,0.9325708558078624,-0.4262278972250299,left,-0.0006360411643981,-0.6011162196906386,0.2314717642944306,-8.08427851062715,-0.2864347932781831,-0.0038526253774762,0.0050940737128257,5.546282127520442,0.0004584789276123
2025-04-30 01:09:08.063711200,5.227711181640625,0.0286245198191069,0.0220142249017953,0.0759711087415266,-0.0082418490201234,-0.2061434749937908,0.9325708558078624,-0.4262278972250299,left,0.0072555541992187,-0.6011162196906386,0.2314717642944306,-8.08427851062715,-0.2864347932781831,0.0009878990240395,0.0053278375416994,5.546282127520442,-0.0043871402740478
2025-04-30 01:09:08.103711200,5.267711181640625,0.0287549809536525,0.0301688835024833,0.0757740963228455,-0.0345723666250705,-0.2056000721495452,0.9328114732184426,-0.4249803422286964,left,0.0030282139778137,-0.6003134775725633,0.2326543799414299,-8.088695742547511,-0.28609363512065,0.0653286501765251,-0.0036757960915565,5.539788089326024,-0.011147141456604
2025-04-30 01:09:08.143711000,5.3077109375,0.0275529597301858,0.027428038418293,0.0749182606319765,-0.0252254046499729,-0.2047270678834897,0.9331253160828108,-0.4234376323995574,left,-0.0054021477699279,-0.5995573330156032,0.223046758037433,-8.093154475522041,-0.285921659395651,0.0074104070663452,-0.0048249829560518,5.5336681451410055,-0.0030531287193298
2025-04-30 01:09:08.183711000,5.3477109375,0.0263501299265417,0.0246871933341026,0.0740622982166126,-0.0158784426748752,-0.2038537103948702,0.9334375486491656,-0.421894529758771,left,-0.013835072517395,-0.5988026628285372,0.2134218744713813,-8.097589243099092,-0.2857492266454005,-0.0505078360438346,-0.005972409620881,5.527556384262442,0.0050400495529174
2025-04-30 01:09:08.223711000,5.3877109375,0.0267804140055478,-0.0055123884230852,0.0743981018439138,0.0242962464690208,-0.2035675867646035,0.9331515493612216,-0.4212706195636589,left,0.0012732148170471,-0.601091405700616,0.2165668031672947,-8.084829130247234,-0.2867984461803859,-0.051905196160078,-0.0012327395379543,5.546081636512279,-0.0094633698463439
2025-04-30 01:09:08.263711200,5.427711181640625,0.0276374640230779,-0.0064972564578056,0.074971074086624,0.0093434751033782,-0.2041251252119174,0.9329677705639124,-0.4222219591100359,left,0.0044436454772949,-0.6014657373508634,0.2234384242361411,-8.082564692446589,-0.2868505476726398,-0.0254829470068216,-0.0008636359125375,5.549108875378966,-0.0006627440452575
2025-04-30 01:09:08.303711200,5.467711181640625,0.0284943677891297,-0.0074821249581873,0.0755440309906487,-0.0056092971935868,-0.2046825702406959,0.9327835357090364,-0.4231733335464095,left,0.0076128840446472,-0.6018409635772035,0.230305003803689,-8.08028856420815,-0.2869024887157034,0.000939305871725,-0.0004940256476402,5.552141959464549,0.0081374049186706
2025-04-30 01:09:08.343711200,5.507711181640625,0.028110470047729,-0.0085392529144883,0.0752189077442279,-0.005070480518043,-0.2042524444753267,0.932924295374888,-0.4223539511513456,left,0.0037174224853515,-0.6015501591580169,0.2272483379131183,-8.081990107429027,-0.2868367278710866,0.0129550239071249,-0.0022795423865318,5.549791012424231,0.0009695887565612
2025-04-30 01:09:08.383711000,5.5477109375,0.0277263067373903,-0.009596380405128,0.0748937540949072,-0.0045316638424992,-0.2038223021291194,0.9330647078846702,-0.4215346906407485,left,-0.0001783967018127,-0.6012595584156875,0.2241882196901366,-8.083688143518566,-0.286770866140923,0.0249707400798797,-0.0040647182613611,5.54744123442769,-0.0061984658241271
2025-04-30 01:09:08.423711000,5.5877109375,0.0273418922006074,-0.0106535088270902,0.0745685751555818,-0.0039928476326167,-0.2033921393313333,0.9332049064621988,-0.4207156203109903,left,-0.0040745735168457,-0.6009693768698977,0.2211247221999801,-8.085382672476769,-0.2867049570082758,0.0369864590466022,-0.0058495104312896,5.545094379040599,-0.01336669921875
2025-04-30 01:09:08.463711000,5.6277109375,0.0267426449006379,-0.0417533367872238,0.0743436271864422,0.0171159878373146,-0.2039858287555801,0.9332995708050688,-0.4220949823919249,left,-0.0056360363960266,-0.5995112160321823,0.216495528029371,-8.093588190764189,-0.2860329732477885,0.0349762290716171,-0.0042001083493232,5.533294635653496,-0.0092087388038635
2025-04-30 01:09:08.503711200,5.667711181640625,0.0261961602018104,-0.0198396276682615,0.0743015310683746,0.0104237236082553,-0.2046242009683828,0.9331725151215414,-0.4236271601038068,left,-0.0025877356529235,-0.5994479181277045,0.2120816388435661,-8.094055223754047,-0.2860022895209216,0.005479471758008,-0.0034148711711168,5.53278200995624,-0.0023177862167358
2025-04-30 01:09:08.543711200,5.707711181640625,0.0256498195176283,0.0020740833133459,0.0742594055150921,0.0037314589135348,-0.2052625040849689,0.9330450840888848,-0.4251592776042874,left,0.0004606842994689,-0.5993839213169404,0.2076685716416686,-8.094524010309577,-0.2859714716025538,-0.0240172836929559,-0.0026297029107809,5.532264123561978,0.0045737624168396
2025-04-30 01:09:08.583711200,5.747711181640625,0.0259439534395991,0.021828506141901,0.0743956624575759,-0.0053596370853483,-0.2049947154166898,0.9329687687984242,-0.42454258681481,left,-0.0001019835472106,-0.6002670439185204,0.2099226159124635,-8.08957544799149,-0.2863769060012849,-0.0210007652640342,-0.0010636299848556,5.539412241750955,0.0006764531135559
2025-04-30 01:09:08.623711200,5.787711181640625,0.0264416249172567,0.0032499190419912,0.0746267553269037,0.0057425168342888,-0.2048443145530593,0.932903517644085,-0.42410113573564,left,-0.0004348754882812,-0.6008972479090601,0.2138561925017274,-8.085978300282358,-0.2866368458620028,-0.0137055423110723,0.0029751658439636,5.544511026194692,-0.0011706352233886
2025-04-30 01:09:08.663711000,5.8277109375,0.0269398364568485,-0.0153286699205636,0.0748578350673864,0.0168446712195873,-0.2046938650447906,0.9328381050728706,-0.4236590731666821,left,-0.0007681250572204,-0.6015273296960743,0.2177905545422807,-8.082377060919999,-0.2868967786744559,-0.006410320289433,0.007013889029622,5.549606888028979,-0.0030174851417541
2025-04-30 01:09:08.703711000,5.8677109375,0.0268969432737823,-0.027414659038186,0.0750060346586022,0.006188222207129,-0.2052133783326872,0.932714822838396,-0.4247894078211353,left,0.0036841630935668,-0.6015886460189539,0.2174347085756249,-8.082045637008548,-0.2868874975619422,0.0054007172584533,0.0081364028155803,5.550102562591433,-0.0014573335647583
2025-04-30 01:09:08.743711000,5.9077109375,0.0260355626398321,-0.0039949342608451,0.0746041924717772,-0.0163567215204238,-0.2051670110257941,0.9327641434501678,-0.4249429431162929,left,0.0024061203002929,-0.6013647024364787,0.2105052746386267,-8.083473039463161,-0.2868654687095325,0.0034474302083253,0.0053991004824638,5.548291713777184,-0.0001042485237121
2025-04-30 01:09:08.783711200,5.947711181640625,0.0251742924489191,0.0194247905164957,0.0742023390914768,-0.0389016643166542,-0.205120679653441,0.932813145098929,-0.4250963084107622,left,0.0011274218559265,-0.6011404907423515,0.2035744524621404,-8.084894596698879,-0.2868433661969504,0.0014941426925361,0.0026619881391525,5.546478526875377,0.0012490153312683
2025-04-30 01:09:08.823711200,5.987711181640625,0.0242629823433945,0.0156486593186855,0.0736553274219977,-0.0403265953063964,-0.204542549096833,0.9329227506463984,-0.4241451224113468,left,-0.001125693321228,-0.601287280503211,0.1961867533636279,-8.08426214401424,-0.2870404577942526,-0.0125518757849931,0.0008373521268367,5.5476656908333295,0.0012427568435668
2025-04-30 01:09:08.863711200,6.027711181640625,0.0225116711180734,0.0049138339236378,0.0728580785052891,-0.0374637581408023,-0.2041931503482841,0.93293758629082,-0.423961038246987,left,-0.0007100105285644,-0.6017540771943736,0.1819701032942161,-8.08200355143249,-0.2874442369538197,-0.0075063970871269,-0.0023160725831985,5.5514399486750365,0.0012275576591491
2025-04-30 01:09:08.903711000,6.0677109375,0.0207598971531029,-0.0058209914714097,0.0720607566216207,-0.0346009247004985,-0.2038435365696047,0.9329515623354864,-0.4237778335517943,left,-0.0002972483634948,-0.6022211822951474,0.1677581293999217,-8.079716901800037,-0.2878477739880739,-0.0024609183892607,-0.0054699666798114,5.555215375560522,0.0012121796607971
2025-04-30 01:09:08.943711000,6.1077109375,0.0197932532998005,0.0031050331890583,0.0715967397800367,-0.0091321840882301,-0.2036806697154223,0.9329996315016136,-0.4237239188266356,left,-0.0013427138328552,-0.6021673214705516,0.159953775791917,-8.08017399791777,-0.2879230342089356,-0.0027784674894064,-0.0039756074547767,5.554779906752705,0.0032361149787902
2025-04-30 01:09:08.983711000,6.1477109375,0.0197932532998005,-0.0018805828876793,0.0715967397800367,-5.0994567573e-05,-0.2036806697154223,0.9329996315016136,-0.4237239188266356,left,-0.0031473636627197,-0.6021673214705516,0.159953775791917,-8.08017399791777,-0.2879230342089356,-0.0012511211680248,-0.0018625231459736,5.554779906752705,0.0017856359481811
2025-04-30 01:09:09.023711200,6.187711181640625,0.0197932532998005,-0.0068661989644169,0.0715967397800367,0.0090301930904388,-0.2036806697154223,0.9329996315016136,-0.4237239188266356,left,-0.004952073097229,-0.6021673214705516,0.159953775791917,-8.08017399791777,-0.2879230342089356,0.0002762251533567,0.0002505611628293,5.554779906752705,0.0003352165222167
2025-04-30 01:09:09.063711200,6.227711181640625,0.0196568415648956,-0.0081313010305166,0.0716629257722537,0.0135926706716418,-0.2039792103949542,0.9328903828223808,-0.4244228855671258,left,-0.0017865300178527,-0.6024620593229061,0.1588193649345077,-8.078558963936567,-0.2880495399567432,0.013009812682867,0.0030024144798517,5.557161833453178,-0.0029171705245971
2025-04-30 01:09:09.103711200,6.267711181640625,0.0196568415648956,0.0003581074997782,0.0716629257722537,0.0027775410562753,-0.2039792103949542,0.9328903828223808,-0.4244228855671258,left,-0.0004975795745849,-0.6024620593229061,0.1588193649345077,-8.078558963936567,-0.2880495399567432,0.0055918381549417,0.0014937575906515,5.557161833453178,-0.0024203062057495
2025-04-30 01:09:09.143711000,6.3077109375,0.0196568415648956,0.0088475169613957,0.0716629257722537,-0.0080375894904136,-0.2039792103949542,0.9328903828223808,-0.4244228855671258,left,0.000791311264038,-0.6024620593229061,0.1588193649345077,-8.078558963936567,-0.2880495399567432,-0.0018261363729834,-1.49011611938e-05,5.557161833453178,-0.0019234418869018
2025-04-30 01:09:09.183711000,6.3477109375,0.0196568415648956,0.0158318802714347,0.0716629257722537,-0.0076959757134318,-0.2039792103949542,0.9328903828223808,-0.4244228855671258,left,-0.0026026368141174,-0.6024620593229061,0.1588193649345077,-8.078558963936567,-0.2880495399567432,-0.0031483159400522,0.0008312743157148,5.557161833453178,-0.0035133957862854
2025-04-30 01:09:09.223711000,6.3877109375,0.0198948439490105,0.0100623909384012,0.0716417467816979,-0.0046867849305272,-0.2035920788192306,0.9329767637632788,-0.4235183098266358,left,-0.0017735362052917,-0.6024424546339541,0.1607442320498637,-8.078629691085219,-0.2880485712712147,-0.0080504436045885,-0.000455928966403,5.557003428021073,-0.0032735466957092
2025-04-30 01:09:09.263711200,6.427711181640625,0.0201328469557884,0.0042929011397063,0.0716205687588272,-0.0016775946132838,-0.2032049472435071,0.9330631447041768,-0.4226138949048124,left,-0.000944435596466,-0.6024228146516062,0.162669172230456,-8.07870041823387,-0.2880475692797321,-0.0129525726661086,-0.0017431192100048,5.556845022588968,-0.0030335783958435
2025-04-30 01:09:09.303711200,6.467711181640625,0.0201328469557884,-0.0008137677796185,0.0716205687588272,-0.0057210363447666,-0.2032049472435071,0.9330631447041768,-0.4226138949048124,left,-0.0001452565193176,-0.6024228146516062,0.162669172230456,-8.07870041823387,-0.2880475692797321,-0.0197508390992879,-0.0030357558280229,5.556845022588968,-0.0001409649848937
2025-04-30 01:09:09.343711200,6.507711181640625,0.019903238071661,-0.0003219364443793,0.0716189266819581,-0.0019058459438383,-0.2031122756583907,0.9329081288217328,-0.4225519288570565,left,-0.0009353756904602,-0.6035820558501267,0.1606859077250584,-8.072291135713458,-0.2886146340950172,-0.0179532058537006,-0.0025946237146854,5.566207894217968,0.0009386539459228
2025-04-30 01:09:09.383711000,6.5477109375,0.0196736551978636,0.0001698948908597,0.0716172865404583,0.0019093444570899,-0.2030194503978797,0.9327528951362952,-0.4224900826630047,left,-0.001726746559143,-0.6047414675827117,0.1587055840954184,-8.06587074727714,-0.2891816322983941,-0.0161555726081132,-0.0021537728607654,5.57556550514996,0.0020188689231872
2025-04-30 01:09:09.423711000,6.5877109375,0.0199144223112498,0.0046787923201918,0.0717598207007952,0.0066989711485803,-0.2029400441329402,0.9326754930416024,-0.4222802381194349,left,-0.0002005696296691,-0.6053562505198695,0.1605792872791178,-8.06240394794941,-0.289451786086789,-0.0097188148647546,-0.0006348825991153,5.580524004340171,-0.0009265542030334
2025-04-30 01:09:09.463711000,6.6277109375,0.0199144223112498,0.0024824757128953,0.0717598207007952,0.0011029541492462,-0.2029400441329402,0.9326754930416024,-0.4222802381194349,left,-1.1324882507e-06,-0.6053562505198695,0.1605792872791178,-8.06240394794941,-0.289451786086789,-0.0059829270467162,-0.0002921093255281,5.580524004340171,-0.0003414154052734
2025-04-30 01:09:09.503711200,6.667711181640625,0.0199144223112498,0.0002861591055989,0.0717598207007952,-0.0044930633157491,-0.2029400441329402,0.9326754930416024,-0.4222802381194349,left,0.0001982450485229,-0.6053562505198695,0.1605792872791178,-8.06240394794941,-0.289451786086789,-0.0022470399271696,5.06658107042e-05,5.580524004340171,0.0002437829971313
2025-04-30 01:09:09.543711200,6.707711181640625,0.0199144223112498,-0.0011685633799061,0.0717598207007952,-0.0017489935271441,-0.2029400441329402,0.9326754930416024,-0.4222802381194349,left,-0.0021139979362487,-0.6053562505198695,0.1605792872791178,-8.06240394794941,-0.289451786086789,-0.0004681483842432,0.0002065617591142,5.580524004340171,0.0002959966659545
2025-04-30 01:09:09.583711200,6.747711181640625,0.0199144223112498,0.0034663057886064,0.0717598207007952,0.0062229069881141,-0.2029400441329402,0.9326754930416024,-0.4222802381194349,left,-0.0052645206451416,-0.6053562505198695,0.1605792872791178,-8.06240394794941,-0.289451786086789,-0.005384353455156,0.0005115903913974,5.580524004340171,0.0025967359542846
2025-04-30 01:09:09.623711200,6.787711181640625,0.0199144223112498,0.0081011755391955,0.0717598207007952,0.0141948051750659,-0.2029400441329402,0.9326754930416024,-0.4222802381194349,left,-0.0084151029586792,-0.6053562505198695,0.1605792872791178,-8.06240394794941,-0.289451786086789,-0.0103005580604076,0.0008166190236806,5.580524004340171,0.0048974752426147
2025-04-30 01:09:09.663711000,6.8277109375,0.0203449031940228,0.0078323613852262,0.0719839577442571,0.0075763720087707,-0.2027076181747477,0.9325596442980556,-0.4217093614900871,left,-0.0011703968048095,-0.6064334003195848,0.163927593060024,-8.056319075077772,-0.2899316287109955,-0.0187768302857875,-0.0007017701864242,5.589207077011466,0.0008695721626281
2025-04-30 01:09:09.703711000,6.8677109375,0.0207149289696604,0.0042324773967266,0.0721757985739898,0.0046014287509024,-0.2026294711247322,0.9324884655922514,-0.4214587835961034,left,0.0006464123725891,-0.6069993363578996,0.1668430786479264,-8.053094267812371,-0.2901674009515858,-0.0137311285361647,-0.0009774807840585,5.593766347751021,-0.0006953477859497
2025-04-30 01:09:09.743711000,6.9077109375,0.021085328082737,0.0006325931753963,0.0723676403714073,0.0016264854930341,-0.2025512715593383,0.932417258693388,-0.4212077980128277,left,0.0024629235267639,-0.6075652357388702,0.1697591670240275,-8.049865953415631,-0.2904031398862218,-0.0086854267865419,-0.001253243535757,5.598323864924907,-0.0022600889205932
2025-04-30 01:09:09.783711200,6.947711181640625,0.0208614447269403,-0.0039620222523808,0.0723743562329342,0.0006367816822603,-0.2026808076020596,0.9323029930143412,-0.4215876418416827,left,0.0019466280937194,-0.6081342488325641,0.1678904505426995,-8.04671771851778,-0.2906777210720995,-0.008649319410324,-0.0006675515323877,5.602904178452492,-0.0018366575241088
2025-04-30 01:09:09.823711200,6.987711181640625,0.0206371585711596,-0.0085566379129886,0.0723810589656163,-0.0003529221285134,-0.2028103718378402,0.9321886748199164,-0.4219679482889846,left,0.0014299154281616,-0.6087032838921056,0.1660198708978481,-8.04356597648859,-0.2909522952097124,-0.0086132120341062,-8.16844403743e-05,5.607483322936296,-0.0014131069183349
2025-04-30 01:09:09.863711200,7.027711181640625,0.0206371585711596,-0.0131512526422739,0.0723810589656163,-0.0013426259392872,-0.2028103718378402,0.9321886748199164,-0.4219679482889846,left,0.0012346506118774,-0.6087032838921056,0.1660198708978481,-8.04356597648859,-0.2909522952097124,-0.0085771046578884,0.0003134477883577,5.607483322936296,-0.0005226135253906
2025-04-30 01:09:09.903711000,7.0677109375,0.0201917862134262,-0.0106460023671388,0.0723475948765814,0.0074047879315912,-0.2031596003016141,0.9320502848355728,-0.4228803461930553,left,-0.0008894205093383,-0.609122867189331,0.1623899534302763,-8.041286341118813,-0.2911603008799805,0.0065601263195276,0.0010181777179241,5.610858352327346,-0.0003928542137145
2025-04-30 01:09:09.943711000,7.1077109375,0.0198650418995807,-0.0059019569307565,0.0722153980356668,0.0024750139564275,-0.203310189437855,0.9320787673143596,-0.4232830499532272,left,-0.0009370446205139,-0.6087323509078533,0.1598060013516806,-8.043529151609539,-0.2909967164502925,0.0059559042565524,-0.0001539755612611,5.607717131692171,0.0003614425659179
2025-04-30 01:09:09.983711000,7.1477109375,0.0198650418995807,-0.0011579110287129,0.0722153980356668,-0.0024547600187361,-0.203310189437855,0.9320787673143596,-0.4232830499532272,left,-0.0012133121490478,-0.6087323509078533,0.1598060013516806,-8.043529151609539,-0.2909967164502925,0.0053516821935772,-0.0015896176919341,5.607717131692171,0.0007954835891723
2025-04-30 01:09:10.023711200,7.187711181640625,0.0198650418995807,0.0089135952293872,0.0722153980356668,-0.004906611982733,-0.203310189437855,0.9320787673143596,-0.4232830499532272,left,0.0004640221595764,-0.6087323509078533,0.1598060013516806,-8.043529151609539,-0.2909967164502925,0.0030643446370959,-0.0025950539857149,5.607717131692171,-0.0008397102355957
2025-04-30 01:09:10.063711200,7.227711181640625,0.0198650418995807,0.0032311724498867,0.0722153980356668,-0.0021301489323377,-0.203310189437855,0.9320787673143596,-0.4232830499532272,left,0.0001397132873535,-0.6087323509078533,0.1598060013516806,-8.043529151609539,-0.2909967164502925,0.0001433957368135,-0.0016689309850335,5.607717131692171,-0.0012112259864807
2025-04-30 01:09:10.103711200,7.267711181640625,0.0198650418995807,-0.0024512498639523,0.0722153980356668,0.0006463138852268,-0.203310189437855,0.9320787673143596,-0.4232830499532272,left,-0.0001845359802246,-0.6087323509078533,0.1598060013516806,-8.043529151609539,-0.2909967164502925,-0.0027775531634688,-0.0007428079843521,5.607717131692171,-0.0015827417373657
2025-04-30 01:09:10.143711000,7.3077109375,0.0198650418995807,-0.0062236431986093,0.0722153980356668,-0.0058526126667857,-0.203310189437855,0.9320787673143596,-0.4232830499532272,left,-0.0001994967460632,-0.6087323509078533,0.1598060013516806,-8.043529151609539,-0.2909967164502925,-0.0013641437981277,-0.0004853904247283,5.607717131692171,-0.0004570484161376
2025-04-30 01:09:10.183711000,7.3477109375,0.0192571229125738,-0.003351193619892,0.071931826902897,-0.0067809578031301,-0.2032513711301289,0.9321078057293152,-0.4233415155166116,left,-0.0001790523529052,-0.6086436601930806,0.154925736763142,-8.044121856805681,-0.2910150113756691,-0.0019457880407571,-0.0006837770342826,5.607003430464864,-0.0001046061515808
2025-04-30 01:09:10.223711000,7.3877109375,0.0192571229125738,-0.000478743808344,0.071931826902897,-0.0077093034051358,-0.2032513711301289,0.9321078057293152,-0.4233415155166116,left,-0.0002191066741943,-0.6086436601930806,0.154925736763142,-8.044121856805681,-0.2910150113756691,-0.0025274325162172,-0.001379806548357,5.607003430464864,0.0001750588417053
2025-04-30 01:09:10.263711200,7.427711181640625,0.0182954303334615,-0.0012429882772266,0.0714924626571339,-0.0045227343216538,-0.2031731800245453,0.9321436947764687,-0.4234683378880141,left,-0.0014688968658447,-0.6085463493265252,0.1471996816888917,-8.044812177157402,-0.2910627805739277,-0.0013032467104494,-0.0015857610851526,5.606220755654573,0.0004906058311462
2025-04-30 01:09:10.303711200,7.467711181640625,0.0182954303334615,-0.0008686318760737,0.0714924626571339,-0.0039170663803815,-0.2031731800245453,0.9321436947764687,-0.4234683378880141,left,0.0018072724342346,-0.6085463493265252,0.1471996816888917,-8.044812177157402,-0.2910627805739277,0.0017238082364201,-0.0029775463044643,5.606220755654573,-0.0015464425086975
2025-04-30 01:09:10.343711200,7.507711181640625,0.0182954303334615,-0.0004942754749208,0.0714924626571339,-0.0033113989047706,-0.2031731800245453,0.9321436947764687,-0.4234683378880141,left,0.0050834417343139,-0.6085463493265252,0.1471996816888917,-8.044812177157402,-0.2910627805739277,0.0047508627176284,-0.0043693305924534,5.606220755654573,-0.0035834908485412
2025-04-30 01:09:10.383711000,7.5477109375,0.0182954303334615,0.0008356074104085,0.0714924626571339,0.0057009705342352,-0.2031731800245453,0.9321436947764687,-0.4234683378880141,left,-0.0043355226516723,-0.6085463493265252,0.1471996816888917,-8.044812177157402,-0.2910627805739277,0.0008143088780343,-0.0012039933353662,5.606220755654573,-0.0020023584365844
2025-04-30 01:09:10.423711000,7.5877109375,0.0185885975534547,-0.0007486304966732,0.0716412668469916,0.0047728363424539,-0.2032145316272764,0.932115562241564,-0.4234723677374176,left,-0.0010868906974792,-0.6086635477893445,0.1495459342877846,-8.044111919933558,-0.2910875311107806,-0.0026299129240214,-0.0012448579072952,5.607163589462638,-0.0022242069244384
2025-04-30 01:09:10.463711000,7.6277109375,0.0185885975534547,-0.0023328685201704,0.0716412668469916,0.0038447021506726,-0.2032145316272764,0.932115562241564,-0.4234723677374176,left,0.0022332072257995,-0.6086635477893445,0.1495459342877846,-8.044111919933558,-0.2910875311107806,-0.0060741347260773,-0.0010464861989021,5.607163589462638,-0.0023499131202697
2025-04-30 01:09:10.503711200,7.667711181640625,0.0185885975534547,0.0019721775315701,0.0716412668469916,-0.0015440797433257,-0.2032145316272764,0.932115562241564,-0.4234723677374176,left,0.0027191638946533,-0.6086635477893445,0.1495459342877846,-8.044111919933558,-0.2910875311107806,-0.0020030229352414,-0.0001865187659859,5.607163589462638,-0.0001478791236877
2025-04-30 01:09:10.543711200,7.707711181640625,0.0185885975534547,-0.0004730804357677,0.0716412668469916,-0.0015399353578686,-0.2032145316272764,0.932115562241564,-0.4234723677374176,left,0.0006060004234313,-0.6086635477893445,0.1495459342877846,-8.044111919933558,-0.2910875311107806,-0.0029720391612499,7.19605013728e-05,5.607163589462638,-0.0003235340118408
2025-04-30 01:09:10.583711200,7.747711181640625,0.0185885975534547,-0.0029183384031057,0.0716412668469916,-0.0015357909724116,-0.2032145316272764,0.932115562241564,-0.4234723677374176,left,-0.0015072226524353,-0.6086635477893445,0.1495459342877846,-8.044111919933558,-0.2910875311107806,-0.0039410553872585,0.0003304397687315,5.607163589462638,-0.0004991888999938
2025-04-30 01:09:10.623711200,7.787711181640625,0.0185885975534547,-0.0004529140423983,0.0716412668469916,-0.0068986807018518,-0.2032145316272764,0.932115562241564,-0.4234723677374176,left,0.0022954940795898,-0.6086635477893445,0.1495459342877846,-8.044111919933558,-0.2910875311107806,-0.0028227770235389,-0.0005830638110637,5.607163589462638,-0.0007669925689697
2025-04-30 01:09:10.663711000,7.8277109375,0.0185885975534547,-0.0008708874229341,0.0716412668469916,-0.0043693613260984,-0.2032145316272764,0.932115562241564,-0.4234723677374176,left,0.0011540651321411,-0.6086635477893445,0.1495459342877846,-8.044111919933558,-0.2910875311107806,-0.0016338139539584,-0.0011816890910267,5.607163589462638,-5.93066215515e-05
2025-04-30 01:09:10.703711000,7.8677109375,0.0185885975534547,-0.00128886080347,0.0716412668469916,-0.001840041950345,-0.2032145316272764,0.932115562241564,-0.4234723677374176,left,1.26361846923e-05,-0.6086635477893445,0.1495459342877846,-8.044111919933558,-0.2910875311107806,-0.0004448508843779,-0.0017803134396672,5.607163589462638,0.0006483793258666
2025-04-30 01:09:10.743711200,7.907711181640625,0.0185885975534547,5.62439672648e-05,0.0716412668469916,-0.0052268113940954,-0.2032145316272764,0.932115562241564,-0.4234723677374176,left,-0.0017308592796325,-0.6086635477893445,0.1495459342877846,-8.044111919933558,-0.2910875311107806,-9.829818736761808e-07,-0.0016558459028601,5.607163589462638,-0.0011951327323913
2025-04-30 01:09:10.783711200,7.947711181640625,0.0185885975534547,-0.0018368111923336,0.0716412668469916,-0.0011340091004967,-0.2032145316272764,0.932115562241564,-0.4234723677374176,left,-0.0003052353858947,-0.6086635477893445,0.1495459342877846,-8.044111919933558,-0.2910875311107806,0.0008859104709699,-0.0012893630191683,5.607163589462638,-0.0011969208717346
2025-04-30 01:09:10.823711200,7.987711181640625,0.0185885975534547,-0.0037298663519322,0.0716412668469916,0.0029587927274405,-0.2032145316272764,0.932115562241564,-0.4234723677374176,left,0.001120388507843,-0.6086635477893445,0.1495459342877846,-8.044111919933558,-0.2910875311107806,0.0017728039529174,-0.000922879204154,5.607163589462638,-0.0011986494064331
2025-04-30 01:09:10.863711200,8.027711181640624,0.0185885975534547,-0.0031451480463147,0.0716412668469916,0.0030731442384421,-0.2032145316272764,0.932115562241564,-0.4234723677374176,left,0.0001691579818725,-0.6086635477893445,0.1495459342877846,-8.044111919933558,-0.2910875311107806,-0.0001688422635197,-0.0004047267138957,5.607163589462638,-0.0001969337463378
2025-04-30 01:09:10.903711000,8.0677109375,0.0181469109529861,-0.0029559796676039,0.0714903809940928,0.0004143551923334,-0.2033126133513751,0.9320898779857744,-0.4238230693790979,left,-4.99486923217e-05,-0.6087030918418808,0.1459889176596421,-8.043955852589011,-0.2911383284293872,-0.0002995353424921,-0.0010543363168835,5.607481569370627,0.0001712441444396
2025-04-30 01:09:10.943711000,8.1077109375,0.0177051113212909,-0.0027668115217238,0.0713394688835049,-0.0022444338537752,-0.2034107475908522,0.932064221923044,-0.4241739915852949,left,-0.0002691149711608,-0.608742542559119,0.1424311795122921,-8.043798616200686,-0.2911891116514642,-0.0004302283923607,-0.0017038835212588,5.607798964756727,0.0005395412445068
2025-04-30 01:09:10.983711000,8.1477109375,0.0177051113212909,-0.0007103916723281,0.0713394688835049,0.0001464895904064,-0.2034107475908522,0.932064221923044,-0.4241739915852949,left,-0.00035160779953,-0.608742542559119,0.1424311795122921,-8.043798616200686,-0.2911891116514642,-0.0016015974106267,-0.0028621917590498,5.607798964756727,0.0009810924530029
2025-04-30 01:09:11.023711200,8.187711181640625,0.0177051113212909,-0.003910363651812,0.0713394688835049,0.0037397416308522,-0.2034107475908522,0.932064221923044,-0.4241739915852949,left,-5.77569007873e-05,-0.608742542559119,0.1424311795122921,-8.043798616200686,-0.2911891116514642,-0.0018989337841048,-0.0017070276662707,5.607798964756727,0.0007301568984985
2025-04-30 01:09:11.063711200,8.227711181640625,0.0177051113212909,-0.0071103349328041,0.0713394688835049,0.007332993671298,-0.2034107475908522,0.932064221923044,-0.4241739915852949,left,0.0002360939979553,-0.608742542559119,0.1424311795122921,-8.043798616200686,-0.2911891116514642,-0.0021962702739983,-0.0005518645048141,5.607798964756727,0.0004792213439941
2025-04-30 01:09:11.103711200,8.267711181640625,0.0173071835766701,-0.0122798345983028,0.0713438017250788,0.0088821556419134,-0.2038470740979593,0.9319202290083984,-0.4252540067316556,left,-0.0022320747375488,-0.609069816157545,0.1391985451334621,-8.042018747046589,-0.2913437876210108,0.0058227917179465,0.000986523926258,5.610431651347875,0.0021513700485229
2025-04-30 01:09:11.143711000,8.3077109375,0.0176347048541571,-0.0077861007302999,0.0714923755409095,0.0152179077267646,-0.2040417045083377,0.9319473243542548,-0.4255420027758037,left,-0.0052412748336791,-0.6086073753533326,0.1418782035383395,-8.044566093441844,-0.2910843651888977,0.0077714412473142,0.0014542508870363,5.60671175404191,0.0018661618232727
2025-04-30 01:09:11.183711000,8.3477109375,0.0176347048541571,-0.003292366862297,0.0714923755409095,0.0215536598116159,-0.2040417045083377,0.9319473243542548,-0.4255420027758037,left,-0.0085102319717407,-0.6086073753533326,0.1418782035383395,-8.044566093441844,-0.2910843651888977,0.0097200907766819,0.0021952185779809,5.60671175404191,0.0012015104293823
2025-04-30 01:09:11.223711000,8.3877109375,0.0186675556647349,-0.0015798930544406,0.0719682256921451,0.0143845416605472,-0.2043223037897999,0.9319471034827193,-0.4257965792764232,left,-0.0004394054412841,-0.6081800998239288,0.1502316606627777,-8.04680948845446,-0.2907704768337399,-0.0015265820547938,-0.0009247185662388,5.603273011764884,-0.0005746483802795
2025-04-30 01:09:11.263711200,8.427711181640625,0.0190698169644584,0.0011853482574224,0.0721427006233713,0.0100075136870145,-0.2043504660096005,0.9319442949722698,-0.4257296519792759,left,0.0003061294555664,-0.6081476477206688,0.1534720490898005,-8.046930484485626,-0.2907166314666356,-0.0033042323775589,-0.0012129116803407,5.603011730480194,-0.0007387995719909
2025-04-30 01:09:11.303711200,8.467711181640626,0.0190698169644584,0.0039505898021161,0.0721427006233713,0.0056304847821593,-0.2043504660096005,0.9319442949722698,-0.4257296519792759,left,0.0010393261909484,-0.6081476477206688,0.1534720490898005,-8.046930484485626,-0.2907166314666356,-0.005081882700324,-0.0011706873774528,5.603011730480194,-0.0009296536445617
2025-04-30 01:09:11.343711200,8.507711181640625,0.0196968504269098,0.0073688593693077,0.0724232169006622,0.0038093128241598,-0.2042660251512985,0.9318988273084088,-0.4253760939639603,left,-0.0026264190673828,-0.6085479818337313,0.1584735106389038,-8.044589474317432,-0.2908521245156089,-0.0165486596524715,-0.0006754919886589,5.606233615136146,-0.003000795841217
2025-04-30 01:09:11.383711000,8.5477109375,0.0200183603857846,0.002304277382791,0.0726199395272055,0.00012923264876,-0.2041602414291925,0.931785751394428,-0.4250995450266709,left,-0.0008306503295898,-0.609426667442455,0.1609612540677189,-8.039609932339191,-0.2912392819342087,-0.0169691648334264,-0.0012533571571111,5.613301653826237,-0.0039799809455871
2025-04-30 01:09:11.423711000,8.5877109375,0.0203403424933775,-0.0027603050693869,0.0728166499925886,-0.0035508475266397,-0.2040544372555078,0.9316724615481936,-0.4248225382999399,left,0.0009644031524658,-0.6103053233693342,0.1634494724205695,-8.034623376098274,-0.2916263989985898,-0.0173896700143814,-0.0018312782049179,5.620365016341209,-0.0049588084220886
2025-04-30 01:09:11.463711000,8.6277109375,0.0203403424933775,0.0028526284731924,0.0728166499925886,-0.0015472995582967,-0.2040544372555078,0.9316724615481936,-0.4248225382999399,left,-0.0026506185531616,-0.6103053233693342,0.1634494724205695,-8.034623376098274,-0.2916263989985898,-0.0040107741951942,0.0016267206519842,5.620365016341209,-0.0011715292930603
2025-04-30 01:09:11.503711200,8.667711181640625,0.0200124962380316,0.0049096057191491,0.0726803089103522,-0.0053714988753199,-0.2039350059114827,0.931644537667357,-0.4246897112596049,left,-0.0021424889564514,-0.6106663437062717,0.1607747367859817,-8.032647107589245,-0.2918330756730849,-0.0024087477941066,0.0003817342221736,5.623265413957834,-0.0011271238327026
2025-04-30 01:09:11.543711200,8.707711181640626,0.0200124962380316,0.0069665824994444,0.0726803089103522,-0.0091956984251737,-0.2039350059114827,0.931644537667357,-0.4246897112596049,left,-0.0014328360557556,-0.6106663437062717,0.1607747367859817,-8.032647107589245,-0.2918330756730849,-0.0008067213930189,-0.0011360077187418,5.623265413957834,-0.0007870197296142
2025-04-30 01:09:11.583711200,8.747711181640625,0.0200124962380316,0.0078589133918285,0.0726803089103522,-0.0044774548150599,-0.2039350059114827,0.931644537667357,-0.4246897112596049,left,0.0013847947120666,-0.6106663437062717,0.1607747367859817,-8.032647107589245,-0.2918330756730849,0.0046094302088022,-0.0020911125466227,5.623265413957834,-0.0012500286102294
2025-04-30 01:09:11.623711200,8.787711181640624,0.0197652677584477,0.003248814959079,0.0725079996792445,-0.0039792312309145,-0.2037381553156003,0.931698446272251,-0.4243409509933402,left,0.0016790032386779,-0.6106033362885449,0.1587958379284478,-8.033041075342894,-0.2918415229587843,0.0031580221839249,-0.0017841402441263,5.622759218001366,-0.0021126866340637
2025-04-30 01:09:11.663711000,8.8277109375,0.0197652677584477,-0.0013612834736704,0.0725079996792445,-0.0034810076467692,-0.2037381553156003,0.931698446272251,-0.4243409509933402,left,0.0019330382347106,-0.6106033362885449,0.1587958379284478,-8.033041075342894,-0.2918415229587843,0.0017066143918782,-0.0016789464280009,5.622759218001366,-0.0030269622802734
2025-04-30 01:09:11.703711000,8.8677109375,0.0189558455102903,-0.0040073357522487,0.0721416006564958,-0.0126849729567766,-0.2036003581009793,0.9317078829526168,-0.4243078543080463,left,-0.0008217096328735,-0.6107598308800131,0.1522769758200272,-8.032287042105198,-0.2919981611431496,-0.013220558874309,-0.003766318783164,5.624016524586081,0.0011753439903259
2025-04-30 01:09:11.743711200,8.907711181640625,0.0185680040955751,-0.0014121145941317,0.0720111048968703,-0.0061290911398828,-0.2034946292732063,0.931638809606219,-0.4242382454042606,left,-0.0012047290802001,-0.6113693737520562,0.1490980352566577,-8.028916688889264,-0.2923244369544873,-0.0099476501345634,-0.0031968299299478,5.628912479934096,-0.0002802610397338
2025-04-30 01:09:11.783711200,8.947711181640624,0.0185680040955751,0.0011831063311547,0.0720111048968703,0.0004267911426723,-0.2034946292732063,0.931638809606219,-0.4242382454042606,left,-0.0012440085411071,-0.6113693737520562,0.1490980352566577,-8.028916688889264,-0.2923244369544873,-0.0066747413948178,-0.0029514962807297,5.628912479934096,-0.0012367367744445
2025-04-30 01:09:11.823711200,8.987711181640625,0.0185680040955751,-0.0036648025270551,0.0720111048968703,0.0094664487987756,-0.2034946292732063,0.931638809606219,-0.4242382454042606,left,-0.0009490251541137,-0.6113693737520562,0.1490980352566577,-8.028916688889264,-0.2923244369544873,0.0058891996741294,-0.0009786067530512,5.628912479934096,-0.003324270248413
2025-04-30 01:09:11.863711200,9.027711181640624,0.0185680040955751,-0.0047898641787469,0.0720111048968703,0.0074683548882603,-0.2034946292732063,0.931638809606219,-0.4242382454042606,left,0.0007840394973754,-0.6113693737520562,0.1490980352566577,-8.028916688889264,-0.2923244369544873,0.0063357669860124,-0.0002891914919018,5.628912479934096,-0.0032861232757568
2025-04-30 01:09:11.903711000,9.0677109375,0.0185680040955751,-0.0059149260632693,0.0720111048968703,0.005470260977745,-0.2034946292732063,0.931638809606219,-0.4242382454042606,left,0.0025171041488647,-0.6113693737520562,0.1490980352566577,-8.028916688889264,-0.2923244369544873,0.0067823342978954,0.0004002237692475,5.628912479934096,-0.0032480359077453
2025-04-30 01:09:11.943711000,9.1077109375,0.0189474522882905,-0.0009608585387468,0.0722853631366752,0.0072169727645814,-0.2039009051606215,0.9315662918518524,-0.424984528150181,left,-0.001949667930603,-0.6112526831731926,0.1521570209684781,-8.029515823826193,-0.2922044692099442,-0.0100862421095371,-1.6912817955e-06,5.6279754913449285,0.0029115080833435
2025-04-30 01:09:11.983711000,9.1477109375,0.0189563010856611,0.0036251982674002,0.072329133231545,0.0021056444384157,-0.2037769690356403,0.9314804758111634,-0.4247586848483012,left,-0.0018261671066284,-0.6119858127980603,0.1521498331758659,-8.025387345719338,-0.2925536219407107,-0.0115800807252526,-0.0005273222923278,5.633861626774072,0.0024398565292358
2025-04-30 01:09:12.023711200,9.187711181640625,0.0189654383003397,0.0082112550735473,0.0723729052617844,-0.0030056838877499,-0.2036529317506427,0.9313944701605396,-0.4245324976743646,left,-0.001703143119812,-0.6127188424524267,0.1521448008077219,-8.021254775959253,-0.2929027080595691,-0.0130739193409681,-0.0010531591251492,5.639744255071878,0.0019685626029968
2025-04-30 01:09:12.063711200,9.227711181640624,0.0192630479302182,0.0126555142924189,0.0724852948419437,0.0051077115349471,-0.2034258207826132,0.9313581909282912,-0.4239833269738121,left,-0.0014323592185974,-0.6132671563290298,0.154472403505072,-8.018115893411636,-0.2931479854842557,-0.0092547787353396,-0.0003917422145605,5.64414219776988,-0.0007130503654479
2025-04-30 01:09:12.103711200,9.267711181640625,0.0192630479302182,0.0049446504563093,0.0724852948419437,0.0050365347415208,-0.2034258207826132,0.9313581909282912,-0.4239833269738121,left,-0.0022177100181579,-0.6132671563290298,0.154472403505072,-8.018115893411636,-0.2931479854842557,-0.0059080403298139,0.0001198593527078,5.64414219776988,-0.0006368160247802
2025-04-30 01:09:12.143711000,9.3077109375,0.0192630479302182,-0.002766212914139,0.0724852948419437,0.0049653584137558,-0.2034258207826132,0.9313581909282912,-0.4239833269738121,left,-0.0030031204223632,-0.6132671563290298,0.154472403505072,-8.018115893411636,-0.2931479854842557,-0.0025613016914576,0.0006314627826213,5.64414219776988,-0.0005605816841125
2025-04-30 01:09:12.183711000,9.3477109375,0.0192630479302182,-0.0022353599779307,0.0724852948419437,0.0020121023990213,-0.2034258207826132,0.9313581909282912,-0.4239833269738121,left,-0.0032227635383605,-0.6132671563290298,0.154472403505072,-8.018115893411636,-0.2931479854842557,0.003430992597714,0.0006328392773866,5.64414219776988,-0.0006303191184997
2025-04-30 01:09:12.223711000,9.3877109375,0.0192630479302182,-0.0002330143470317,0.0724852948419437,-0.003723042551428,-0.2034258207826132,0.9313581909282912,-0.4239833269738121,left,-0.0019920468330383,-0.6132671563290298,0.154472403505072,-8.018115893411636,-0.2931479854842557,0.0028937640599906,8.78535211086e-05,5.64414219776988,-0.0009863972663879
2025-04-30 01:09:12.263711200,9.427711181640625,0.0192630479302182,0.0017693310510367,0.0724852948419437,-0.0094581870362162,-0.2034258207826132,0.9313581909282912,-0.4239833269738121,left,-0.000761330127716,-0.6132671563290298,0.154472403505072,-8.018115893411636,-0.2931479854842557,0.0023565357550978,-0.0004571322351694,5.64414219776988,-0.0013424754142761
2025-04-30 01:09:12.303711200,9.467711181640626,0.0200274110288536,0.0097733382135629,0.0726936049854641,0.0011917231604456,-0.2032483694606794,0.9314750112100604,-0.4233310521482435,left,-0.0032840967178344,-0.6127394574303595,0.1606607367511838,-8.020971867364645,-0.2928478910518807,0.0049006966874003,0.0004367213696241,5.63990967476666,-0.0027615427970886
2025-04-30 01:09:12.343711200,9.507711181640625,0.0200707156668818,0.0002702083438634,0.0727113516224867,-0.0005512420320883,-0.2032622329998573,0.9314788007484912,-0.4233446832737226,left,-0.0019298195838928,-0.6126949629081014,0.1610131121191196,-8.021216197514534,-0.2928222060914448,-0.0032405238598585,0.0010195132344961,5.639552531892061,-0.0034083724021911
2025-04-30 01:09:12.383711000,9.5477109375,0.0200707156668818,-0.0092329215258359,0.0727113516224867,-0.0022942069917917,-0.2032622329998573,0.9314788007484912,-0.4233446832737226,left,-0.0006003975868225,-0.6126949629081014,0.1610131121191196,-8.021216197514534,-0.2928222060914448,-0.0113817444071173,0.0016382467001676,5.639552531892061,-0.0040916204452514
2025-04-30 01:09:12.423711000,9.5877109375,0.0195266063825765,-0.0216459259390831,0.072629620196262,-0.0089360810816288,-0.2035637413401064,0.9313408376573648,-0.4241913125716406,left,0.0020247101783752,-0.6131773297436034,0.1565955514051951,-8.018581757357715,-0.2930717303301949,-0.0183344520628452,-0.0006768284365534,5.6434220668017865,-0.0028221607208251
2025-04-30 01:09:12.463711000,9.6277109375,0.018833409525886,-0.0114632416516542,0.0724541023589229,-0.0084807910025119,-0.2036700678937892,0.9312030171354704,-0.4246825480165047,left,0.0008589625358581,-0.6139372571896636,0.1509562394771259,-8.01439833419323,-0.2934788131988957,-0.0152048952877521,-0.0019902065396308,5.649515122979879,-0.0010412335395812
2025-04-30 01:09:12.503711200,9.667711181640623,0.0181393654534929,-0.0012805582955479,0.0722785592315793,-0.0080255009233951,-0.2037763458028341,0.9310650351967004,-0.4251747221219848,left,-0.000307559967041,-0.6146969803816463,0.1453159685678314,-8.010207312244177,-0.2938858486651129,-0.012075338512659,-0.003303475677967,5.655602918460965,0.0007402300834655
2025-04-30 01:09:12.543711200,9.707711181640626,0.0181393654534929,0.0011277969460934,0.0722785592315793,-0.0063486974686384,-0.2037763458028341,0.9310650351967004,-0.4251747221219848,left,-0.0006619691848754,-0.6146969803816463,0.1453159685678314,-8.010207312244177,-0.2938858486651129,-0.0092858467251062,-0.0029112864285707,5.655602918460965,0.0018076300621032
2025-04-30 01:09:12.583711200,9.747711181640623,0.0176315347561546,0.0009928796207532,0.0720746287107816,-0.0037396249826997,-0.2036994184019421,0.9310363195318808,-0.4251881940679361,left,-0.0026050806045532,-0.6150045043840378,0.141217456340976,-8.00854084033668,-0.2940804080104552,0.0010889675468206,-0.0022096550092101,5.658066678225993,0.0008890628814697
2025-04-30 01:09:12.623711200,9.787711181640624,0.0176315347561546,0.000857962295413,0.0720746287107816,-0.0011305522639304,-0.2036994184019421,0.9310363195318808,-0.4251881940679361,left,-0.004378318786621,-0.6150045043840378,0.141217456340976,-8.00854084033668,-0.2940804080104552,0.01146378275007,-0.0019259415566921,5.658066678225993,0.0002217292785644
2025-04-30 01:09:12.663711000,9.8277109375,0.0176315347561546,0.0053471121937036,0.0720746287107816,0.0032692889217287,-0.2036994184019421,0.9310363195318808,-0.4251881940679361,left,-0.0032387971878051,-0.6150045043840378,0.141217456340976,-8.00854084033668,-0.2940804080104552,0.0158465690910816,-0.0014344230294227,5.658066678225993,-0.0033379793167114
2025-04-30 01:09:12.703711000,9.8677109375,0.0176315347561546,0.004542504902929,0.0720746287107816,0.0060294275172054,-0.2036994184019421,0.9310363195318808,-0.4251881940679361,left,-0.0003941059112548,-0.6150045043840378,0.141217456340976,-8.00854084033668,-0.2940804080104552,-0.0036759953945875,-0.0014941552653908,5.658066678225993,-0.0031116008758544
2025-04-30 01:09:12.743711200,9.907711181640623,0.0176315347561546,0.0037378973793238,0.0720746287107816,0.0087895654141902,-0.2036994184019421,0.9310363195318808,-0.4251881940679361,left,0.0024505853652954,-0.6150045043840378,0.141217456340976,-8.00854084033668,-0.2940804080104552,-0.0231985617429018,-0.0015538865700364,5.658066678225993,-0.0028852224349975
2025-04-30 01:09:12.783711200,9.947711181640624,0.0187222098069337,0.0025529288686811,0.0724939895186556,0.001890807878226,-0.2033899501034192,0.931013194464558,-0.4242118959389765,left,0.0027830600738525,-0.6155618738954517,0.149893012426095,-8.005227770265936,-0.2942644960897324,-0.015183025971055,-0.0009783040732145,5.66253008737564,-0.0038316845893859
2025-04-30 01:09:12.823711200,9.987711181640623,0.0187718046909225,-0.0009326837025582,0.0725699836537524,0.0016406141221523,-0.2033237099407228,0.930917694495376,-0.4240957885710298,left,0.0014983415603637,-0.6162697230339814,0.1502147643269039,-8.00121093584001,-0.2945935712739211,-0.0198043659329414,-0.0009503820911049,5.668196442574263,-0.0020229816436767
2025-04-30 01:09:12.863711200,10.027711181640624,0.0187718046909225,-0.004418296739459,0.0725699836537524,0.0013904204824939,-0.2033237099407228,0.930917694495376,-0.4240957885710298,left,0.0006232857704162,-0.6162697230339814,0.1502147643269039,-8.00121093584001,-0.2945935712739211,-0.0244257040321826,-0.0008896365761756,5.668196442574263,0.0003634095191955
2025-04-30 01:09:12.903711000,10.0677109375,0.0184988293706371,-0.004958548117429,0.0726206378000081,-0.0032046698033809,-0.2033137832665035,0.9306783608027492,-0.424253635989566,left,-0.0016860961914062,-0.6178311959045817,0.1478667216297239,-7.992392838612198,-0.2953432261914752,-0.0253921132534742,-0.0008661821484565,5.680685337269306,0.0020003914833068
2025-04-30 01:09:12.943711000,10.1077109375,0.0184988293706371,-0.0033590435050427,0.0726206378000081,-0.0024172947742044,-0.2033137832665035,0.9306783608027492,-0.424253635989566,left,-0.0017953515052795,-0.6178311959045817,0.1478667216297239,-7.992392838612198,-0.2953432261914752,-0.0171299166977405,-0.0014858301728963,5.680685337269306,0.0012423992156982
2025-04-30 01:09:12.983711000,10.1477109375,0.0184988293706371,-0.0017595391254872,0.0726206378000081,-0.0016299195121973,-0.2033137832665035,0.9306783608027492,-0.424253635989566,left,-0.0019046068191528,-0.6178311959045817,0.1478667216297239,-7.992392838612198,-0.2953432261914752,-0.0088677201420068,-0.0021054772660136,5.680685337269306,0.0004844069480895
2025-04-30 01:09:13.023711200,10.187711181640625,0.0184988293706371,-0.0001600348623469,0.0726206378000081,-0.0008425443666055,-0.2033137832665035,0.9306783608027492,-0.424253635989566,left,-0.0020138025283813,-0.6178311959045817,0.1478667216297239,-7.992392838612198,-0.2953432261914752,-0.0006055245175957,-0.0027251252904534,5.680685337269306,-0.0002736449241638
2025-04-30 01:09:13.063711200,10.227711181640624,0.0188213796885219,-0.001221400918439,0.0727872272276268,0.0034069288522005,-0.2032720266573892,0.9306213063552352,-0.4240863036005274,left,4.80413436889e-05,-0.6182481043638548,0.1504000851653981,-7.989975840598344,-0.295510763276596,-0.0024832030758261,-0.0019118255004286,5.684017112040519,-0.000665545463562
2025-04-30 01:09:13.103711200,10.267711181640625,0.0188213796885219,-0.0022827670909464,0.0727872272276268,0.0076564014889299,-0.2032720266573892,0.9306213063552352,-0.4240863036005274,left,0.0023562908172607,-0.6182481043638548,0.1504000851653981,-7.989975840598344,-0.295510763276596,-0.0043608816340565,-0.0008402029052376,5.684017112040519,-0.0007176995277404
2025-04-30 01:09:13.143711000,10.3077109375,0.0192095185102749,-0.0018165067303925,0.0730194111390829,0.001178209669888,-0.2033057624180163,0.9305267110834434,-0.424068052774849,left,0.0010678172111511,-0.61879732076793,0.1534412886253558,-7.9867942879527805,-0.2957278738908493,-0.0025888667441904,-0.0004426194354891,5.688405702388287,-0.0006435513496398
2025-04-30 01:09:13.183711000,10.3477109375,0.0192095185102749,-0.0026167803443968,0.0730194111390829,0.0014027701690793,-0.2033057624180163,0.9305267110834434,-0.424068052774849,left,0.0007138848304748,-0.61879732076793,0.1534412886253558,-7.9867942879527805,-0.2957278738908493,-0.0036647832021117,-0.0002991259098052,5.688405702388287,-0.0002093911170959
2025-04-30 01:09:13.223711000,10.3877109375,0.0192095185102749,-0.003417053958401,0.0730194111390829,0.0016273307846859,-0.2033057624180163,0.9305267110834434,-0.424068052774849,left,0.0003598928451538,-0.61879732076793,0.1534412886253558,-7.9867942879527805,-0.2957278738908493,-0.0047406996600329,-0.0001556323841214,5.688405702388287,0.0002248287200927
2025-04-30 01:09:13.263711200,10.427711181640625,0.0191603096906398,0.00104810600169,0.0731068436936923,0.0009530071984045,-0.2034762523627057,0.9304117685879482,-0.4244798532216978,left,8.43405723571e-05,-0.6192973878433645,0.1529937640535645,-7.9839570187002415,-0.295950772393356,-0.0028321356512606,-3.65311279892e-05,5.692399155938625,5.26309013366e-05
2025-04-30 01:09:13.303711200,10.467711181640626,0.0191603096906398,-0.0005860287928953,0.0731068436936923,0.0004816072178073,-0.2034762523627057,0.9304117685879482,-0.4244798532216978,left,0.0001065135002136,-0.6192973878433645,0.1529937640535645,-7.9839570187002415,-0.295950772393356,-0.0014248855877667,-0.0002064956352114,5.692399155938625,-0.0004540085792541
2025-04-30 01:09:13.343711200,10.507711181640625,0.0191603096906398,-0.0022201635874807,0.0731068436936923,1.02072954177e-05,-0.2034762523627057,0.9304117685879482,-0.4244798532216978,left,0.00012868642807,-0.6192973878433645,0.1529937640535645,-7.9839570187002415,-0.295950772393356,-1.76355242729e-05,-0.0003764601424336,5.692399155938625,-0.0009606480598449
2025-04-30 01:09:13.383711000,10.5477109375,0.0191603096906398,-0.0057226084172725,0.0731068436936923,0.0007419326575472,-0.2034762523627057,0.9304117685879482,-0.4244798532216978,left,-0.0026615858078002,-0.6192973878433645,0.1529937640535645,-7.9839570187002415,-0.295950772393356,0.0011267324443906,-5.86789101362e-05,5.692399155938625,0.001408576965332
2025-04-30 01:09:13.423711000,10.5877109375,0.0191603096906398,0.0017854101024568,0.0731068436936923,0.0063045476563274,-0.2034762523627057,0.9304117685879482,-0.4244798532216978,left,-0.0066367983818054,-0.6192973878433645,0.1529937640535645,-7.9839570187002415,-0.295950772393356,-5.44741051271e-05,0.0006151432171463,5.692399155938625,0.001455545425415
2025-04-30 01:09:13.463711000,10.6277109375,0.0191603096906398,0.0092934286221861,0.0731068436936923,0.0118671618402004,-0.2034762523627057,0.9304117685879482,-0.4244798532216978,left,-0.0106120705604553,-0.6192973878433645,0.1529937640535645,-7.9839570187002415,-0.295950772393356,-0.0012356805382296,0.0012889662757515,5.692399155938625,0.001502513885498
2025-04-30 01:09:13.503711200,10.667711181640623,0.0191603096906398,0.0104610808193683,0.0731068436936923,0.0075492388568818,-0.2034762523627057,0.9304117685879482,-0.4244798532216978,left,-0.0022767782211303,-0.6192973878433645,0.1529937640535645,-7.9839570187002415,-0.295950772393356,-0.0143720442429184,-0.0014638779684901,5.692399155938625,0.0007445216178894
2025-04-30 01:09:13.543711200,10.707711181640626,0.0198099460590242,0.0070467079058289,0.0733691570757523,0.0051365960389375,-0.2032921699144895,0.9303777528794496,-0.4239045550480032,left,-0.0007098913192749,-0.6197554571589694,0.158128734055534,-7.981248344263434,-0.2961191639724664,-0.0125796906650066,-0.0011117737740278,5.696056509402394,-0.0001112222671508
2025-04-30 01:09:13.583711200,10.747711181640623,0.0204600924500738,0.0036323347594588,0.073631445167808,0.0027239527553319,-0.2031080631439544,0.9303436564625134,-0.4233287355933081,left,0.0008567571640014,-0.6202132265467521,0.1632643068457022,-7.978536162695288,-0.2962875081490932,-0.0107873380184173,-0.0007597506046295,5.699710355734825,-0.0009666681289672
2025-04-30 01:09:13.623711200,10.787711181640624,0.0204600924500738,-0.0017872860189527,0.073631445167808,0.0028536785393953,-0.2031080631439544,0.9303436564625134,-0.4233287355933081,left,-3.80277633666e-05,-0.6202132265467521,0.1632643068457022,-7.978536162695288,-0.2962875081490932,-0.0124812489375472,-0.0002194512635469,5.699710355734825,-0.000383973121643
2025-04-30 01:09:13.663711000,10.8277109375,0.0205601459319731,-0.001288492931053,0.0737301088310597,0.0010268799960613,-0.2030814202664632,0.9302537870681772,-0.4232753427682586,left,0.0011483430862426,-0.6208228157070914,0.1639911232829093,-7.975044228926301,-0.2965632674579103,-0.0090666022151708,-0.0006804820150136,5.704574162378907,-0.0012863278388977
2025-04-30 01:09:13.703711000,10.8677109375,0.0205601459319731,-0.000789699726738,0.0737301088310597,-0.000799918663688,-0.2030814202664632,0.9302537870681772,-0.4232753427682586,left,0.0026907324790954,-0.6208228157070914,0.1639911232829093,-7.975044228926301,-0.2965632674579103,-0.0056519559584558,-0.0010674111545085,5.704574162378907,-0.001692771911621
2025-04-30 01:09:13.743711200,10.907711181640623,0.0205601459319731,0.0092713320627808,0.0737301088310597,0.0047278436832129,-0.2030814202664632,0.9302537870681772,-0.4232753427682586,left,-0.0014335513114929,-0.6208228157070914,0.1639911232829093,-7.975044228926301,-0.2965632674579103,0.0001993947662413,0.0017742756754159,5.704574162378907,0.0021584630012512
2025-04-30 01:09:13.783711200,10.947711181640624,0.0209884516855187,0.0117645990103483,0.073828994576855,-0.0011045509018003,-0.2027041467180363,0.9302753063226192,-0.4223496186623647,left,-0.0001410841941833,-0.6211986416593901,0.1673618600913323,-7.972828890964388,-0.2967290441222702,0.0002695260336622,0.0009982492774724,5.70757159062922,0.0002820491790771
2025-04-30 01:09:13.823711200,10.987711181640623,0.0214172782560864,0.0142578668892383,0.0739278742420702,-0.0069369450211524,-0.2023268770403497,0.9302966923532452,-0.4214235734850101,left,0.0011511445045471,-0.6215742569147469,0.1707348801883868,-7.970612383958697,-0.2968948006095209,0.000339657330187,0.0002219937741756,5.710566096270084,-0.0015941262245178
2025-04-30 01:09:13.863711200,11.027711181640624,0.0218466814701436,0.0167511329054832,0.07402675487497,-0.0127693396061658,-0.2019495587180249,0.9303179169669956,-0.420497052445249,left,0.0024433135986328,-0.6219496044803859,0.1741106402317993,-7.968395292431116,-0.2970605237908176,0.0004097886267118,-0.0005545690655708,5.71355826382339,-0.0034699440002441
2025-04-30 01:09:13.903711000,11.0677109375,0.021615031886764,0.0099494000896811,0.0738802750097151,-0.0124071324244141,-0.201658524302849,0.9303184213304232,-0.4199688997003217,left,0.0012661218643188,-0.6223567236725076,0.1722144694879651,-7.966109227320551,-0.2972930797997732,-0.0068763266317546,-0.0010991133749485,5.71680294483304,-0.0017258524894714
2025-04-30 01:09:13.943711000,11.1077109375,0.0213834972587219,0.0031476682052016,0.0737337951444599,-0.0120449252426624,-0.201367574466851,0.9303187681477156,-0.4194410092096474,left,8.86917114257e-05,-0.622764072269407,0.1703202349728904,-7.963820239600539,-0.2975256358087292,-0.0141624407842755,-0.001643881201744,5.72004821036458,1.81794166564e-05
2025-04-30 01:09:13.983711000,11.1477109375,0.0209966486630945,0.0004717509727925,0.0735690156334306,-0.0113183902576565,-0.2012326775479318,0.9302907949325524,-0.4192965694347996,left,0.0008055567741394,-0.6231401676607329,0.1671942484394647,-7.961734080976247,-0.2977450865215977,-0.0016398029401898,-0.0022636149078607,5.723043300527334,-0.0004662275314331
2025-04-30 01:09:14.023711200,11.187711181640625,0.0206675814040597,0.0014233533293008,0.0733388487042662,-0.0092263957485556,-0.2011011758451344,0.9303956166272324,-0.4190914080371321,left,-0.0005009174346923,-0.6226624756544015,0.164630772893317,-7.964521081346273,-0.2975631886190316,0.0001030638813972,-0.0020308503881096,5.719238647547364,-0.0012651681900024
2025-04-30 01:09:14.063711200,11.227711181640624,0.0203384983661845,0.0023749556858092,0.0731086766622067,-0.0071344012394547,-0.2009696780130774,0.930500305098096,-0.418886167809388,left,-0.0018076300621032,-0.6221847807248095,0.1620653245857916,-7.96730515910685,-0.2973812372334021,0.0018459307029843,-0.0017978865653276,5.715432825523615,-0.0020639896392822
2025-04-30 01:09:14.103711200,11.267711181640625,0.0203384983661845,0.0033265580423176,0.0731086766622067,-0.0050424067303538,-0.2009696780130774,0.930500305098096,-0.418886167809388,left,-0.0033982992172241,-0.6221847807248095,0.1620653245857916,-7.96730515910685,-0.2973812372334021,0.0035887975245714,-0.0018265172839164,5.715432825523615,-0.0032508373260498
2025-04-30 01:09:14.143711000,11.3077109375,0.0201551435692145,0.0059671234339475,0.0729358699504092,-0.0054814354516565,-0.2007781211955287,0.9305941283886526,-0.4185138410465251,left,0.0011000037193298,-0.6218547890302154,0.1606424704421311,-7.969220052817463,-0.2972594938567224,0.0005097498651593,-0.0033397171646356,5.712802477020025,-0.0045141577720642
2025-04-30 01:09:14.183711000,11.3477109375,0.0201551435692145,0.0086076883599162,0.0729358699504092,-0.0059204646386206,-0.2007781211955287,0.9305941283886526,-0.4185138410465251,left,0.0054029822349548,-0.6218547890302154,0.1606424704421311,-7.969220052817463,-0.2972594938567224,-0.0025692980270832,-0.0049980068579316,5.712802477020025,-0.0060456991195678
2025-04-30 01:09:14.223711000,11.3877109375,0.0201551435692145,0.0024241548962891,0.0729358699504092,0.004101135302335,-0.2007781211955287,0.9305941283886526,-0.4185138410465251,left,-0.007168710231781,-0.6218547890302154,0.1606424704421311,-7.969220052817463,-0.2972594938567224,-0.0111468518152832,-0.0006306916475296,5.712802477020025,-0.0034701228141784
2025-04-30 01:09:14.263711200,11.427711181640625,0.0206248752432848,0.0065699853003025,0.0731364348211654,0.0154870077967643,-0.2005462271616149,0.9305260561546044,-0.4179083139239949,left,-0.0046201348304748,-0.6225954331989898,0.1642985452642664,-7.964910957446694,-0.2975795747585318,-0.0268250256776809,-0.000322425737977,5.718704394540191,0.0018326640129089
2025-04-30 01:09:14.303711200,11.467711181640626,0.0209902650138977,0.0060483575798571,0.0733015195718888,0.0082047926262021,-0.2003658984861056,0.9304592154494692,-0.417442230993948,left,-0.0032449960708618,-0.6232593720298886,0.1671291107813827,-7.961053112974763,-0.297869344159625,-0.0212213173508644,-0.0002263095229864,5.723992564076185,0.0012869238853454
2025-04-30 01:09:14.343711200,11.507711181640625,0.0213561852903106,0.0055267298594117,0.073466592161452,0.0009225774556398,-0.2001855493590175,0.9303921608120804,-0.416975617834628,left,-0.0018702745437622,-0.6239231262966001,0.169961028005369,-7.957190592327714,-0.2981590732064996,-0.0156176080927252,-0.0001303274184465,5.729276641958951,0.0007415413856506
2025-04-30 01:09:14.383711000,11.5477109375,0.0217226673309136,0.0050051026046276,0.0736316394610109,-0.0063596367835998,-0.2000051477165512,0.9303250779816324,-0.4165084828870498,left,-0.0004959106445312,-0.624586803788716,0.1727945526645518,-7.953325149071216,-0.2984487548508904,-0.0100138988345861,-3.45464795827e-05,5.73455779723227,0.0001965165138244
2025-04-30 01:09:14.423711000,11.5877109375,0.0217226673309136,-0.0003596763126552,0.0736316394610109,-0.0052055469714105,-0.2000051477165512,0.9303250779816324,-0.4165084828870498,left,1.41263008117e-05,-0.624586803788716,0.1727945526645518,-7.953325149071216,-0.2984487548508904,-0.0081418789923191,-0.0007809717208147,5.73455779723227,0.0006402134895324
2025-04-30 01:09:14.463711000,11.6277109375,0.0213913471938243,-0.0025634132325649,0.0735342814890566,-0.0101956743746995,-0.1998960038830502,0.9302367849918992,-0.4164216411255098,left,0.0016596913337707,-0.6253074899355255,0.1700710094521753,-7.949247524368762,-0.2988207944507729,-0.0077518210746347,-0.0025256685912609,5.740289618882537,0.0009416937828063
2025-04-30 01:09:14.503711200,11.667711181640623,0.0209812498320637,-0.0030627511441707,0.0733274243674042,-0.0092256059870123,-0.1998880851665946,0.9302899694317232,-0.4165181111652501,left,-0.0002132058143615,-0.6249920648555415,0.1668490151983685,-7.951126762244105,-0.2987113153859123,0.0045917774550616,-0.0039855651557445,5.737781435453892,0.0007533431053161
2025-04-30 01:09:14.543711200,11.707711181640626,0.0205712862288088,-0.0035620892886072,0.0731205672457517,-0.0082555375993251,-0.1998801664501391,0.9303431538715472,-0.416614457317904,left,-0.0020863413810729,-0.6246766909056278,0.1636265460205264,-7.953003077509999,-0.2986018363210517,0.0169353764504194,-0.0054454002529382,5.735272667503357,0.0005651116371154
2025-04-30 01:09:14.583711200,11.747711181640623,0.0205712862288088,-0.0040614274330437,0.0731205672457517,-0.0072854687459766,-0.1998801664501391,0.9303431538715472,-0.416614457317904,left,-0.0041509270668029,-0.6246766909056278,0.1636265460205264,-7.953003077509999,-0.2986018363210517,0.0292789749801158,-0.0072338385507464,5.735272667503357,0.000120997428894
2025-04-30 01:09:14.623711200,11.787711181640624,0.0206184530360137,-0.000867502996698,0.073028934086533,0.0231171939522027,-0.1999914812903429,0.9305375389472624,-0.4167578079537011,left,-0.0046290755271911,-0.6232832140644777,0.1641662606541067,-7.960977709650993,-0.2979427528091344,0.0375600047409534,-0.0074191037565469,5.724182533690333,0.0023857355117797
2025-04-30 01:09:14.663711000,11.8277109375,0.0215725706260295,-0.0091412654146552,0.0733674390694939,0.0342334806919097,-0.2003438352717759,0.9307137800510868,-0.4171158089423123,left,-0.0017188787460327,-0.6216457352808326,0.1719638374614529,-7.97017749967277,-0.2970711217403828,0.0408030375838279,-0.0053202686831355,5.711136005112529,-0.0003656148910522
2025-04-30 01:09:14.703711000,11.8677109375,0.0224032405839048,-0.0152067616581916,0.0737412181576444,0.0284736063331365,-0.2009333227759251,0.9308218159391204,-0.4180305191990675,left,-0.000136375427246,-0.6201157341033887,0.17877991068447,-7.978758865535259,-0.2962410231022081,0.0308517646044492,-0.0034906202927231,5.698932357099652,-0.0009955167770385
2025-04-30 01:09:14.743711200,11.907711181640623,0.0232346796267003,-0.0212722588330507,0.0741148817147758,0.0227137319743633,-0.2015225504760461,0.9309286975867074,-0.418945722947269,left,0.001443326473236,-0.618586226607043,0.185616003782209,-7.987312174347043,-0.2954105410989547,0.0209004916250705,-0.0016629993915557,5.68671877221465,-0.0016245245933532
2025-04-30 01:09:14.783711200,11.947711181640624,0.0234074256790835,-0.0144413746893405,0.0742884389377488,0.0109995836392045,-0.2020382109850111,0.930907732340488,-0.419965570538115,left,0.0003987550735473,-0.6179969869604643,0.1870741667012684,-7.990628751549124,-0.2950805763054487,0.0042801555246114,-0.0004593022167682,5.682010448393226,-0.0004488229751586
2025-04-30 01:09:14.823711200,11.987711181640623,0.0234211533397661,-0.0079406984150409,0.0743805669722824,0.0066408370621502,-0.2023496312900975,0.9308581658475114,-0.4206237747311465,left,-0.0007649660110473,-0.6178807468762982,0.1871993274508975,-7.991286338675022,-0.2950005178720754,0.0030554165132343,5.3159892559e-05,5.681081058588624,-0.0022878646850585
2025-04-30 01:09:14.863711200,12.027711181640624,0.0234211533397661,-0.0061406926251947,0.0743805669722824,0.0054339207708835,-0.2023496312900975,0.9308581658475114,-0.4206237747311465,left,-0.0010218620300292,-0.6178807468762982,0.1871993274508975,-7.991286338675022,-0.2950005178720754,0.0027162921614944,0.0008774828165769,5.681081058588624,-0.0030843019485473
2025-04-30 01:09:14.903711000,12.0677109375,0.0234211533397661,-0.0021976735442876,0.0743805669722824,0.0014018346555531,-0.2023496312900975,0.9308581658475114,-0.4206237747311465,left,0.0019129514694213,-0.6178807468762982,0.1871993274508975,-7.991286338675022,-0.2950005178720754,-0.001103586051613,-0.0003249999135732,5.681081058588624,-0.0037519335746765
2025-04-30 01:09:14.943711000,12.1077109375,0.0234211533397661,0.0017453460022807,0.0743805669722824,-0.0026302519254386,-0.2023496312900975,0.9308581658475114,-0.4206237747311465,left,0.004847764968872,-0.6178807468762982,0.1871993274508975,-7.991286338675022,-0.2950005178720754,-0.0049234647303819,-0.0015274826437234,5.681081058588624,-0.0044195652008056
2025-04-30 01:09:14.983711000,12.1477109375,0.0234211533397661,0.0056883655488491,0.0743805669722824,-0.0066623380407691,-0.2023496312900975,0.9308581658475114,-0.4206237747311465,left,0.0077825188636779,-0.6178807468762982,0.1871993274508975,-7.991286338675022,-0.2950005178720754,-0.0087433429434895,-0.0027299635112285,5.681081058588624,-0.0050871968269348
2025-04-30 01:09:15.023711200,12.187711181640625,0.0234211533397661,0.0044893808662891,0.0743805669722824,0.0032454971224069,-0.2023496312900975,0.9308581658475114,-0.4206237747311465,left,-0.0039211511611938,-0.6178807468762982,0.1871993274508975,-7.991286338675022,-0.2950005178720754,-0.0147185791283845,0.0008207503706216,5.681081058588624,-1.32322311401e-05
2025-04-30 01:09:15.063711200,12.227711181640624,0.0240918235072874,0.0033375001512467,0.0748423137303013,0.0048944749869406,-0.2024790340803713,0.9306209069128908,-0.4207635595239284,left,-0.0007295608520507,-0.6192015505655186,0.1923778808662667,-7.983650729230046,-0.2955430786750456,-0.0286040976643562,0.0005982425063848,5.6916340167850255,0.0035248398780822
2025-04-30 01:09:15.103711200,12.267711181640625,0.024312987170114,0.0031964548397809,0.0750426000862886,-0.005588122177869,-0.2024582597926422,0.9304557130262252,-0.4207093235340295,left,0.0027195215225219,-0.6202809207002067,0.1939940838912501,-7.977461226940155,-0.2960257950775335,-0.0153264626860618,-0.0002792309969663,5.700250453960895,0.001148521900177
2025-04-30 01:09:15.143711000,12.3077109375,0.0242404982306983,0.008612660691142,0.0749947835627558,-0.0095530096441507,-0.202297652760363,0.930441606474425,-0.4204051205093137,left,0.0020157694816589,-0.6205984313657394,0.193371951671224,-7.975666160216927,-0.2961924561740542,-0.0023807231336832,-0.0014547668397426,5.702783771830797,0.0013049840927124
2025-04-30 01:09:15.183711000,12.3477109375,0.0242404982306983,0.0019271168857812,0.0749947835627558,-0.0120695689693093,-0.202297652760363,0.930441606474425,-0.4204051205093137,left,-0.0003090500831604,-0.6205984313657394,0.193371951671224,-7.975666160216927,-0.2961924561740542,-0.0007291379151865,-0.0033871307969093,5.702783771830797,0.0008254647254943
2025-04-30 01:09:15.223711000,12.3877109375,0.0235638298429942,-0.0016933681908994,0.0746520544786589,-0.0039875423535704,-0.2021219516458925,0.9304890094084362,-0.4202407703182365,left,-0.0041984915733337,-0.6205615962746971,0.187979974700883,-7.976005182912945,-0.2962498732013223,0.0044581894762814,-0.0023031495511531,5.702490341842174,-0.0013880729675292
2025-04-30 01:09:15.263711200,12.427711181640625,0.0235638298429942,-0.0034777398686856,0.0746520544786589,0.0006466880440711,-0.2021219516458925,0.9304890094084362,-0.4202407703182365,left,0.0004584193229675,-0.6205615962746971,0.187979974700883,-7.976005182912945,-0.2962498732013223,0.0083306534215807,-0.0024305582046508,5.702490341842174,-0.0021637082099914
2025-04-30 01:09:15.303711200,12.467711181640626,0.0234095571506791,-0.0049541741609573,0.0745815024483823,0.0065874136053025,-0.2023234298027888,0.9305493444418712,-0.4206853950992143,left,-0.000244140625,-0.6198997654276097,0.1868377823958173,-7.979805159717798,-0.2959404632322219,0.0111476369202137,-0.0007559079676866,5.697208602046966,-0.003194510936737
2025-04-30 01:09:15.343711200,12.507711181640625,0.0235592272936706,-0.0019613006152212,0.0746332160049649,0.0037878262810409,-0.202467172360952,0.9306005351692884,-0.4209165424765933,left,0.0011572241783142,-0.6193664185537593,0.1881036741457879,-7.982813693884014,-0.2956681263585653,0.006912778597325,-0.002204967662692,5.6929503600806,-0.001816987991333
2025-04-30 01:09:15.383711000,12.5477109375,0.0235592272936706,0.0003902951721101,0.0746332160049649,-0.0016319025307893,-0.202467172360952,0.9306005351692884,-0.4209165424765933,left,-0.0016902685165405,-0.6193664185537593,0.1881036741457879,-7.982813693884014,-0.2956681263585653,0.0009382697753608,-0.0010131653398275,5.6929503600806,-0.0026115775108337
2025-04-30 01:09:15.423711000,12.5877109375,0.0235592272936706,0.002040775725618,0.0746332160049649,-0.002234895247966,-0.202467172360952,0.9306005351692884,-0.4209165424765933,left,-0.0011565685272216,-0.6193664185537593,0.1881036741457879,-7.982813693884014,-0.2956681263585653,-0.0006400921847671,-0.001619616523385,5.6929503600806,-0.002983272075653
2025-04-30 01:09:15.463711000,12.6277109375,0.0235592272936706,-0.0024369328748434,0.0746332160049649,-0.0059997020289301,-0.202467172360952,0.9306005351692884,-0.4209165424765933,left,0.000587522983551,-0.6193664185537593,0.1881036741457879,-7.982813693884014,-0.2956681263585653,-0.0088225062936544,-0.0020306538790464,5.6929503600806,-0.0023512840270996
2025-04-30 01:09:15.503711200,12.667711181640623,0.0235592272936706,-0.0056681632995605,0.0746332160049649,-0.0035022071097046,-0.202467172360952,0.9306005351692884,-0.4209165424765933,left,0.0007205009460449,-0.6193664185537593,0.1881036741457879,-7.982813693884014,-0.2956681263585653,-0.0096923597157001,-0.0024632979184389,5.6929503600806,-0.0002867579460144
2025-04-30 01:09:15.543711200,12.707711181640626,0.0227872076177416,-0.00426139915362,0.0744130327507292,-0.0053780656307935,-0.2025278848956884,0.9304686695196256,-0.4213371335476059,left,-0.00081467628479,-0.6201514416395342,0.1818388415973633,-7.978485893812775,-0.2960964719977694,-0.0082819517701864,-0.003721441142261,5.69921701925993,0.0014280080795288
2025-04-30 01:09:15.583711200,12.747711181640623,0.0225543267338843,0.0014809840358793,0.0743677261830164,0.002587835304439,-0.2025176107563379,0.930390902633275,-0.4214190241855358,left,-0.00211763381958,-0.6206717080550934,0.1799139196830801,-7.975563284364342,-0.2963593948111268,-0.0088631268590688,-0.0033020777627825,5.703368293720484,0.0016714334487915
2025-04-30 01:09:15.623711200,12.787711181640624,0.0225543267338843,-0.0004233553772792,0.0743677261830164,0.0098457187414169,-0.2025176107563379,0.930390902633275,-0.4214190241855358,left,-0.0014734268188476,-0.6206717080550934,0.1799139196830801,-7.975563284364342,-0.2963593948111268,-0.0053212204948067,-0.0016262829303741,5.703368293720484,5.37633895874e-05
2025-04-30 01:09:15.663711000,12.8277109375,0.023027571225798,-0.0074628139846026,0.0746711665558877,0.0121605331078171,-0.2026823543981743,0.9302745664878876,-0.4216510113532159,left,0.0005147457122802,-0.621171382019466,0.1836226380079053,-7.972626646390557,-0.2965356081250458,-0.0016514551825821,-0.0009391736239194,5.707354148486257,-0.0008550286293029
2025-04-30 01:09:15.703711000,12.8677109375,0.023027571225798,-0.0131689710542559,0.0746711665558877,0.0085633797571063,-0.2026823543981743,0.9302745664878876,-0.4216510113532159,left,0.002230942249298,-0.621171382019466,0.1836226380079053,-7.972626646390557,-0.2965356081250458,8.6301122792e-05,-8.96640121936e-05,5.707354148486257,-0.0012142658233642
2025-04-30 01:09:15.743711200,12.907711181640623,0.0228190374164879,-0.0118125509470701,0.0747552963961187,-0.0028753299266099,-0.2031664478859312,0.9301450550371824,-0.4227673701099224,left,0.0005620121955871,-0.6213300798698995,0.1819393976286984,-7.971759215906262,-0.2965890269290861,-0.0019156091148033,-0.0006664916872978,5.708619638377428,-0.0001516938209533
2025-04-30 01:09:15.783711200,12.947711181640624,0.0226293342153854,0.0038731973618268,0.0747042204611476,-0.014972049742937,-0.2032564089674507,0.9301271883517376,-0.4230210871118142,left,0.0050757527351379,-0.6213254919022142,0.1804277326904237,-7.971820006182789,-0.2965966498156709,0.0051003494299948,-0.0039891209453344,5.708582813498378,-0.0023472905158996
2025-04-30 01:09:15.823711200,12.987711181640623,0.0226293342153854,0.0124979186803102,0.0747042204611476,-0.0066263582557439,-0.2032564089674507,0.9301271883517376,-0.4230210871118142,left,-0.0046566724777221,-0.6213254919022142,0.1804277326904237,-7.971820006182789,-0.2965966498156709,0.004734675399959,-0.0026479791849851,5.708582813498378,-0.0014918446540832
2025-04-30 01:09:15.863711200,13.027711181640624,0.0229202662221625,0.0094419326633214,0.0746950542613611,0.0040179975330829,-0.2028502141966889,0.930216188826016,-0.4220543122511468,left,-0.006121814250946,-0.6213143068630521,0.1827484489892609,-7.971831112098694,-0.2965980035316277,-0.0105828493833541,-0.0031517688184976,5.708493966171145,-0.0011841654777526
2025-04-30 01:09:15.903711000,13.0677109375,0.0229202662221625,-0.0050511695444583,0.0746950542613611,0.0098178256303071,-0.2028502141966889,0.930216188826016,-0.4220543122511468,left,-0.0002169609069824,-0.6213143068630521,0.1827484489892609,-7.971831112098694,-0.2965980035316277,-0.0077081369236111,-0.0022777523845434,5.708493966171145,-0.0040758252143859
2025-04-30 01:09:15.943711000,13.1077109375,0.0229202662221625,-0.0095403874292969,0.0746950542613611,0.0107485353946685,-0.2028502141966889,0.930216188826016,-0.4220543122511468,left,0.0011536478996276,-0.6213143068630521,0.1827484489892609,-7.971831112098694,-0.2965980035316277,-0.0013044052757322,-0.0008128769695758,5.708493966171145,-0.0017357468605041
2025-04-30 01:09:15.983711000,13.1477109375,0.0234860532158307,-0.0023258300498127,0.0750852337473846,0.007746307644993,-0.2031639510474953,0.930065780743,-0.4225772787041915,left,0.001192569732666,-0.621818634541442,0.1871911258781328,-7.968846543329954,-0.2967559565413682,-0.0076941796578466,-0.0007255189120769,5.7125143077284095,0.0006354451179504
2025-04-30 01:09:16.023711200,13.187711181640625,0.0239291610872599,0.0017732582055032,0.0753376497542667,0.0087360804900527,-0.2032343802082616,0.9299822251300212,-0.4226114373290097,left,-0.001156747341156,-0.6222400234056252,0.1906645558760501,-7.966355895557999,-0.2969058934908917,-0.0093345893546938,-0.0004876162856817,5.715872970506549,0.0007897615432739
2025-04-30 01:09:16.063711200,13.227711181640624,0.024330049822229,-0.0001479188213124,0.0755832936694869,0.0096673257648944,-0.2032704323038247,0.92987399018859,-0.4225966517790429,left,-0.000826358795166,-0.6228668787517739,0.1937709609261713,-7.962695619484782,-0.2971576626012002,-0.0177422612905502,0.0003752969205379,5.720867125532031,0.0015789866447448
2025-04-30 01:09:16.103711200,13.267711181640625,0.0245816849461834,-0.0061178663745522,0.0757721008777278,0.0089811775833368,-0.2033629535625147,0.9297725960407066,-0.4227442134504993,left,-0.000553548336029,-0.6233760676556407,0.1957030249672941,-7.95973326254785,-0.2973636127121765,-0.0053369868546724,0.0037481319159269,5.724921953880787,-0.0017282366752624
2025-04-30 01:09:16.143711000,13.3077109375,0.0245816849461834,-0.0045060510747134,0.0757721008777278,0.0013219225220382,-0.2033629535625147,0.9297725960407066,-0.4227442134504993,left,0.0014903545379638,-0.6233760676556407,0.1957030249672941,-7.95973326254785,-0.2973636127121765,-0.00026316056028,0.0022695027291774,5.724921953880787,-0.0012938380241394
2025-04-30 01:09:16.183711000,13.3477109375,0.0245816849461834,-0.0001363228075206,0.0757721008777278,-0.0165471341460943,-0.2033629535625147,0.9297725960407066,-0.4227442134504993,left,0.000745415687561,-0.6233760676556407,0.1957030249672941,-7.95973326254785,-0.2973636127121765,0.0026598225813359,-0.0006596818566322,5.724921953880787,-0.001625120639801
2025-04-30 01:09:16.223711000,13.3877109375,0.0245816849461834,-0.0009723088005557,0.0757721008777278,-0.0112702380865812,-0.2033629535625147,0.9297725960407066,-0.4227442134504993,left,0.0012921690940856,-0.6233760676556407,0.1957030249672941,-7.95973326254785,-0.2973636127121765,-0.0047034611925482,-0.0011106207966804,5.724921953880787,-0.0004085898399353
2025-04-30 01:09:16.263711200,13.427711181640625,0.0245816849461834,-0.0018082947935909,0.0757721008777278,-0.0059933429583907,-0.2033629535625147,0.9297725960407066,-0.4227442134504993,left,0.0018389225006103,-0.6233760676556407,0.1957030249672941,-7.95973326254785,-0.2973636127121765,-0.012066745199263,-0.0015615578740835,5.724921953880787,0.0008078813552856
2025-04-30 01:09:16.303711200,13.467711181640626,0.0238313258355955,0.0071163428947329,0.0754858115372657,-0.0091167856007814,-0.2032635691020709,0.929711867206868,-0.4228019472019137,left,0.0009379982948303,-0.6239262334243512,0.1896552327030338,-7.956728235512972,-0.2976939088873785,-0.0060829599387943,-0.0013393517583608,5.7293017764002085,3.7133693695e-05
2025-04-30 01:09:16.343711200,13.507711181640625,0.0234320257528553,0.0075350296683609,0.0752607018329882,-0.0155591741204261,-0.2030437096621923,0.929744493514866,-0.4224632956513531,left,-0.0004941821098327,-0.6240377962675786,0.1864631221308373,-7.956164171889424,-0.2977991642580378,-0.0027668697293847,-0.0029776412993669,5.730189665150642,-0.0016276240348815
2025-04-30 01:09:16.383711000,13.5477109375,0.0226793577294216,0.0007892516441643,0.0749115518001554,-0.0189440138638019,-0.2028759669006412,0.9297575402437422,-0.4223536635534156,left,-0.0006895065307617,-0.6242120311550842,0.1804520816803909,-7.955304340189695,-0.2979607837005961,-0.0095657287165522,-0.0043673003092408,5.731576151072979,-0.0003665089607238
2025-04-30 01:09:16.423711000,13.5877109375,0.021876241293149,0.0006607309915125,0.0745745303384373,-0.0175767205655574,-0.2027514813139121,0.929732856256905,-0.4223639814226314,left,-0.002148687839508,-0.6245668101502577,0.1740184867026284,-7.953412827354669,-0.2982070173928373,-0.0041156634688377,-0.0047405883669853,5.734398807278275,-0.0004855990409851
2025-04-30 01:09:16.463711000,13.6277109375,0.021876241293149,0.0044825533404946,0.0745745303384373,-0.0110445097088813,-0.2027514813139121,0.929732856256905,-0.4223639814226314,left,-0.0016893744468688,-0.6245668101502577,0.1740184867026284,-7.953412827354669,-0.2982070173928373,0.006101680919528,-0.0084307854995131,5.734398807278275,-0.0010143518447875
2025-04-30 01:09:16.503711200,13.667711181640623,0.021876241293149,0.0048501808196306,0.0745745303384373,-0.0055224038660526,-0.2027514813139121,0.929732856256905,-0.4223639814226314,left,-0.0048199892044067,-0.6245668101502577,0.1740184867026284,-7.953412827354669,-0.2982070173928373,0.0049573713913559,-0.0087076062336564,5.734398807278275,-0.0021783709526062
2025-04-30 01:09:16.543711200,13.707711181640626,0.021876241293149,-0.006691557355225,0.0745745303384373,0.0173495020717382,-0.2027514813139121,0.929732856256905,-0.4223639814226314,left,-0.0066419243812561,-0.6245668101502577,0.1740184867026284,-7.953412827354669,-0.2982070173928373,0.0036936397664248,-0.0056018261238932,5.734398807278275,-0.0070821046829223
2025-04-30 01:09:16.583711200,13.747711181640623,0.0223734378388958,-0.0132696814835071,0.0748394694816595,0.0390941053628921,-0.2030642495232276,0.929725009846393,-0.4228540985522244,left,0.0021348595619201,-0.6241669037299752,0.1780241604137234,-7.955617643922567,-0.2979520892456948,0.00151870213449,-0.0040416568517684,5.731216670110822,-0.0089455246925354
2025-04-30 01:09:16.623711200,13.787711181640624,0.0229062355884481,-0.0190235339105129,0.0752474598637465,0.0271340943872928,-0.2036180246688791,0.9295890694345376,-0.4238792230980027,left,-0.0007026195526123,-0.6242445403920125,0.1822526830952614,-7.955076376652717,-0.2978955949936814,-0.0105339018628001,-0.0015315189957618,5.73183450974822,-0.0042791962623596
2025-04-30 01:09:16.663711000,13.8277109375,0.0234527403867683,-0.0046604387462139,0.0755902820258915,0.0164311882108449,-0.2036782824689971,0.9294324700251952,-0.4238853773056174,left,-0.0001454353332519,-0.6251383368370607,0.1864799271351657,-7.949850750958919,-0.2982558032272705,-0.0140734938904643,-0.0013969391584396,5.738944634014368,-0.0038609504699707
2025-04-30 01:09:16.703711000,13.8677109375,0.0239995947148427,0.0097026573494076,0.0759330798657169,0.0057282811030745,-0.2037384916244773,0.9292757091989774,-0.4238909975980353,left,0.0004107356071472,-0.6260322083134998,0.1907041389677673,-7.944615772914886,-0.298615930752422,-0.017613086849451,-0.0012620519846677,5.7460500821053975,-0.0034422874450683
2025-04-30 01:09:16.743711200,13.907711181640623,0.0245924906106168,0.0140700759366154,0.0761809240675825,0.0071715791709721,-0.2035360659387019,0.9292195333942178,-0.4233002091590601,left,0.0003413558006286,-0.6266496244179438,0.1953271408596076,-7.94095315875411,-0.2988653970711118,-0.0128493495285511,0.0002343095839023,5.750955974325537,-0.003299593925476
2025-04-30 01:09:16.783711200,13.947711181640624,0.0249682749290645,0.010349185205996,0.0764161559788021,0.0068928156979382,-0.2035993304731773,0.9291173158764174,-0.423346881783934,left,0.0001566410064697,-0.6271971724920224,0.1982325799775309,-7.937730689576267,-0.2990801695230484,-0.0169973615556955,0.0001437310129404,5.755304232662916,-0.0006762742996215
2025-04-30 01:09:16.823711200,13.987711181640623,0.0253441245557082,0.0066282940097153,0.076651368680597,0.006614051759243,-0.2036625988783932,0.929014965134801,-0.4233933861473424,left,-2.83122062683e-05,-0.6277447330469053,0.2011360828666947,-7.934504128745198,-0.2992949147496109,-0.0211453735828399,5.33461570739e-05,5.759651321956515,0.0019472241401672
2025-04-30 01:09:16.863711200,14.027711181640624,0.0257200825227617,0.0029074023477733,0.0768865701889168,0.0063352882862091,-0.2037258468320303,0.9289124004609308,-0.4234395984089269,left,-0.000213623046875,-0.6282921390936608,0.2040379783206619,-7.931274645304679,-0.2995095863160007,-0.0252933837473392,-3.68654727935e-05,5.763994904118776,0.0045709609985351
