time,seconds_elapsed,roll,rotationRateZ,quaternionY,rotationRateY,quaternionZ,quaternionW,yaw,devicelocation,accelerationZ,pitch,gravityX,gravityZ,quaternionX,rotationRateX,accelerationX,gravityY,accelerationY
2025-04-30 01:03:29.173143000,0.45614306640625,0.813058478405973,-0.0077626802958548,0.3811384817008217,-0.0085947550833225,-4.179949312589595e-17,0.9100414075053544,0.1304486037492904,left,-0.2150885462760925,-0.3011424797668736,6.802908913278579,-6.4366054116249085,-0.1629659176613917,-0.0219119284301996,-0.6740437150001526,2.908765047475696,0.185321420431137
2025-04-30 01:03:29.213143000,0.49614306640625,0.2993098245693698,0.0122537091374397,0.1605247291294113,-0.0170075688511133,-0.1009195859758943,0.956933541987488,-0.1379330375424018,left,-0.0262128114700317,-0.4702678290970943,2.577705000899732,-8.35343564325869,-0.2198297270380133,-0.0438637845218181,-0.2435986995697021,4.443639158032834,0.036757469177246
2025-04-30 01:03:29.253143000,0.53614306640625,0.0745953564107796,0.0358491502702236,0.0691312662980684,0.0053223986178636,-0.1389689162341309,0.9578879969832876,-0.2689732848178339,left,-0.005294382572174,-0.5029585552165826,0.6403438762821256,-8.568302967298031,-0.2415760611959579,-0.0449560061097145,-0.0450897738337516,4.726999880322814,0.0045983791351318
2025-04-30 01:03:29.293143300,0.576143310546875,0.0544043525758412,0.0145390108227729,0.0610257443179557,0.0124042313545942,-0.1422006976148774,0.9574624593440724,-0.280843032133486,left,-0.0056220293045043,-0.5049353587626834,0.4667134025163948,-8.570137781509757,-0.2435578834301578,-0.0051908083260059,-0.0244327820837497,4.743975565043091,-0.0048460364341735
2025-04-30 01:03:29.333143300,0.616143310546875,0.0341670273413741,-0.0067711304873228,0.0529153337652618,0.0194860659539699,-0.1454210412915302,0.9569600119638244,-0.2927682226095624,left,-0.0062080025672912,-0.5067015891937395,0.2929062935421243,-8.569439862373471,-0.2455201444557761,0.0345743894577026,-0.0037578009068965,4.759127541467548,-0.014104425907135
2025-04-30 01:03:29.373143300,0.656143310546875,0.0273874096583701,-0.0321443900465965,0.0501339097942801,0.007573552429676,-0.1470157862567589,0.9570425680883556,-0.2977871491068216,left,0.0003748536109924,-0.5044993091769108,0.2350889136119745,-8.581685011440515,-0.2448314480275223,0.0569087713956832,-0.0028381124138832,4.740232579122483,-0.0118384063243865
2025-04-30 01:03:29.413143000,0.69614306640625,0.0243119421375929,-0.0468362793326377,0.0488063007591402,-0.0063542462885379,-0.1483638160953347,0.9573549584122848,-0.3012843946773522,left,-0.0007224678993225,-0.5005049645242208,0.209153768698126,-8.601226747256517,-0.2430584619489569,0.0349257737398147,-0.0025876984000205,4.705903900802135,-0.001115083694458
2025-04-30 01:03:29.453143000,0.73614306640625,0.0225992543194473,-0.0234108790755271,0.0480925526014522,-0.003006245708093,-0.1494549340889421,0.9575658594639872,-0.3039165037564967,left,0.0004560947418212,-0.4975324340678295,0.1947374861370772,-8.615519476503133,-0.2416978661332589,0.0086587071418762,-0.0036167353391647,4.680308271774649,0.0008185803890228
2025-04-30 01:03:29.493143000,0.77614306640625,0.0217042006699876,-0.0053106565028429,0.0477408152580362,-0.0100896675139665,-0.149718282348918,0.9575572386574804,-0.3046861604556268,left,-0.0002927780151367,-0.4973076459224187,0.1870488861295394,-8.616741711774468,-0.2416386595228898,0.0035656979307532,-0.0039319135248661,4.678370873971283,0.0020448267459869
2025-04-30 01:03:29.533143300,0.816143310546875,0.0209070355844126,0.0224909801036119,0.0473403978304525,-0.0168494395911693,-0.149489204070903,0.95757269626697,-0.3044144859295206,left,-0.0022570490837097,-0.4975028518255653,0.1801607705836184,-8.615975403577089,-0.2417982662949075,-0.0078335702419281,-0.0046798251569271,4.680053127969801,0.002293437719345
2025-04-30 01:03:29.573143300,0.856143310546875,0.020241707883391,0.0309659522026777,0.0469010437283565,-0.0037064738571643,-0.1488382537690363,0.9576387575313524,-0.3032318571471788,left,-0.0054773688316345,-0.4978115583148331,0.1743990287191234,-8.6146485388875,-0.242023681311825,-0.0062299109995365,-0.0016509126871824,4.682713287089765,-0.0047457516193389
2025-04-30 01:03:29.613143300,0.896143310546875,0.0199728856914889,0.0104287657886743,0.0467643237539925,0.0042477268725633,-0.1487300373511643,0.9576384620295338,-0.3030780660363516,left,-0.0042930841445922,-0.4979591341964848,0.1720694167277775,-8.614003811243176,-0.2421179872787677,-0.0114942323416471,-0.000479694455862,4.683984914460778,-0.0042117536067962
2025-04-30 01:03:29.653143000,0.93614306640625,0.0199728856914889,-0.0101084224879741,0.0467643237539925,0.0122019266709685,-0.1487300373511643,0.9576384620295338,-0.3030780660363516,left,-0.0030430555343627,-0.4979591341964848,0.1720694167277775,-8.614003811243176,-0.2421179872787677,-0.0167585536837577,0.0004539657384157,4.683984914460778,-0.0035480856895446
2025-04-30 01:03:29.693143000,0.97614306640625,0.0193809033008613,-0.0397821813821792,0.0466617157439633,0.0191647876054048,-0.1492655092484754,0.957512875608404,-0.304356677095834,left,-0.0008345246315002,-0.4983194373174295,0.1669373328026384,-8.612416249790787,-0.2423048671564345,-0.0192553550004959,-0.0005928222090005,4.687089017955959,-0.0006008446216583
2025-04-30 01:03:29.733143000,1.01614306640625,0.0192820299368618,-0.0382467955350875,0.0467983177772103,0.0266337320208549,-0.149944492524585,0.957392248336609,-0.305803485457105,left,-0.0011432170867919,-0.4984385036004182,0.1660750168848782,-8.611874397999047,-0.2423355283332185,-0.0102496864274144,0.0001328624784946,4.688114561611414,0.0004785358905792
2025-04-30 01:03:29.773143000,1.05614306640625,0.0197671504485547,-0.0160578694194555,0.0471832728486255,0.0324038602411747,-0.1506920716825233,0.9573079142281844,-0.3072341679193669,left,-0.0024407505989074,-0.498156304293268,0.1702789531144313,-8.613115337970852,-0.2421302656781937,0.0026930039748549,0.0008761491626501,4.685683535072207,0.0058897733688354
2025-04-30 01:03:29.813143300,1.096143310546875,0.0208416137944726,0.0016333665698766,0.0477527738230693,0.0128921959549188,-0.1510703655516363,0.9572555818692384,-0.307749928599705,left,0.0066848993301391,-0.4980575400598525,0.1795429674788378,-8.613390063259006,-0.2419896613889002,-0.0011720899492502,0.0005852449685335,4.684832763461769,0.0032089948654174
2025-04-30 01:03:29.853143300,1.136143310546875,0.0212132601921206,0.0079568047076463,0.0479120929184959,-0.0047270711511373,-0.1510135621358623,0.9572511139850364,-0.3075400290535641,left,0.0034180879592895,-0.4981513618402638,0.1827347675237804,-8.612883282780647,-0.242011541849169,0.009915417060256,-0.0009633693844079,4.685641157235205,-0.0014857053756713
2025-04-30 01:03:29.893143300,1.176143310546875,0.0213620169270069,0.0141828190535306,0.0479104240930161,-0.0017676944844424,-0.1506890932932117,0.9572789954641272,-0.3068296492021084,left,0.00017511844635,-0.4983311879114893,0.1839979923926293,-8.612013514208794,-0.2421035021015533,-0.0008881399407982,-0.0006768535822629,4.687190140242874,-0.000814139842987
2025-04-30 01:03:29.933143000,1.21614306640625,0.0215109409045585,0.020408833399415,0.0479087472883828,0.001191682415083,-0.1503645925339447,0.9573069272824964,-0.3061191987104417,left,-0.0030679106712341,-0.4985110947062442,0.1852623863052576,-8.61114316111505,-0.2421954749387576,-0.0116916978731751,-0.0003904439508914,4.6887397077724335,-0.0001426339149475
2025-04-30 01:03:29.973143000,1.25614306640625,0.0218197827482139,0.01580461114645,0.0480136710065332,0.0060726944357156,-0.150135204325633,0.9573009451941272,-0.3055710298903545,left,-8.80360603332e-05,-0.4988353436494162,0.1878886796882376,-8.609564952012896,-0.2423407442009333,-0.0139842228963971,-0.0007280763238668,4.691532261100411,-0.0011460185050964
2025-04-30 01:03:30.013143000,1.29614306640625,0.0220207918663452,0.0045984704047441,0.0481397333562654,0.0148528283461928,-0.1500777160950066,0.9572255383169886,-0.3054188803681733,left,-0.0027692317962646,-0.4995026831190436,0.189550292757526,-8.606395089805126,-0.2426490004950627,-0.0226146653294563,0.0019443612545728,4.69727811127603,0.0047670006752014
2025-04-30 01:03:30.053143300,1.336143310546875,0.0233359527815159,0.0105174789205193,0.0487665504211164,0.0287883374840021,-0.1500345549424227,0.9571446767066132,-0.3050131671316148,left,-0.0002241730690002,-0.5001480671529209,0.2007981378829106,-8.60310598513186,-0.2428693124650665,-0.0060895048081874,0.0018852800130844,4.702832822793722,-0.0017696022987365
2025-04-30 01:03:30.093143300,1.376143310546875,0.0239010278161583,-0.0009983982890844,0.0490122518190222,0.0143416281789541,-0.1500678056174299,0.9571625827413068,-0.3049335822215366,left,0.0011200308799743,-0.4999392322466268,0.2056829873150214,-8.603972831094264,-0.2427288191259371,0.0096696764230728,0.0025707613676786,4.701035710243881,-0.002191811800003
2025-04-30 01:03:30.133143300,1.416143310546875,0.0244245992080401,-0.0036150878295302,0.0492565219015734,0.0159914027899503,-0.150184516360851,0.9571741922317706,-0.3050375865015151,left,0.000663936138153,-0.4996767963035026,0.2102178725319914,-8.605096866688132,-0.2425612524712544,0.0021059666760265,0.0023984927684068,4.698776825401187,-0.0005572438240051
2025-04-30 01:03:30.173143000,1.45614306640625,0.0249592053408292,-0.0116295460611581,0.0495501418084348,0.0148157970979809,-0.150452875057564,0.9571518806722564,-0.3054579480603258,left,0.0003488063812255,-0.4994937661007232,0.2148396323148161,-8.605842716619373,-0.2424230166240516,-0.0010040204506367,0.001478174701333,4.697201246647537,-0.000400960445404
2025-04-30 01:03:30.213143000,1.49614306640625,0.0251876105409526,-0.0087995529174804,0.0497400630228513,0.0111627439036965,-0.1507123219647898,0.9570733868021256,-0.3059499772065558,left,0.0002776384353637,-0.4997838897066609,0.2167709109046496,-8.60443051173389,-0.2425325990678814,-0.0028580008074641,0.0012697875499725,4.699698616421222,-0.0003654658794403
2025-04-30 01:03:30.253143000,1.53614306640625,0.0254158505679266,-0.0059695593081414,0.0499299762581131,0.0075096902437508,-0.1509718192112936,0.9569949248486108,-0.3064422248923829,left,0.0002062320709228,-0.5000742927543395,0.2187000888689421,-8.603016553282737,-0.2426421940965313,-0.0047119809314608,0.001061612740159,4.702198032021522,-0.000330239534378
2025-04-30 01:03:30.293143300,1.576143310546875,0.0254158505679266,0.0029549966566264,0.0499299762581131,0.0015902332961559,-0.1509718192112936,0.9569949248486108,-0.3064422248923829,left,0.0001918077468872,-0.5000742927543395,0.2187000888689421,-8.603016553282737,-0.2426421940965313,-0.0024584920611232,0.0005209818482398,4.702198032021522,0.0001277029514312
2025-04-30 01:03:30.333143300,1.616143310546875,0.0254158505679266,0.0138955377042293,0.0499299762581131,0.0002780413487926,-0.1509718192112936,0.9569949248486108,-0.3064422248923829,left,-0.0007722973823547,-0.5000742927543395,0.2187000888689421,-8.603016553282737,-0.2426421940965313,-0.0113373454660177,0.0011760350316762,4.702198032021522,-0.0010371804237365
2025-04-30 01:03:30.373143300,1.656143310546875,0.0264031361147487,0.0111503954976797,0.0503535148648879,0.0028853695839643,-0.1507683819477078,0.9569661565287194,-0.3057782659936913,left,0.0002406239509582,-0.5005130604769196,0.2271391236512921,-8.600732826259732,-0.242794527956372,-0.0042740302160382,-2.13719904422e-05,4.705973458907008,-0.00344979763031
2025-04-30 01:03:30.413143000,1.69614306640625,0.0268274219906804,-9.15843993425e-05,0.0505096292768385,-0.0053239623084664,-0.1505954013845103,0.9569740602185136,-0.3053125836917542,left,0.0019027590751647,-0.5006467878435509,0.2307713974727317,-8.600006850072742,-0.2428383545326535,0.0027483571320772,-0.002343850210309,4.707124090246856,-0.0072024464607238
2025-04-30 01:03:30.453143000,1.73614306640625,0.0268274219906804,-0.0085762050002813,0.0505096292768385,0.0117531446740031,-0.1505954013845103,0.9569740602185136,-0.3053125836917542,left,-0.0117847919464111,-0.5006467878435509,0.2307713974727317,-8.600006850072742,-0.2428383545326535,0.0164963826537132,0.0039782728999853,4.707124090246856,-0.0044281184673309
2025-04-30 01:03:30.493143000,1.77614306640625,0.0269863465541381,-0.0158105380833148,0.0506733362596677,0.0070389634929597,-0.151066733901802,0.9569437356702912,-0.3062480305805953,left,-0.0054705142974853,-0.5002881270883223,0.2321836936897598,-8.601656955367327,-0.2426309122940016,0.0037348382174968,0.0021986421197652,4.704038106930256,-0.0022450983524322
2025-04-30 01:03:30.533143300,1.816143310546875,0.0271456514742607,-0.0230448730289936,0.0508370453838077,0.0023247823119163,-0.1515380246450623,0.9569130317592138,-0.3071833196960724,left,0.0008435845375061,-0.4999295138931773,0.2335997345001436,-8.603305307096242,-0.2424233831937851,-0.0090267052873969,0.0004186388105154,4.700952123613655,-6.20782375335e-05
2025-04-30 01:03:30.573143300,1.856143310546875,0.0270548339398303,-0.0094446809962391,0.0508955945249774,-0.0022406717762351,-0.1517665762473712,0.9568090210054446,-0.3076982430893731,left,0.0027393698692321,-0.5004748945680876,0.232749017688632,-8.600762052354217,-0.2426783889311488,-0.0157571174204349,-0.0009960755705833,4.705645249865949,0.0024410486221313
2025-04-30 01:03:30.613143300,1.896143310546875,0.026963695712641,0.0041555128991603,0.0509541470396356,-0.0068061258643865,-0.1519951094270183,0.9567049279957812,-0.3082133889395527,left,0.0046349167823791,-0.5010202591813085,0.2318959262569434,-8.598217044046521,-0.2429333615197184,-0.0224875304847955,-0.0024105329066514,4.710336622552574,0.0049444437026977
2025-04-30 01:03:30.653143000,1.93614306640625,0.0266981087169858,0.0168759040534496,0.050862158124393,-0.0137316649779677,-0.1517616038976766,0.9566009174962342,-0.3078227158457044,left,-7.60555267333e-05,-0.5021567055486237,0.2294693018982186,-8.59292127572596,-0.2435076401312343,-0.0263854824006557,-8.7916851043e-06,4.720108659504354,0.0020356178283691
2025-04-30 01:03:30.693143000,1.97614306640625,0.0265434640270978,0.0074774445965886,0.0507785541473159,-0.0125158680602908,-0.1515040621482844,0.9565577475642318,-0.3073415464059498,left,0.000247299671173,-0.5028320127408288,0.2280558001047931,-8.589768364652992,-0.2438549185627277,-0.0129233011975884,0.0003345441073179,4.725912669607997,-0.0037153363227844
2025-04-30 01:03:30.733143000,2.01614306640625,0.0263016796144152,-0.0043336283415555,0.0507052384216652,0.0053706830367445,-0.1514423176156729,0.956484935218536,-0.3072919013792501,left,-0.0045344233512878,-0.503499480086841,0.225895918657165,-8.586668645071983,-0.244194040379401,-0.0209294781088829,0.0034854169934988,4.731646829345822,-0.0018521547317504
2025-04-30 01:03:30.773143300,2.056143310546875,0.0267392722347903,-0.0051755104213953,0.051078193153153,0.0206155180931091,-0.1517321523725142,0.9562642316992817,-0.3078224693832274,left,-0.0024851560592651,-0.5048622044987838,0.2294807548739947,-8.580114985644817,-0.2447997199586741,-0.0410524345934391,0.0003317147493362,4.743347788533568,-0.0020293593406677
2025-04-30 01:03:30.813143300,2.096143310546875,0.0270297925381483,-0.0044492641463875,0.0513177115713077,0.0108686434105038,-0.1518517579638632,0.956111542176909,-0.3080259980732465,left,-0.0008329153060913,-0.505905177032598,0.231839611226134,-8.575098034265636,-0.245271623510269,-0.0417350940406322,-0.0019464381039142,4.752297403186559,0.0013254582881927
2025-04-30 01:03:30.853143300,2.136143310546875,0.0273364181639494,0.0120048625394701,0.0515268324237979,0.0051163425669074,-0.1517566437901897,0.9559630177065498,-0.307782153141505,left,0.0003585815429687,-0.5071801865415272,0.2343031335291452,-8.568962307989597,-0.2458647696558938,-0.0322897396981716,-0.0036344025284051,4.763230592872202,0.0036986768245697
2025-04-30 01:03:30.893143300,2.176143310546875,0.0280418036386704,0.0280591398477554,0.0518191520167689,0.0104659609496593,-0.151308467216034,0.9558732248486312,-0.3066952102585254,left,-0.0018279552459716,-0.5084098225658507,0.2401830949458293,-8.56293354921937,-0.2464277931701283,-0.0209285020828247,-0.0004498660564422,4.773767768977582,0.0019080638885498
2025-04-30 01:03:30.933143000,2.21614306640625,0.0287057555114749,0.0195615570992231,0.0520448594862708,0.0105261141434311,-0.1509456345849415,0.9558873688352436,-0.305772812960238,left,-0.0001269578933715,-0.5087161712639121,0.2458264345950447,-8.56131033193171,-0.2465481379317761,-0.004627700895071,0.0004429649561643,4.776391687740385,-0.0023157596588134
2025-04-30 01:03:30.973143000,2.25614306640625,0.0292995052008348,0.0012587681412696,0.0522625366163384,0.0101273981854319,-0.1507397114229158,0.9559059331179812,-0.3051908275855492,left,0.0012077689170837,-0.5087947175196538,0.2508986780917271,-8.56078776936233,-0.2465561166519337,-0.003875934286043,0.0023414306342601,4.777064472435415,-0.0015815198421478
2025-04-30 01:03:31.013143000,2.29614306640625,0.0292995052008348,-0.0223743543028831,0.0522625366163384,0.0047193653881549,-0.1507397114229158,0.9559059331179812,-0.3051908275855492,left,0.0017663836479187,-0.5087947175196538,0.2508986780917271,-8.56078776936233,-0.2465561166519337,0.0003017985727638,0.0022783037275075,4.777064472435415,-0.0039224624633789
2025-04-30 01:03:31.053143300,2.336143310546875,0.0288453495008619,-0.0268027670681476,0.0522603948292045,-0.0033765537664294,-0.15151473700108,0.9557854341599108,-0.3069298036487842,left,0.000474989414215,-0.5088020909721024,0.2470097078291699,-8.560865510773658,-0.246548530425383,-0.00091759103816,0.0011848956346511,4.777127600799501,-0.0010225474834442
2025-04-30 01:03:31.093143300,2.376143310546875,0.0280208080011794,-0.0214030742645263,0.0520065905785939,-0.0092709362506866,-0.1519666062469779,0.9557233610873664,-0.3080871956781648,left,-0.0009799599647521,-0.5087681133548663,0.2399553688708692,-8.561228498867154,-0.2465646668688078,0.0014563360018655,0.0002906173467636,4.776836801159382,0.0001402795314788
2025-04-30 01:03:31.133143300,2.416143310546875,0.0271963639251144,-0.0160033833235502,0.0517527771166525,-0.0151653187349438,-0.1524183883082736,0.9556610915864172,-0.3092444526535846,left,-0.002435028553009,-0.5087333920582214,0.2329015596355311,-8.56158914887309,-0.2465807621842828,0.0038302624598145,-0.0006036777049303,4.776539279517531,0.0013036727905273
2025-04-30 01:03:31.173143000,2.45614306640625,0.0271963639251144,-0.0020594606176018,0.0517527771166525,0.0127700166776776,-0.1524183883082736,0.9556610915864172,-0.3092444526535846,left,-0.0038981437683105,-0.5087333920582214,0.2329015596355311,-8.56158914887309,-0.2465807621842828,-0.0083465781062841,0.0002385471016168,4.776539279517531,0.0042542517185211
2025-04-30 01:03:31.213143000,2.49614306640625,0.0280846475745064,0.021725557744503,0.052153423669102,0.0008728774264454,-0.1521264637296465,0.9555679623265008,-0.3084321800831882,left,0.0020350813865661,-0.5097852251812185,0.2403653744438663,-8.556352417263389,-0.247037353106569,-0.016068510711193,-0.0020194835960865,4.785545300532877,0.0030812919139862
2025-04-30 01:03:31.253143000,2.53614306640625,0.0285584430836439,0.0217806976288557,0.0522924375569295,-0.004505842924118,-0.1516609926680923,0.9555575407248508,-0.3073521395478192,left,-0.0003543496131896,-0.5104221919061684,0.2443322139819152,-8.553188984796405,-0.2473342540392824,-0.0089655593037605,-0.0001439824700355,4.790996551676094,0.0017873346805572
2025-04-30 01:03:31.293143300,2.576143310546875,0.0289114190655096,0.0187627132982015,0.0523878185587802,-0.0027628464158624,-0.1513398128623949,0.955570216584529,-0.3065958373927406,left,0.0018209815025329,-0.5107033409336715,0.2473123257712461,-8.551755152601004,-0.2474617927073046,-0.0069917789660394,-0.0013611912727355,4.793402151513099,0.001275211572647
2025-04-30 01:03:31.333143300,2.616143310546875,0.0289114190655096,0.0040977820754051,0.0523878185587802,-0.0008638378931209,-0.1513398128623949,0.955570216584529,-0.3065958373927406,left,-0.0021145343780517,-0.5107033409336715,0.2473123257712461,-8.551755152601004,-0.2474617927073046,-0.0059462869539856,-0.0006227027624845,4.793402151513099,-0.0014482736587524
2025-04-30 01:03:31.373143300,2.656143310546875,0.0289114190655096,-0.018020037561655,0.0523878185587802,0.018890181556344,-0.1513398128623949,0.955570216584529,-0.3065958373927406,left,-0.0008825659751892,-0.5107033409336715,0.2473123257712461,-8.551755152601004,-0.2474617927073046,-0.0025132701266556,0.0003024078905582,4.793402151513099,0.0003856420516967
2025-04-30 01:03:31.413143000,2.69614306640625,0.0289134920337441,-0.0300681944936513,0.0525166010005794,0.0110809728503227,-0.1518184459953651,0.955487637094195,-0.3075984541670148,left,-1.61528587341e-05,-0.5107550812436858,0.2473228836978785,-8.551506730797886,-0.2474600951375946,0.0127648375928401,-4.42955642938e-05,4.793844926844537,-0.0001722872257232
2025-04-30 01:03:31.453143000,2.73614306640625,0.0286415445251781,-0.0154271870851516,0.0524883753209354,0.0053554247133433,-0.152398886783047,0.955493602350603,-0.3088640269088943,left,0.0006608963012695,-0.509999222424065,0.2451010063973255,-8.55519331035614,-0.2470860229519635,0.0229677706956863,-0.0004745945334434,4.78737689987421,0.0028419494628906
2025-04-30 01:03:31.493143000,2.77614306640625,0.0283909683211166,0.0071083530783653,0.0523433878381473,-0.0099996179342269,-0.1525989657918053,0.9556059199389044,-0.3093180804642725,left,-8.61287117004e-05,-0.5088808277676679,0.243109101927746,-8.56060130687952,-0.2465582759603795,0.0221891105175018,-0.0015155170112848,4.777802139060199,0.0011267364025115
2025-04-30 01:03:31.533143300,2.816143310546875,0.0282543459339927,0.0155632095411419,0.0521714177266598,-0.0075455703772604,-0.1524039543617211,0.9557397357928942,-0.3089241346315052,left,-0.0031837224960327,-0.5080812498962041,0.2420473727140575,-8.564450383523106,-0.2461964760396311,0.0217871200293302,-0.0009150467813014,4.770952711556852,-0.001945823431015
2025-04-30 01:03:31.573143300,2.856143310546875,0.0285524107785129,0.0096610691398382,0.0521807079678683,0.0049587660469114,-0.1521050583722361,0.9558638637062264,-0.3082058402703371,left,-0.0024492144584655,-0.5074644155992445,0.2446840961595065,-8.567318047913908,-0.245897392500224,0.0027891565114259,0.0013064593076705,4.765666880108416,-0.0051320195198059
2025-04-30 01:03:31.613143300,2.896143310546875,0.0285524107785129,-0.0203786958009004,0.0521807079678683,0.0033230863045901,-0.1521050583722361,0.9558638637062264,-0.3082058402703371,left,-0.0003987550735473,-0.5074644155992445,0.2446840961595065,-8.567318047913908,-0.245897392500224,-0.0095108207315206,0.0032038129866123,4.765666880108416,-0.0096850097179412
2025-04-30 01:03:31.653143000,2.93614306640625,0.027909998737174,-0.0319902189075946,0.0521470713650426,-0.0025898709427565,-0.152868255824447,0.9556515983624112,-0.3099878417116604,left,0.002671480178833,-0.5082080538412158,0.2390813259826973,-8.563928405475616,-0.2462556908191128,-0.0166405886411666,0.0010816510766744,4.772039337749779,0.0008905529975891
2025-04-30 01:03:31.693143000,2.97614306640625,0.0273130951652708,-0.0011676624417304,0.051892652706495,-0.0106863379478454,-0.1528565393031868,0.9556324542252776,-0.3101224038558632,left,0.0016109943389892,-0.5084028876651339,0.2339440544257871,-8.563139885446429,-0.2463910100299373,-0.0045543545857071,0.0002312511205673,4.7737084400057785,0.0034700036048889
2025-04-30 01:03:31.733143000,3.01614306640625,0.0273130951652708,0.0296548940241336,0.051892652706495,-0.0187828037887811,-0.1528565393031868,0.9556324542252776,-0.3101224038558632,left,0.0006308555603027,-0.5084028876651339,0.2339440544257871,-8.563139885446429,-0.2463910100299373,0.0075318804010748,-0.0011430103331804,4.7737084400057785,0.0062196254730224
2025-04-30 01:03:31.773143300,3.056143310546875,0.0268989172996923,0.0281760487705469,0.0515873518471962,-0.0153562445193529,-0.1523570963309914,0.955700992748239,-0.3091868964492587,left,-0.0013408064842224,-0.5085109144002417,0.2303834941336885,-8.562720198729634,-0.2464984969953238,0.0027645798400044,-0.0007396191358566,4.774633738157153,0.0009544789791107
2025-04-30 01:03:31.813143300,3.096143310546875,0.0266829929281296,-0.0030486937612295,0.051430951284859,-0.0031072767451405,-0.1520392671946021,0.9557162870630554,-0.3085853010388947,left,0.0030144453048706,-0.5087988870353626,0.2284978995827958,-8.561395087605714,-0.2466681735706842,-0.0047892723232507,-0.0038004387170076,4.7771001282706855,-0.0043832063674926
2025-04-30 01:03:31.853143300,3.136143310546875,0.0267338291920112,-0.0169558487832546,0.051642269498347,0.0156650766730308,-0.1526724889107382,0.9555729973679284,-0.3099063998200053,left,0.003834068775177,-0.5091290974912016,0.2288909540209919,-8.559806357109546,-0.2467881993987229,-0.0077512115240097,-0.0018656272441148,4.779928045172989,-0.0007104277610778
2025-04-30 01:03:31.893143300,3.176143310546875,0.0267841849996213,-0.0308630019426345,0.0518535680569949,0.0344374328851699,-0.1533056320075188,0.9554291637981582,-0.3112276759311121,left,0.0046535730361938,-0.5094592816332137,0.2292797158765606,-8.558216457569598,-0.2469080892580936,-0.0107131507247686,6.964802742e-05,4.782755085292458,0.0029624104499816
2025-04-30 01:03:31.933143000,3.21614306640625,0.026872102254453,-0.0255695581436157,0.052069740577315,0.0059353094547986,-0.1539775036202822,0.9553149667003186,-0.3126126457341005,left,0.006211519241333,-0.5095027629849394,0.2300265339221805,-8.55798790951073,-0.2468861604723323,0.0172097999602556,0.0009691473096609,4.783127425736189,0.0006940960884094
2025-04-30 01:03:31.973143000,3.25614306640625,0.026182135164886,0.0017924960702657,0.0517211723628366,-0.0187000781297683,-0.1542341362679389,0.9554547425302784,-0.3132894098202114,left,0.0023354291915893,-0.5081143624631186,0.2242953881253488,-8.564775377693772,-0.2462577966945946,0.0455434694886207,-2.421438694e-05,4.771236496934295,0.0058226585388183
2025-04-30 01:03:32.013143000,3.29614306640625,0.0260237402014796,0.0394252836704254,0.0514202104026237,-0.0149493562057614,-0.1537341152546687,0.9557035169432688,-0.3122469766511411,left,-0.0006808042526245,-0.5067980179877236,0.2231019953560084,-8.571081784361601,-0.2456672741342037,0.0205680299550294,-0.0020992327481508,4.759954347680509,0.0021111965179443
2025-04-30 01:03:32.053143300,3.336143310546875,0.0265268242754654,0.0396750457584857,0.051358195378544,-0.0143448384478688,-0.1526899163804133,0.9558980367558774,-0.3099262067068421,left,-0.0033190250396728,-0.5065605252338109,0.2274439152841456,-8.572098267927766,-0.2455747409030526,0.001840554177761,-0.0038695503026247,4.757917873416841,-0.0066978931427001
2025-04-30 01:03:32.093143300,3.376143310546875,0.0268587725131217,-0.0037010461091995,0.0514520160661202,0.0052090315148234,-0.1523093825962866,0.9558844430419838,-0.3090601403567395,left,-0.0024136900901794,-0.5071304880123977,0.2302165400689467,-8.569310098513961,-0.2458443818522593,-0.0174219366163015,-6.14430755376e-05,4.762804768675565,-0.0086104273796081
2025-04-30 01:03:32.133143300,3.416143310546875,0.0271423448306421,-0.0313809439539909,0.0517388349428191,0.0294328778982162,-0.1527747758172739,0.9557408198174472,-0.3099752837855586,left,-0.0031931400299072,-0.5076618156270553,0.2325778441064991,-8.566713652279972,-0.2460533698801875,-0.0055446699261665,0.0033458936959505,4.767358778718114,-0.0060662627220153
2025-04-30 01:03:32.173143000,3.45614306640625,0.0273407253093777,-0.0330567546188831,0.0520236649256763,0.0150129478424787,-0.1535787935192878,0.9556284693066024,-0.3116031012848729,left,0.0058885812759399,-0.5075229547782317,0.2342954068804159,-8.567329153829812,-0.2459294985047865,0.004171828739345,0.0003787036985158,4.766168692150711,0.0048211216926574
2025-04-30 01:03:32.213143000,3.49614306640625,0.0272086589108471,-0.006263306364417,0.0520476761704014,0.001629089936614,-0.1540323202919952,0.955611980215282,-0.3125743074856739,left,0.0034961104393005,-0.5070841066777231,0.2332208181851543,-8.569449799245595,-0.2457044837920772,0.0132632795721292,9.71835106611e-05,4.762407001529634,0.0075432956218719
2025-04-30 01:03:32.253143000,3.53614306640625,0.0270591275563778,-0.0027208675164729,0.0519613598318809,-0.0023020696826279,-0.154181177839192,0.955684199714045,-0.3129038063274406,left,0.0019831657409667,-0.5063335578204375,0.2320360653799958,-8.573055130261181,-0.2453483997983561,0.0282116457819938,-0.0016393158584833,4.755971707785129,0.0022384524345397
2025-04-30 01:03:32.293143300,3.576143310546875,0.0269332056938732,-0.0155381513759493,0.0518967752000497,0.0105427596718072,-0.154515635088262,0.9557853817637074,-0.3136026513950828,left,-8.88705253601e-05,-0.5051140756688802,0.2311125390606001,-8.57887579923868,-0.2447565927760112,0.0282596498727798,-0.0017009731382131,4.745509642742574,0.0024874210357666
2025-04-30 01:03:32.333143300,3.616143310546875,0.0268083572952661,-0.028355436399579,0.0518321801247097,0.0233875904232263,-0.1548500505633003,0.9558861844505148,-0.3143009468178704,left,-0.0021622776985168,-0.5038946158754429,0.2301964288626797,-8.584683024212717,-0.2441646909129475,0.0283076521009206,-0.0017633810639381,4.735040563437343,0.0027370750904083
2025-04-30 01:03:32.373143300,3.656143310546875,0.0268544368496515,-0.0518116727471351,0.0519840803738045,0.0286807939410209,-0.1557541467380261,0.9559001693647232,-0.3161457248483236,left,6.8545341491e-06,-0.5026164731226641,0.2307543184737674,-8.590715290114282,-0.2435016798136636,0.0367159992456436,-0.001347966492176,4.72406031973958,0.0026280283927917
2025-04-30 01:03:32.413143000,3.69614306640625,0.0273654336881121,-0.0437928959727287,0.0524052628728112,0.0462168753147125,-0.1569493896484788,0.9558803898597322,-0.3184774576872727,left,0.0009077191352844,-0.501193862693043,0.2353277638691477,-8.5973057744205,-0.2427202015280829,0.0398056358098983,-7.05514103174e-05,4.711829783719778,0.0065588355064392
2025-04-30 01:03:32.453143000,3.73614306640625,0.0287854431827812,-0.0435463599860668,0.0531248021570624,0.0524205565452575,-0.1579246754838717,0.9559702114450224,-0.3201021523948592,left,0.0038830637931823,-0.4991234892244098,0.2478160375096835,-8.606695534056424,-0.2415748441505196,0.0665447264909744,-0.0004768837243318,4.694013556522131,-0.0038552284240722
2025-04-30 01:03:32.493143000,3.77614306640625,0.0297524134730698,-0.0494165793061256,0.0536469196871774,0.0531341917812824,-0.1591541199039439,0.956108538926634,-0.3223563228756978,left,0.0053485631942749,-0.4963292458674792,0.2565275142915547,-8.619528712144493,-0.2401007054967243,0.0785131901502609,-0.001493714749813,4.669935930842161,-0.0050640702247619
2025-04-30 01:03:32.533143300,3.816143310546875,0.0304929174062689,-0.048677172511816,0.0540804917504722,0.0425576269626617,-0.1604370991762592,0.9562321121080428,-0.3247821148825345,left,-0.0025003552436828,-0.4935649821682004,0.2633027988464571,-8.632206407409907,-0.2386530171845971,0.0640186220407486,-0.0022970307618379,4.646081008002161,-0.0006778240203857
2025-04-30 01:03:32.573143300,3.856143310546875,0.0324020229570327,-0.0146445110440254,0.0549839552164664,0.0646434798836708,-0.1612633053610612,0.956325089025404,-0.3259839577771952,left,-0.0022534132003784,-0.4915762672321717,0.2800808969017118,-8.64090584669411,-0.237514581494601,0.0427168533205986,-0.0028976015746593,4.628896941228211,-0.0060521960258483
2025-04-30 01:03:32.613143300,3.896143310546875,0.0345434483223711,-0.0195193216204643,0.0559906591399735,0.0478319078683853,-0.1618685798927098,0.95636768992526,-0.3266867197628551,left,0.0042771697044372,-0.4902660991994478,0.2987932874877937,-8.646339562180637,-0.2366947395746813,0.0221112389117479,-0.0037452094256877,4.617565984396636,-0.0084678828716278
2025-04-30 01:03:32.653143000,3.93614306640625,0.0358669672712809,-0.0313499234616756,0.0567216841333494,0.0462314151227474,-0.1625994745105255,0.9563006545868954,-0.3278749204618317,left,-0.0011370778083801,-0.4897155922040623,0.3103277127359062,-8.648475989687443,-0.2362902778338844,0.0088248373940587,0.0014024190604686,4.612802423256635,-0.0068825185298919
2025-04-30 01:03:32.693143000,3.97614306640625,0.0369031701684264,-0.0238481871783733,0.0573651243656762,0.0275043845176696,-0.163329739008626,0.956170831102579,-0.3291456948721181,left,0.0042541623115539,-0.4896886486131452,0.3192937305344268,-8.648273745113611,-0.2361566958190873,-0.0080132139846682,0.0006226487457752,4.612569491283596,-0.0055119693279266
2025-04-30 01:03:32.733143000,4.01614306640625,0.0368133368984667,-0.0188531372696161,0.0574768182001918,-0.0071417577564716,-0.1638100855776387,0.9560382414108471,-0.330182316235287,left,0.0018061995506286,-0.4901046146856208,0.3184461737943813,-8.646384570366143,-0.2363334467077478,-0.0112791592255234,-0.0011888779699802,4.616168684819341,-0.0041175782680511
2025-04-30 01:03:32.773143300,4.056143310546875,0.0361467591797276,-0.0025862921029329,0.0572622322601266,-0.0072509027086198,-0.164011226396702,0.9559560913065974,-0.3307781624534676,left,-0.0014456510543823,-0.4905375764246326,0.3126103437803685,-8.644596517905592,-0.2365782527691466,-0.0091487672179937,-0.00010472163558,4.6199143010884525,-0.0012808740139007
2025-04-30 01:03:32.813143300,4.096143310546875,0.0361467591797276,-0.0025557074695825,0.0572622322601266,-0.0138236097991466,-0.164011226396702,0.9559560913065974,-0.3307781624534676,left,-0.0019723773002624,-0.4905375764246326,0.3126103437803685,-8.644596517905592,-0.2365782527691466,0.0034866677597165,-0.000873114913702,4.6199143010884525,-0.0019413232803344
2025-04-30 01:03:32.853143300,4.136143310546875,0.0361467591797276,0.0048217363655567,0.0572622322601266,0.0068496409803628,-0.164011226396702,0.9559560913065974,-0.3307781624534676,left,-0.0040749907493591,-0.4905375764246326,0.3126103437803685,-8.644596517905592,-0.2365782527691466,-0.0008340403437614,-0.0017645359039306,4.6199143010884525,-3.09944152832e-05
2025-04-30 01:03:32.893143300,4.176143310546875,0.0372841072741187,0.0146844461560249,0.0577352174779727,0.0262365471571683,-0.1637109929408124,0.955941184636662,-0.3298792553629711,left,-0.0026664733886718,-0.4909984260084181,0.3223626896509901,-8.642107039177418,-0.2367315192807857,-0.0102227944880723,-0.0014468617737293,4.62390044811517,0.001142680644989
2025-04-30 01:03:32.933143000,4.21614306640625,0.0384222366889443,0.0245471559464931,0.0582081796674913,0.0456234514713287,-0.1634106354549966,0.9559259170265342,-0.3289793586169549,left,-0.001258909702301,-0.4914582926945706,0.3321165698915719,-8.639608792620896,-0.2368846829725521,-0.0196115486323833,-0.0011293478310108,4.627876950530707,0.0023173093795776
2025-04-30 01:03:32.973143000,4.25614306640625,0.0405299266965172,0.0157911404967308,0.0591459031372288,0.0435820817947387,-0.1632824534439869,0.9558914372384488,-0.3281954484667652,left,0.0014645457267761,-0.4917596785842184,0.3502689337084069,-8.63749516146779,-0.2368798312096229,0.0016907211393117,0.0023475624620914,4.6304824568539855,-0.0016968846321105
2025-04-30 01:03:33.013143000,4.29614306640625,0.0421400961657125,-0.0077095683664083,0.0598810503513166,0.029592964798212,-0.1634116399539068,0.9558839263675034,-0.3280618565755658,left,0.0071752667427062,-0.4915170523998954,0.3642235901070758,-8.638042273956536,-0.2366361424848976,0.00954913161695,0.0026979781687259,4.628384900052845,-0.0028882920742034
2025-04-30 01:03:33.053143300,4.336143310546875,0.0424914218071018,-0.0149523001164197,0.0600922376221029,0.0063196048140525,-0.1637194528667887,0.9558630577943724,-0.3286131263854904,left,0.0044123530387878,-0.4912312084340626,0.3673145418597385,-8.639235283133386,-0.2364540226934228,0.0043875533156096,0.0024807602167129,4.62591354150325,-0.0005453824996948
2025-04-30 01:03:33.093143300,4.376143310546875,0.0422319850808735,-0.0219318196177482,0.0600577140188804,-0.0020327111706137,-0.1641690547994191,0.9558340585337628,-0.3296104995026942,left,0.0009804368019104,-0.4908619853539162,0.3651452715292573,-8.641036195075511,-0.2362685399814691,0.0099888229742646,0.0015700459480285,4.6227202984198925,-0.001695841550827
2025-04-30 01:03:33.133143300,4.416143310546875,0.0417196573827731,-0.0109202805906534,0.0598522224656345,-0.0084651336073875,-0.1642855085241752,0.9558258145410756,-0.3299796719631526,left,0.0014595389366149,-0.4908068028719896,0.3607288433264941,-8.641477509102225,-0.2362731216955984,0.0056592812761664,-0.0005790032446384,4.622243036296964,-0.0047515630722045
2025-04-30 01:03:33.173143000,4.45614306640625,0.0417196573827731,9.12584364414e-05,0.0598522224656345,-0.0148975569754838,-0.1642855085241752,0.9558258145410756,-0.3299796719631526,left,0.0018936991691589,-0.4908068028719896,0.3607288433264941,-8.641477509102225,-0.2362731216955984,0.0013297391124069,-0.0031783953309059,4.622243036296964,-0.0078559219837188
2025-04-30 01:03:33.213143000,4.49614306640625,0.040569360229428,0.0052727446891367,0.0593479067486486,-0.0012744972482323,-0.1643612719931404,0.9558343286553412,-0.3304207236444743,left,-0.0116068720817565,-0.4907202436732532,0.3508045384224504,-8.642285902875662,-0.2363130577530983,-0.0106976274400949,0.002940583974123,4.62149455601722,0.0030081272125244
2025-04-30 01:03:33.253143000,4.53614306640625,0.0414972208991954,0.0115041956305503,0.059762523239753,0.0184643939137458,-0.1641343364757786,0.9557802871550772,-0.3297308145301178,left,0.0014510750770568,-0.4914033981500231,0.3586921498671174,-8.63880039884746,-0.2365844590502997,-0.0251401104032993,-0.0014842301607131,4.627402318756282,-0.0036869645118713
2025-04-30 01:03:33.293143300,4.576143310546875,0.0423152979934321,0.0002515781670808,0.0601795000628711,0.0250898227095603,-0.1640851385758028,0.9556842354317436,-0.3294415011547932,left,-0.0036751627922058,-0.4921861801208084,0.3656059113109484,-8.634882348620891,-0.2369007254371354,-0.0156912039965391,-0.0034954622387886,4.634169036412239,-0.001954823732376
2025-04-30 01:03:33.333143300,4.616143310546875,0.0445909130586478,0.0193415973335504,0.0612602352506716,0.0775577425956726,-0.1641333964565857,0.9555778455676356,-0.3289904705369523,left,-0.008799135684967,-0.4927960377258993,0.3851285771002993,-8.631203367847204,-0.2370196119676415,-0.0195740684866905,0.0005556717514991,4.639438793508708,0.0041299760341644
2025-04-30 01:03:33.373143300,4.656143310546875,0.0479678532234258,-0.0039840750396251,0.0628394704811788,0.070734865963459,-0.1642757383444087,0.9554705541198136,-0.3284579226284633,left,0.0054014325141906,-0.4931744297529918,0.414189178824611,-8.628098972091077,-0.2369400151185586,-0.0019383784383535,-0.0020000748336315,4.64270773217678,-0.0046404004096984
2025-04-30 01:03:33.413143000,4.69614306640625,0.0500543946452432,-0.0299799256026744,0.0639111185137308,0.0540919154882431,-0.1649671477372575,0.9553834242337766,-0.3293805089332685,left,0.0030085444450378,-0.4927252601167322,0.4322954384773969,-8.629297826486825,-0.2365240189133272,0.0186496507376432,0.0014869570732116,4.638827383612096,-0.0020139813423156
2025-04-30 01:03:33.453143000,4.73614306640625,0.0509832084588001,-0.0382114201784133,0.0644876282352465,0.0278245694935321,-0.1658412188167215,0.9553096319149984,-0.3309687516437581,left,0.0069774985313415,-0.4920101235139671,0.4404792198570444,-8.632203484800458,-0.2360538957219022,0.0201864186674356,0.0002755597233772,4.63264723367244,-0.0021692812442779
2025-04-30 01:03:33.493143000,4.77614306640625,0.0511966685631762,-0.0207685846835374,0.0646122923470045,0.0088718961924314,-0.1662179482134906,0.9553419155684258,-0.3316913879588928,left,0.0058397650718688,-0.4911970010854657,0.442514452011697,-8.635868437048792,-0.2356236293447471,0.0183328259736299,-0.001105360686779,4.625617773427069,-0.0011013448238372
2025-04-30 01:03:33.533143300,4.816143310546875,0.0514107181631632,-0.0033257491886615,0.0647369334304348,-0.0100807808339595,-0.166594622342274,0.9553739524541712,-0.3324139362522797,left,0.0047013759613037,-0.4903840110485125,0.4445560408418998,-8.639526375034452,-0.2351932601477208,0.0164792332798242,-0.0024869590997695,4.618585975094139,-3.31997871398e-05
2025-04-30 01:03:33.573143300,4.856143310546875,0.0506192530158612,0.0183877609670162,0.0643183847389086,-0.0223207790404558,-0.166435942927117,0.9554487953151434,-0.3322715333624947,left,-0.0001658797264099,-0.4900767117822205,0.4377898346425965,-8.641292800185084,-0.2351166238799392,-0.0003122650086879,0.0008481629192829,4.6159272772789,0.0007660090923309
2025-04-30 01:03:33.613143300,4.896143310546875,0.0500932590042248,0.0202210396528244,0.0639621740343055,-0.022931195795536,-0.16592416769869,0.9555347808007936,-0.3313309605480382,left,-0.0013375878334045,-0.4901502267880721,0.4332274951631203,-8.641182910069823,-0.2352257086513582,-0.0006960255559533,0.0003285482525825,4.616563529355823,-0.0077094435691833
2025-04-30 01:03:33.653143000,4.93614306640625,0.0494789605167116,0.0066014025360345,0.0635960361663638,-0.0119384666904807,-0.1655970733272184,0.9556139997254798,-0.3307954538508501,left,-0.0043426752090454,-0.4900247569104785,0.4279478011945262,-8.64202579063475,-0.2352336283598573,0.0018863326404243,0.0015647560358047,4.6154777799457305,-0.0066562294960021
2025-04-30 01:03:33.693143000,4.97614306640625,0.0493020861322057,-0.0035239988937973,0.0635305475204249,-0.0027058124542236,-0.1655533861053915,0.9555851715062506,-0.3307529239663903,left,-9.13143157958e-05,-0.490337352255936,0.4263481109129264,-8.640659762978553,-0.235399280594887,-0.0230200290679931,0.0007656626403331,4.618182362729311,-0.0019527375698089
2025-04-30 01:03:33.733143000,5.01614306640625,0.049255807392642,-0.004732506815344,0.063584661911257,-0.00321940286085,-0.1655092771008742,0.955459387598675,-0.3306906725152203,left,0.0012275576591491,-0.4914244392811208,0.4257007894527166,-8.635660347256064,-0.2359255363801805,-0.0317214801907539,0.0003577433526515,4.627584105063975,-0.0016205012798309
2025-04-30 01:03:33.773143300,5.056143310546875,0.0485997459827191,-0.0072928545996546,0.0634077979000901,-0.0151332523673772,-0.1655558492542992,0.9552932102313108,-0.3309738567368653,left,0.0025857686996459,-0.4927650798795473,0.4197334054809063,-8.629733295294642,-0.2366125595107227,-0.0300031676888465,0.001186478883028,4.639171374744176,0.0017131268978118
2025-04-30 01:03:33.813143300,5.096143310546875,0.0475540713457868,-0.0064891790971159,0.0630353524333121,-0.0240714102983474,-0.1655503681180667,0.9551530305269172,-0.3312440394508932,left,0.000471293926239,-0.4939987183983783,0.4104369136190041,-8.624444541236757,-0.2372809647917827,-0.0236430373042821,0.0002161264419555,4.649826332010329,0.0003120005130767
2025-04-30 01:03:33.853143300,5.136143310546875,0.0466259463686406,-0.0023330547846853,0.0626628779032272,-0.0269372127950191,-0.1655065758014286,0.9550857426728644,-0.3313958336860928,left,0.0048400163650512,-0.4946826887569026,0.4022838561711833,-8.6216423432976,-0.2376803183251304,-0.0116566522046923,-0.003116175532341,4.655730879878997,-0.0018695592880249
2025-04-30 01:03:33.893143300,5.176143310546875,0.045643741752351,0.0062351492233574,0.0622047188578777,-0.0110417660325765,-0.1653743128581404,0.9550961021154684,-0.3313669749055913,left,-0.0078219175338745,-0.4948684306928645,0.3937759939363226,-8.621169465088844,-0.2378513240733956,-0.0053110467270016,0.0007862225174903,4.657333931161463,0.0069338381290435
2025-04-30 01:03:33.933143000,5.21614306640625,0.0457483011444031,0.0113042593002319,0.0622020181824491,-0.0083590727299451,-0.1651242582798092,0.9551183740972264,-0.3308204469028222,left,0.0018796324729919,-0.4950290168107606,0.3946432052249088,-8.620381529581547,-0.237936507689076,0.0036784904077649,-0.0014343969523906,4.65871983256191,-0.0017521381378173
2025-04-30 01:03:33.973143000,5.25614306640625,0.045233999524881,0.0008103167638182,0.0618438526289626,-0.0296983812004327,-0.1649278410398158,0.9552810108600652,-0.3305178828239616,left,0.0017517209053039,-0.4940347468367395,0.3904189385933801,-8.62520617325902,-0.2375125675980276,0.0424313880503177,-0.0043228194117546,4.650137589916587,-0.0066763460636138
2025-04-30 01:03:34.013143000,5.29614306640625,0.0443139441691362,0.0182503834366798,0.0612343194416479,-0.01858501881361,-0.1646579832762817,0.9555399992576752,-0.3301492191399994,left,-0.0043069720268249,-0.4923945112395751,0.3828204462883994,-8.633169699484109,-0.2368147090379284,0.0327255614101886,-0.0041407719254493,4.635969363832474,0.0016424059867858
2025-04-30 01:03:34.053143300,5.336143310546875,0.0442440518805981,0.0189231764525175,0.0610323072967119,-0.0070006204769015,-0.1642205023281842,0.9557131763655622,-0.3292355053564193,left,-0.0005233287811279,-0.4916078459420457,0.3823782554788514,-8.636836989820003,-0.2364717958250419,0.0024164225906133,-0.0039460323750972,4.629169912950695,-0.0039433538913726
2025-04-30 01:03:34.093143300,5.376143310546875,0.0443763556318478,0.014001227915287,0.0610421863336382,-0.0034058815799653,-0.1637798035430231,0.9556941832045512,-0.3282952213004175,left,-0.0012016296386718,-0.4923632002675003,0.3833657321462407,-8.633290695515274,-0.2368512619975786,-0.0357568562030792,-0.0002294853329658,4.635698730197548,0.0002530217170715
2025-04-30 01:03:34.133143300,5.416143310546875,0.0443495460637338,0.0040131928399205,0.0611487985907857,0.0034231138415634,-0.1638368598561618,0.9555208203340184,-0.328447134485097,left,-0.0026543140411376,-0.4936876191436095,0.3828617281468585,-8.627159645414352,-0.2374828075336108,-0.022036638110876,0.0015050396323204,4.6471401616662735,0.0012234151363372
2025-04-30 01:03:34.173143000,5.45614306640625,0.0443225387753256,-0.0059748413041234,0.0612554050100904,0.0102521097287535,-0.1638938424786528,0.955347128439909,-0.3285992233942882,left,-0.0041086077690124,-0.4950121608122033,0.3823556783208623,-8.621013397744298,-0.2381142787928984,-0.0083164172247052,0.0032397732138633,4.658574286611378,0.0021945834159851
2025-04-30 01:03:34.213143000,5.49614306640625,0.0443225387753256,0.0017926376312971,0.0612554050100904,0.0006205840036273,-0.1638938424786528,0.955347128439909,-0.3285992233942882,left,0.0030277967453002,-0.4950121608122033,0.3823556783208623,-8.621013397744298,-0.2381142787928984,0.002473353408277,0.0003505013883113,4.658574286611378,0.0036733746528625
2025-04-30 01:03:34.253143000,5.53614306640625,0.0443225387753256,0.00750244082883,0.0612554050100904,-0.0008481357945129,-0.1638938424786528,0.955347128439909,-0.3285992233942882,left,-0.0009152889251708,-0.4950121608122033,0.3823556783208623,-8.621013397744298,-0.2381142787928984,0.0174126252532005,0.0010926760733127,4.658574286611378,-0.0027052462100982
2025-04-30 01:03:34.293143300,5.576143310546875,0.0446807892329371,0.0011346032842993,0.0613430964545151,0.0056802122853696,-0.163863725267961,0.9554513989772074,-0.3284307408742999,left,7.2419643402e-05,-0.4941841293345888,0.3856162875520065,-8.624726865309476,-0.2376937939856338,0.0104516819119453,0.002036090940237,4.65142733746618,3.23355197906e-05
2025-04-30 01:03:34.333143300,5.616143310546875,0.0446807892329371,-0.0163601748645305,0.0613430964545151,-0.0014021662063896,-0.163863725267961,0.9554513989772074,-0.3284307408742999,left,0.000604510307312,-0.4941841293345888,0.3856162875520065,-8.624726865309476,-0.2376937939856338,-0.0043351668864488,0.0036995001137256,4.65142733746618,-0.0023311972618103
2025-04-30 01:03:34.373143300,5.656143310546875,0.0441489436209626,-0.0260221883654594,0.0612932847748038,-0.0047510890290141,-0.1645083471014122,0.9553019279809406,-0.3299195258652965,left,0.0007919669151306,-0.4945389766576042,0.3809563329169526,-8.623280758154392,-0.2378616578919572,-0.0118564702570438,0.0015572123229503,4.654490524429082,-0.0001538097858428
2025-04-30 01:03:34.413143000,5.69614306640625,0.0432600885761888,-0.0161139518022537,0.0610364235845861,-0.0119836125522851,-0.1649630432285059,0.9551886451293802,-0.3311001065888352,left,0.0011265277862548,-0.4948919073891801,0.3732202587721869,-8.621974351730943,-0.2380676447187637,-0.0041834446601569,-0.0002402476966381,4.657536467996239,0.0013175904750823
2025-04-30 01:03:34.453143000,5.73614306640625,0.0426953391738543,0.0102635733783245,0.0607822405763214,-0.0078735947608947,-0.1650014378810327,0.9552044488766924,-0.3313184703903666,left,-0.0011099576950073,-0.4947568463706875,0.3683778237096965,-8.622812556120753,-0.2380429425313674,0.005050643812865,-0.0002948343753814,4.656370931348205,0.0038416385650634
2025-04-30 01:03:34.493143000,5.77614306640625,0.0428556579160098,0.0199530404061079,0.0607128472960985,-0.0092405350878834,-0.1646134935899733,0.9553392346688604,-0.3304547087344794,left,-0.0004761219024658,-0.4941973783317836,0.3698717520618811,-8.625354641819,-0.2377882599702574,0.0204102266579866,-0.0025680251419544,4.651541611495614,-0.0018799006938934
2025-04-30 01:03:34.533143300,5.816143310546875,0.0427732459719,0.0091009754687547,0.060523716074738,-0.004380983300507,-0.1643290485711409,0.9555159287902132,-0.3298586763588627,left,-0.0036603808403015,-0.4931728477055929,0.3693644966594874,-8.630141876095532,-0.2373227904178354,0.0290506817400455,0.0003044605255126,4.6426939959123725,-0.0047157108783721
2025-04-30 01:03:34.573143300,5.856143310546875,0.0426217133094227,-0.0002143774181604,0.0603338066736766,-0.016236649826169,-0.1642573813321701,0.955691743406997,-0.3297193533768239,left,-0.0009998083114624,-0.4918612639566347,0.3683159009220078,-8.636273510718345,-0.2367116715805334,0.0310463085770607,-0.0034853555262088,4.631360700993239,-0.0067353844642639
2025-04-30 01:03:34.613143300,5.896143310546875,0.0423826819067555,0.0173211228102445,0.0601177903622241,-0.0003630872815847,-0.1641310373108082,0.9558361377652942,-0.3294941333857116,left,-0.0050848722457885,-0.4908851718969187,0.3664429101243615,-8.640873697990179,-0.2362707955438812,0.0043667405843734,0.0005600526928901,4.622921081689,-5.42104244232e-05
2025-04-30 01:03:34.653143000,5.93614306640625,0.0426419907850277,0.0168132204562425,0.0601609466021304,-0.0132262464612722,-0.1637088927687091,0.9558575621550708,-0.3285547635060867,left,0.0055760741233825,-0.4912788089509305,0.3686059333771467,-8.638959973323345,-0.2364662331435053,-0.0256462041288614,-0.0018935389816761,4.62632504491359,-0.005136489868164
2025-04-30 01:03:34.693143000,5.97614306640625,0.0419613148932517,0.0076286606490612,0.0598713051501214,-0.0289316773414611,-0.1633078239309331,0.9557532451137584,-0.3279139685549066,left,0.0006092190742492,-0.4927336515959906,0.3624428076375275,-8.632475287479162,-0.2372376000474973,-0.0445472598075866,-0.0001335591077804,4.638899864326417,-0.0005658268928527
2025-04-30 01:03:34.733143000,6.01614306640625,0.0413215221244146,0.007342170458287,0.0596418246444286,-0.011265916749835,-0.1629932539781393,0.9556006603454074,-0.3274505136549577,left,0.0010827183723449,-0.4944488520648463,0.3565905379453674,-8.624742647400497,-0.2381246554919887,-0.0384274795651435,-0.0012650601565837,4.653712525793909,-0.0008600950241088
2025-04-30 01:03:34.773143300,6.056143310546875,0.0408725319281052,-0.0033536558039486,0.0595237968308613,-0.0054337061010301,-0.1629062086309763,0.9554549933446932,-0.3274085198301605,left,-0.0022991895675659,-0.495775410938613,0.3524654939046129,-8.618726163589955,-0.2387973566546944,-0.026366252452135,-0.0010659284889698,4.665159510220587,0.0035506188869476
2025-04-30 01:03:34.813143300,6.096143310546875,0.0411208440059918,-0.0052352100610733,0.0597041794597085,0.0177812967449426,-0.1630020052942821,0.9553651234602432,-0.3275591720662666,left,-0.0022192001342773,-0.496347398179295,0.3544958672210574,-8.61597072740197,-0.239046347189739,-7.69719481468e-05,-0.0001793913543224,4.670092582708597,0.0024575293064117
2025-04-30 01:03:34.853143300,6.136143310546875,0.0419063519228678,0.0062392596155405,0.0600059766647815,0.0102734444662928,-0.1630484911953713,0.9554467521206834,-0.3274436901208025,left,0.0031779408454895,-0.4955675715660544,0.3614161314709112,-8.619325883048772,-0.238612591974524,0.0355133339762687,-0.0018565542995929,4.663366489323973,-0.0006068348884582
2025-04-30 01:03:34.893143300,6.176143310546875,0.0429980009566989,0.0298351421952247,0.0602884900734182,0.0196401420980691,-0.162805032084484,0.9557075160713256,-0.3266241631119538,left,-0.0009410977363586,-0.4937140155365774,0.3711960960008204,-8.627547183427215,-0.2376611494311891,0.0479657389223575,2.80067324638e-05,4.647368125203252,0.0003079175949096
2025-04-30 01:03:34.933143000,6.21614306640625,0.0440894586384694,0.0148389404639601,0.0605711768416932,0.0098422393202781,-0.1624195499012015,0.9559373752833628,-0.3255187722105239,left,-0.0016915202140808,-0.4922970050947112,0.3809023377073928,-8.633706875100732,-0.2369273830315703,0.0171943139284849,0.0001129321753978,4.63512677552849,-0.0028362274169921
2025-04-30 01:03:34.973143000,6.25614306640625,0.0448225903440097,-0.0094198146834969,0.0608924266378584,0.0166593082249164,-0.1624058793485166,0.9559390117434214,-0.325307498919221,left,-0.0001711845397949,-0.4922426226556288,0.3872431946340948,-8.633677649006247,-0.2368481989690258,-0.0090281497687101,0.0021885968744754,4.634656819929182,-0.0087733566761016
2025-04-30 01:03:35.013143000,6.29614306640625,0.0448487525389352,-0.0305808708071708,0.0610878573275499,0.0069258762523531,-0.1629028367169195,0.9557585173869402,-0.3263554384518343,left,0.0031767487525939,-0.4930159962948515,0.3873082592269405,-8.630084008428454,-0.2371844339162297,-0.0221779886633157,-0.0003687143325805,4.64133907417208,-0.0027473270893096
2025-04-30 01:03:35.053143300,6.336143310546875,0.0444562261688756,-0.0185613259673118,0.061135212458233,0.0057152528315782,-0.1634737326993558,0.9555365419688082,-0.3276677326808901,left,-9.13143157958e-05,-0.4940542314609306,0.3837063257448375,-8.625416601139307,-0.2376733748588515,-0.0242397673428058,-0.0002322532236576,4.650305639959871,0.003460943698883
2025-04-30 01:03:35.093143300,6.376143310546875,0.0444395945747456,0.0066227335482835,0.061218180340347,-0.0002738651819527,-0.1636427347631034,0.9554316153608085,-0.3280376195326484,left,0.0005625486373901,-0.4946683971044762,0.3834359113056212,-8.622568225970864,-0.2379573779955188,-0.0075982566922903,-0.0023922063410282,4.655607545760273,0.003811627626419
2025-04-30 01:03:35.133143300,6.416143310546875,0.0444395945747456,0.0218380261212587,0.061218180340347,-0.0014889620942994,-0.1636427347631034,0.9554316153608085,-0.3280376195326484,left,-0.0010191798210144,-0.4946683971044762,0.3834359113056212,-8.622568225970864,-0.2379573779955188,0.0025385841727256,-0.0004957802593708,4.655607545760273,0.0021029710769653
2025-04-30 01:03:35.173143000,6.45614306640625,0.0452199440474259,0.0200043842196464,0.0613866982266341,0.0037229959852993,-0.1630177028479818,0.955570781683111,-0.3265287767932209,left,-0.0028883814811706,-0.4943425677208005,0.3902329510346055,-8.623781108891963,-0.2377839509484486,0.0155958281829953,-0.0008941292762756,4.652795118688046,-0.0032481849193573
2025-04-30 01:03:35.213143000,6.49614306640625,0.0458394941322794,0.0142942555248737,0.0615232765208451,0.007664531469345,-0.1626848581949591,0.95571361308466,-0.3256641692166707,left,-0.0024055838584899,-0.4935953373214197,0.3957349825169891,-8.627008254244924,-0.2374023486689851,0.0202987808734178,0.0005637556314468,4.646343166069686,-0.006641000509262
2025-04-30 01:03:35.253143000,6.53614306640625,0.0463128724912446,-0.0008251685649156,0.0616769907392913,0.005091440398246,-0.162616429729529,0.9557862532935468,-0.3253936990388946,left,-0.0014789700508117,-0.493062020261386,0.3999334205875173,-8.629294319355488,-0.237116830845718,0.0079381084069609,-0.0003607794642448,4.641736841318011,-0.0058415830135345
2025-04-30 01:03:35.293143300,6.576143310546875,0.0463128724912446,-0.0033639778848737,0.0616769907392913,-4.19234856963e-05,-0.162616429729529,0.9557862532935468,-0.3253936990388946,left,0.0028774738311767,-0.493062020261386,0.3999334205875173,-8.629294319355488,-0.237116830845718,0.0019175228662788,-0.0017171092331409,4.641736841318011,-0.0076614022254943
2025-04-30 01:03:35.333143300,6.616143310546875,0.0454728211800333,-0.0179487559944391,0.0614439182543435,-0.0068726860918104,-0.1631037577634853,0.9556761573599007,-0.3266273558176059,left,-0.0004597306251525,-0.493352477732341,0.3926229514436796,-8.62827958935499,-0.2372863274738076,-0.0221530348062515,2.03475356101e-05,4.644245609268546,-0.0024183392524719
2025-04-30 01:03:35.373143300,6.656143310546875,0.04463222889,-0.0325335338711738,0.0612108239732449,-0.0137034486979246,-0.1635910121067935,0.9555657324026776,-0.3278614403360388,left,-0.003797173500061,-0.4936420775271505,0.3853098884839564,-8.627263105788826,-0.2374557749947918,-0.0462235920131206,0.0017580389976501,4.646746778434514,0.002825528383255
2025-04-30 01:03:35.413143000,6.69614306640625,0.0429266334453602,-0.065103180706501,0.0607992976422664,-0.0240652970969676,-0.1643445329842975,0.955194747861034,-0.3299055326514552,left,-0.0054278969764709,-0.4957279919895997,0.3701779684668406,-8.618204770064354,-0.23853149955873,-0.0689656436443328,0.0013947039842605,4.664750344897806,-0.0132124722003936
2025-04-30 01:03:35.453143000,6.73614306640625,0.0413772480240194,-0.0344834625720977,0.060522620032839,-0.0062816590070724,-0.1651465954914485,0.9547340680068924,-0.3320310342739343,left,-0.0016313195228576,-0.4984317446607698,0.3563016014687716,-8.606134977564215,-0.2398879866796759,-0.073841705918312,0.0026241093873977,4.68805640168339,0.0012958049774169
2025-04-30 01:03:35.493143000,6.77614306640625,0.0406799934101352,-0.0013965517282485,0.0605178846399648,-0.0126898707821965,-0.1653344012918103,0.9543027251850532,-0.3326725778922635,left,0.0049416422843933,-0.5016637245075862,0.3496828043835237,-8.591197520673274,-0.2414713598812718,-0.0909327566623687,-0.0022714473307132,4.715870583543182,0.0040545463562011
2025-04-30 01:03:35.533143300,6.816143310546875,0.0404581076395908,0.024688309058547,0.0605686753746183,-0.0060114325024187,-0.1650170502017519,0.9539979103892736,-0.3321291524677022,left,0.0003691315650939,-0.5045299366133745,0.3472283969687297,-8.577733643466233,-0.2428759361390233,-0.048628345131874,-0.0013439022004604,4.7404956139728425,0.002887487411499
2025-04-30 01:03:35.573143300,6.856143310546875,0.0409717841724377,0.0320727303624153,0.0607144222619431,-0.0024769611191004,-0.1644568266628328,0.9539960121292498,-0.3308406960860385,left,0.0007126927375793,-0.5052707135810225,0.3514905844578519,-8.574043556776642,-0.2432266675504368,-0.0080110020935535,-0.0033235475420951,4.746853750827908,0.0111976265907287
2025-04-30 01:03:35.613143300,6.896143310546875,0.0419710082249625,0.0464881248772144,0.0610928617718662,0.0260189566761255,-0.1637505391224724,0.9539276177822616,-0.3291365717102086,left,-0.004185140132904,-0.5066920385131946,0.359774355613254,-8.566938108685612,-0.2438757350077509,-0.0750098824501037,0.0042512230575084,4.759045708402991,0.0081953108310699
2025-04-30 01:03:35.653143000,6.93614306640625,0.0439758443136935,-0.0128957517445087,0.062183251371205,0.0505051277577877,-0.1634806142164312,0.9535248488748636,-0.328129097580866,left,-0.0101947784423828,-0.5100600180778038,0.3762421638766303,-8.55013836505413,-0.2453518200114134,-0.0802215188741684,0.0073353722691535,4.787897416616976,-0.0197723507881164
2025-04-30 01:03:35.693143000,6.97614306640625,0.0458050914138721,-0.0975313782691955,0.0638355518079944,0.0836983323097229,-0.1659082851673926,0.9527434058294816,-0.3328080095298664,left,-0.0038273930549621,-0.5127363927540681,0.3912936756012961,-8.536604345220328,-0.2463317464148079,-0.0777181908488273,0.0036959126591682,4.810785540251434,-0.0088372826576232
2025-04-30 01:03:35.733143000,7.01614306640625,0.0476227778126678,-0.1821670085191726,0.0654872240559909,0.1168915405869484,-0.1683342119463745,0.9519522467311669,-0.3374882373070094,left,0.002527892589569,-0.5154201928253904,0.406193796156533,-8.522951667442918,-0.2473091572663222,-0.0752148553729057,7.19018280506e-05,4.833702889980375,0.0020948052406311
2025-04-30 01:03:35.773143300,7.056143310546875,0.0481716605744903,-0.171429231762886,0.0669836438228193,0.1023396924138069,-0.1721790296990375,0.950859584911115,-0.3454941392714167,left,0.0094456076622009,-0.5184927765511991,0.410154735676758,-8.507852297988533,-0.2484621422737087,-0.0713146477937698,-0.0046285167336463,4.859897361683846,0.0126090049743652
2025-04-30 01:03:35.813143300,7.096143310546875,0.0483551278199718,-0.0947601944208145,0.0680301992019193,0.0583788342773914,-0.175128598086115,0.9500174883748108,-0.3517053008336126,left,0.0130286812782287,-0.5208020368300558,0.4111720960257575,-8.496545306554436,-0.2493364279449564,-0.0391867794096469,-0.0077502168715,4.87955395605117,0.0124108493328094
2025-04-30 01:03:35.853143300,7.136143310546875,0.0484295104549714,-0.0087483301758766,0.0685090664447932,0.0025595426559448,-0.1761625515629691,0.949555837808245,-0.3539111644851279,left,0.0111514925956726,-0.5228594859265907,0.4113172035848721,-8.486468733698128,-0.250233918302923,-0.0488038957118988,-0.0092830248177051,4.897045189078152,0.0109679400920867
2025-04-30 01:03:35.893143300,7.176143310546875,0.0479350628241459,0.0243612565100193,0.0683882342260848,-0.0395305454730987,-0.1757718781837609,0.9493222542018548,-0.3532752433494927,left,0.0075434446334838,-0.525225533399589,0.4065647118281573,-8.475074063980578,-0.2514249995252836,-0.0676589906215667,-0.0067985728383064,4.917134329643845,0.0080171227455139
2025-04-30 01:03:35.933143000,7.21614306640625,0.046408650747588,0.0044127218425273,0.0677364967619823,-0.0392150357365608,-0.1752329097333357,0.9491815306547392,-0.3525923614720576,left,0.0026181936264038,-0.5271684397669139,0.393183836729452,-8.466125618371366,-0.2525064412543256,-0.0541390627622604,-0.0043478831648826,4.933610248148441,0.0062907338142395
2025-04-30 01:03:35.973143000,7.25614306640625,0.0448820877152418,-0.0155358146876096,0.0670846453884169,-0.0388995260000228,-0.174693586323625,0.949039029394567,-0.351912099952805,left,-0.0023130178451538,-0.5291123105532569,0.3798282787350937,-8.457119305095077,-0.2535874225967716,-0.0406191311776638,-0.0018998123705387,4.950075645259022,0.0045654773712158
2025-04-30 01:03:36.013143000,7.29614306640625,0.0426888123463532,-0.0296619944274425,0.0663355078590465,-0.0348012149333953,-0.1748347152559849,0.94875488335583,-0.35285269735377,left,-0.0048139691352844,-0.5312156910311057,0.360833472744748,-8.447510349750518,-0.2547477664795286,-0.0692770183086395,-0.0005162358283996,4.9678714141905305,0.001124620437622
2025-04-30 01:03:36.053143300,7.336143310546875,0.0406497017061441,-0.0279615987092256,0.0657636944870537,-0.038227342069149,-0.1750376740767294,0.9483144455366112,-0.353918199073308,left,-0.0041054487228393,-0.5343730289226116,0.3429681822409853,-8.432514440670609,-0.2563913951499043,-0.0927439033985138,-0.0029676035046577,4.99454256349504,-0.0026396512985229
2025-04-30 01:03:36.093143300,7.376143310546875,0.0389659739551901,0.0073534417897462,0.0653863288773382,-0.0237359404563903,-0.1750177830728038,0.947758756532376,-0.3544585766897045,left,-0.006223976612091,-0.5386390858323196,0.3279366173258051,-8.411712475660442,-0.2585471798494522,-0.1213478073477745,-0.0023111458867788,5.030500596582889,0.0037530064582824
2025-04-30 01:03:36.133143300,7.416143310546875,0.0385487631600908,0.0662097781896591,0.065354254813519,-0.0189506076276302,-0.1742126937518854,0.9473255857050684,-0.3530037039863888,left,-0.0053647756576538,-0.5429502694240501,0.3235882859231904,-8.39009919426739,-0.2606776107563374,-0.0827995389699935,-0.0028785392642021,5.066745629918575,-0.0032622218132019
2025-04-30 01:03:36.173143000,7.45614306640625,0.0403251565627518,0.0834111347794532,0.0658256526287189,-0.0176784377545118,-0.1725072571340977,0.9473597313550768,-0.3489707916223339,left,0.0027220845222473,-0.5448715982364429,0.3380988226389512,-8.37976893891096,-0.2615677363138818,-0.0408480688929557,-0.004700593650341,5.0828684972018,0.0010724067687988
2025-04-30 01:03:36.213143000,7.49614306640625,0.0417288150896796,0.0398156158626079,0.0661906559338961,0.0042686685919761,-0.1711926407358469,0.9473995952524088,-0.3458463569455161,left,-0.0030955076217651,-0.5462287949758561,0.3495727316051721,-8.372385842922329,-0.2621944167467819,-0.0261822286993265,-0.0014254674315452,5.09424563126266,-0.009510338306427
2025-04-30 01:03:36.253143000,7.53614306640625,0.0424884503231816,-0.0044913627207279,0.0664648495555,0.0149116087704896,-0.1709483170857626,0.947420842837996,-0.3451235057017556,left,-0.0021904706954956,-0.5463427323587836,0.3559079259760677,-8.371537701660394,-0.262207510690778,0.0209717620164155,7.75791704654e-05,5.095200740030408,-0.0041418671607971
2025-04-30 01:03:36.293143300,7.576143310546875,0.0423918186704956,-0.028056701645255,0.0664636334008592,0.0263311602175235,-0.1715458859297381,0.9475167827931844,-0.3463705742149598,left,-0.0001422762870788,-0.5448588192052434,0.355419009947963,-8.37911719700396,-0.2614698974404663,0.0424212254583835,0.0010594837367534,5.082760945174098,0.0046359300613403
2025-04-30 01:03:36.333143300,7.616143310546875,0.0425643380994771,-0.0255679730325937,0.0665909878598521,0.0235160011798143,-0.1722823826003068,0.9476269147533498,-0.3478277166650808,left,0.0044870376586914,-0.5430594410394148,0.3572531300399452,-8.38817962438166,-0.2605523200712782,0.0319285355508327,-0.0053630955517292,5.067662160241603,0.0194109082221984
2025-04-30 01:03:36.373143300,7.656143310546875,0.0433729851183243,0.0094166528433561,0.0669579199533313,0.0381356552243232,-0.1725499657933372,0.9476688291198824,-0.3481504612194049,left,-0.0017182230949401,-0.5423363953235031,0.364194875469245,-8.391546470466256,-0.2601285092268484,0.0192019082605838,-0.0022258274257183,5.06159014685154,0.0171642899513244
2025-04-30 01:03:36.413143000,7.69614306640625,0.0462093723002199,0.0285866726189851,0.0680411154676104,0.0571127012372016,-0.1723750760802615,0.9478537251654364,-0.3469688820996901,left,0.0038045048713684,-0.5409984136939859,0.3883075359299778,-8.397237375584245,-0.2592883719237897,0.0614857152104377,-0.0044621564447879,5.050347452825307,0.0018061399459838
2025-04-30 01:03:36.453143000,7.73614306640625,0.0491441714203024,0.0336097255349159,0.069004794924158,0.0563262626528739,-0.1721727620577043,0.9482970419407302,-0.3456626874691478,left,0.0049876570701599,-0.5377591611654138,0.4137515180597081,-8.412357203304767,-0.2575412563954139,0.0920481085777282,-0.0007386840879917,5.023091197109222,-0.0056627988815307
2025-04-30 01:03:36.493143000,7.77614306640625,0.0517550758154028,0.0284650437533855,0.0698059989884692,0.0448398254811763,-0.1719911266228496,0.9487854402096184,-0.3444917060527872,left,0.0035262703895568,-0.5341495554685383,0.4366490671096369,-8.429300739321112,-0.2556411592190313,0.0815262570977211,-0.0014179684221744,4.992656311357021,-0.0086358785629272
2025-04-30 01:03:36.533143300,7.816143310546875,0.0532030009861454,0.0255578383803367,0.0702676568515069,0.0265053324401378,-0.1716599231788053,0.948969540147798,-0.3433815101406031,left,0.0023136138916015,-0.5330932121906584,0.4491338336188346,-8.433921384859085,-0.2550532246842214,0.0294170528650283,-0.0009512044489383,4.983737676364183,-0.005217432975769
2025-04-30 01:03:36.573143300,7.856143310546875,0.0546486774859485,0.0226506311446428,0.0707292652844004,0.0081708393990993,-0.1713285723534652,0.949152982038824,-0.3422737236875438,left,0.0010988116264343,-0.5320355024182225,0.4616137412898242,-8.438521572130918,-0.2544651176584602,-0.0226921550929546,-0.0004839301109313,4.974801505714654,-0.0017971992492675
2025-04-30 01:03:36.613143300,7.896143310546875,0.0554597534978902,0.0167507566511631,0.0710418901588843,-0.0005786446854472,-0.1708768554353532,0.9490977142666842,-0.3411227038971854,left,-0.0011292099952697,-0.5329826502024845,0.468196444148384,-8.433435647168755,-0.2548871963071646,-0.0302835181355476,-0.0009975843131542,4.982803610384464,-0.0061195492744445
2025-04-30 01:03:36.653143000,7.93614306640625,0.055938930773496,0.0063496474176645,0.0712358647892022,0.0057861502282321,-0.170645345409669,0.9490583456610926,-0.3405168537896842,left,-0.0038375854492187,-0.5335436267319493,0.472081176627241,-8.430418345174193,-0.2551347299422371,-0.0061704646795988,-0.0008486025035381,4.987541160300374,-0.0051575899124145
2025-04-30 01:03:36.693143000,7.97614306640625,0.055938930773496,0.0011688037775456,0.0712358647892022,0.0109344869852066,-0.170645345409669,0.9490583456610926,-0.3405168537896842,left,-0.0047690272331237,-0.5335436267319493,0.472081176627241,-8.430418345174193,-0.2551347299422371,0.0186413880437612,-0.0011013783514499,4.987541160300374,-0.0049213171005249
2025-04-30 01:03:36.733143000,8.01614306640625,0.0571012263847878,0.0181420538574457,0.071608459692773,0.011830236762762,-0.1705082630145961,0.949238488513,-0.339892222700181,left,-0.0028693675994873,-0.5322682462303321,0.4822421032987534,-8.436208034491539,-0.2544510339761162,0.0295114647597074,-0.0012158676981925,4.97676842187345,-0.0025826692581176
2025-04-30 01:03:36.773143300,8.056143310546876,0.0583379309981908,0.0339474268257617,0.0719304643869051,0.0120826382189989,-0.170067438212961,0.949476380392548,-0.3386091542118685,left,-0.0005201697349548,-0.5309548263251672,0.4930555390622466,-8.442123396015166,-0.253766650690004,0.0257707927376031,0.0003888644278049,4.965665428578854,-0.0030621290206909
2025-04-30 01:03:36.813143300,8.096143310546875,0.059696752296533,0.0265507567673921,0.0723206112232578,0.010770265944302,-0.1695053747575205,0.9496573761467618,-0.3370499966890987,left,-0.0009180307388305,-0.5302129301293809,0.5047460864538327,-8.44512082426548,-0.253354312215555,0.0031957887113094,0.0003158412873744,4.959390586093068,-0.0051717162132263
2025-04-30 01:03:36.853143300,8.136143310546874,0.0606278565742263,0.0008276458829641,0.0727061797036483,0.0088997688144445,-0.169277483421509,0.949625101023247,-0.3363288492014221,left,-1.67489051818e-05,-0.5306659070831924,0.5124729543788358,-8.442403966522216,-0.2535172773126513,-0.023772295564413,0.0001425519585609,4.963222127079964,-0.0056726336479187
2025-04-30 01:03:36.893143300,8.176143310546875,0.0608881723216676,-0.0160973649471998,0.0729809667009016,0.0131011633202433,-0.1695003268983216,0.9494121021093234,-0.336748854893747,left,-0.0013976097106933,-0.5319401296421237,0.5142854106282815,-8.435950844860077,-0.2540865814696897,-0.0352265238761901,0.0004593282938003,4.973995450028776,-0.0032423734664916
2025-04-30 01:03:36.933143000,8.21614306640625,0.0609078561093492,-0.0062432838603854,0.0731682043888517,0.0006812494248151,-0.1697665543035101,0.9491829943307626,-0.3373261748916837,left,0.0016828775405883,-0.5332982355873601,0.5140398018367588,-8.429190264683962,-0.2547102625875077,-0.0298520177602767,-0.002150285989046,4.985469030201434,0.0025740265846252
2025-04-30 01:03:36.973143000,8.25614306640625,0.0611566439244889,0.0225486196577548,0.0733008814354203,0.0031420835293829,-0.1695747453903708,0.9490873534430908,-0.3368703208680731,left,-0.0015013813972473,-0.5342437825270582,0.5158484952265396,-8.424353346046805,-0.255155853237368,-0.0233122892677783,-0.0002983957529067,4.993451845648885,0.0096846222877502
2025-04-30 01:03:37.013143000,8.29614306640625,0.0617908571564276,0.0196308493614196,0.073514953697671,-0.0024549947120249,-0.1690893083908689,0.9490535453780092,-0.3356898201828099,left,0.0046009421348571,-0.5350763654531517,0.5209343105908483,-8.419871816718578,-0.2555417182485089,-0.0188087038695812,-0.0008472129702568,5.000477214241028,0.0028294324874877
2025-04-30 01:03:37.053143300,8.336143310546875,0.0618604053688961,-0.0049133766442537,0.0735192615979753,-0.0048324060626327,-0.1689293826815519,0.9490524352725184,-0.3353374149186817,left,0.0023403763771057,-0.5352902755419113,0.5214537678876892,-8.41876765486896,-0.255650577301837,0.007530940696597,-0.0003502890467643,5.00228163331449,-0.0013370513916015
2025-04-30 01:03:37.093143300,8.376143310546874,0.0617949908387104,-0.0113014131784439,0.0734834284387259,0.0104621630162,-0.1691493722510684,0.949127338813513,-0.3358055028162585,left,1.99675559997e-05,-0.5344457639317254,0.5211637719651684,-8.423015375441313,-0.2552369939462587,0.0274841226637363,0.0004326961934566,4.99515631147921,0.0031946301460266
2025-04-30 01:03:37.133143300,8.416143310546875,0.062056880745881,0.0038907546550035,0.0735222176274087,0.007340463809669,-0.1691945369971563,0.9492667073854868,-0.3358129209499496,left,-0.0010463595390319,-0.5333162008002386,0.5237192286016419,-8.42850462050736,-0.2546769410722587,0.0303852353245019,-0.0004981569945812,4.985620421370864,0.0030187964439392
2025-04-30 01:03:37.173143000,8.45614306640625,0.0623186489253039,0.019082922488451,0.0735609963725831,0.0042187646031379,-0.1692396280525964,0.949405746933884,-0.3358206247445701,left,-0.0021137595176696,-0.5321866165176891,0.526275927347131,-8.433982759657502,-0.2541167933575404,0.0332863479852676,-0.0014291405677795,4.97607868604362,0.0028435587882995
2025-04-30 01:03:37.213143000,8.49614306640625,0.0630780852954218,0.0331847034394741,0.0736617309429862,0.007406489457935,-0.1688494146582017,0.9496852556466864,-0.3347714187816375,left,-0.0036711692810058,-0.5305280648305218,0.5332003563154488,-8.441805416107178,-0.2533015046843331,0.0473938435316085,-0.0015521496534347,4.962056005910038,-0.0020200014114379
2025-04-30 01:03:37.253143000,8.53614306640625,0.0644220500333938,0.0356557145714759,0.0739510962616333,0.0204637553542852,-0.1682900448255231,0.9500290828214736,-0.3332083881160715,left,-0.0066161751747131,-0.5285381118735137,0.5451799497814849,-8.450918112367392,-0.2522980696639391,0.0464085303246974,0.0012141801416873,4.945214176702499,-0.0053261518478393
2025-04-30 01:03:37.293143300,8.576143310546875,0.0657597268694106,0.0122638493776321,0.0743362323625189,0.0178499184548854,-0.1680188032704556,0.9502861352138277,-0.3322607052401752,left,-0.0034561157226562,-0.5268074538886122,0.5570456345442683,-8.458708620113134,-0.2513960958359045,0.0330245494842529,0.0013591758906841,4.930550860577822,-0.006028413772583
2025-04-30 01:03:37.333143300,8.616143310546875,0.0664528555518809,-0.0067409183830022,0.0745976299335435,0.0124532841145992,-0.1681094155636325,0.9503775328886088,-0.3322573579424571,left,0.0009837746620178,-0.5259134922913453,0.5632009423036128,-8.462714933145046,-0.250911936438682,0.0117933209985494,0.0020064562559127,4.922970780712366,-0.0048429667949676
2025-04-30 01:03:37.373143300,8.656143310546875,0.0663641381354238,-0.0175809245556592,0.0746314481503424,0.0016130590811371,-0.168451069907829,0.9503477028164322,-0.3329971348779001,left,0.0019763708114624,-0.5256913463008291,0.5625226777158677,-8.463856504395604,-0.2507859109673025,-0.0007271906360983,0.0011753663420677,4.921086282140016,-0.003126323223114
2025-04-30 01:03:37.413143000,8.69614306640625,0.065910648886679,-0.0153266591951251,0.074544932398241,-0.0054363529197871,-0.1687867950136851,0.9502518659486756,-0.333827432066597,left,0.0006601214408874,-0.526018605894859,0.5585782509390265,-8.46250333622098,-0.2509491352833939,-0.0109480563551187,0.0013027526438236,4.923862176594138,-0.0001370906829833
2025-04-30 01:03:37.453143000,8.73614306640625,0.0654629641958815,-0.0052986675873398,0.0744355132177998,-0.0041149021126329,-0.1689334673501327,0.9501480964796948,-0.3342625307121767,left,0.00018310546875,-0.5266587061915077,0.5545833726165816,-8.459605861213802,-0.2512757410058409,-0.0172939058393239,0.0003612376749515,4.929289462339878,-3.80873680114e-05
2025-04-30 01:03:37.493143000,8.77614306640625,0.0654629641958815,0.00472560711205,0.0744355132177998,-0.0098806032910943,-0.1689334673501327,0.9501480964796948,-0.3342625307121767,left,0.0003570318222045,-0.5266587061915077,0.5545833726165816,-8.459605861213802,-0.2512757410058409,-0.0132996197789907,-0.0002016462385654,4.929289462339878,0.0005480051040649
2025-04-30 01:03:37.533143300,8.816143310546876,0.0651048474606288,0.0131886582821607,0.0742795907662221,-0.0069716107100248,-0.1686667951397377,0.9500766945917196,-0.3338080068184869,left,-0.0005030035972595,-0.5275972585145243,0.5512525476934388,-8.455183368596433,-0.2517700851307599,-0.0131532046943902,-0.0004823878407478,4.937244220736623,0.0008206367492675
2025-04-30 01:03:37.573143300,8.856143310546875,0.0652213907978791,0.0118518322706222,0.0742869374012231,-0.0030233608558773,-0.1683493748847306,0.9500629593672226,-0.3331155772753948,left,-0.0025978088378906,-0.5281139020764529,0.5520716089913621,-8.452572309315205,-0.252032131499052,-0.0099345836788415,-0.0005448311567306,4.941621120646595,-0.0022501349449157
2025-04-30 01:03:37.613143300,8.896143310546876,0.0652213907978791,-0.0017896806821227,0.0742869374012231,0.002170389983803,-0.1683493748847306,0.9500629593672226,-0.3331155772753948,left,-0.002809464931488,-0.5281139020764529,0.5520716089913621,-8.452572309315205,-0.252032131499052,-0.0024121212773025,-0.0023865774273872,4.941621120646595,-0.0038747191429138
2025-04-30 01:03:37.653143000,8.93614306640625,0.0652213907978791,-0.0214822180569171,0.0742869374012231,0.0202173609286546,-0.1683493748847306,0.9500629593672226,-0.3331155772753948,left,-0.0067319273948669,-0.5281139020764529,0.5520716089913621,-8.452572309315205,-0.252032131499052,0.0064394450746476,-0.0006786957383155,4.941621120646595,-0.0020337104797363
2025-04-30 01:03:37.693143000,8.97614306640625,0.0657826206656258,-0.0280099082738161,0.0747297298293081,0.0224330648779869,-0.1691186208291937,0.9499334322156804,-0.3345847056471768,left,0.0027998685836791,-0.5279971474978731,0.5568532903099432,-8.452837097731232,-0.2518744257185443,0.0081423539668321,-0.005735520273447,4.940632109609246,-0.0013424158096313
2025-04-30 01:03:37.733143000,9.01614306640625,0.0666126464709448,-0.0085759293287992,0.0751573451098658,0.0188555475324392,-0.1693558309959657,0.9498817732988242,-0.3348638274851941,left,0.0056382417678833,-0.5279742039801396,0.5638767226733267,-8.45248521555364,-0.251782789252145,0.0001375367864966,-0.0052505917847156,4.94043804834187,0.0007586479187011
2025-04-30 01:03:37.773143300,9.056143310546876,0.0674426070783467,0.0108580477535724,0.075584921403787,0.0152780292555689,-0.1695930178113678,0.9498298172750076,-0.3351429978987774,left,0.0084760189056396,-0.527951389095091,0.5708993513191118,-8.452126319113374,-0.2516910751355129,-0.0078672803938388,-0.0047655552625656,4.940244571596383,0.0028595328330993
2025-04-30 01:03:37.813143300,9.096143310546877,0.0674426070783467,0.0128333605825901,0.075584921403787,-0.0007642479613423,-0.1695930178113678,0.9498298172750076,-0.3351429978987774,left,0.0057721138000488,-0.527951389095091,0.5708993513191118,-8.452126319113374,-0.2516910751355129,-0.0056160702370107,-0.0026448108255863,4.940244571596383,0.0021254420280456
2025-04-30 01:03:37.853143300,9.136143310546874,0.0681114517051084,0.0164120644330978,0.0758158731526584,0.0059404061175882,-0.1692072434831297,0.9498234872034572,-0.3341591112992344,left,0.0005733966827392,-0.528440498592123,0.5763878657327964,-8.449330550915002,-0.2519046932401225,-0.0076723052188754,-0.0006374679505825,4.944387662750482,0.002647578716278
2025-04-30 01:03:37.893143300,9.176143310546877,0.0688860898150267,0.0110037345439195,0.076100305533462,0.0104625364765524,-0.1689471283258135,0.9498382512668956,-0.3334076753311036,left,0.0005377531051635,-0.5285886346614476,0.582882451916486,-8.448151570263505,-0.2519382880766128,0.0026186509057879,-0.0013764351606369,4.94564204672575,-0.0003972053527832
2025-04-30 01:03:37.933143000,9.21614306640625,0.0688860898150267,-0.0015187999233603,0.076100305533462,0.0154705997556447,-0.1689471283258135,0.9498382512668956,-0.3334076753311036,left,-0.0029911398887634,-0.5285886346614476,0.582882451916486,-8.448151570263505,-0.2519382880766128,0.0131313521414995,-0.0004322938621044,4.94564204672575,-0.001243233680725
2025-04-30 01:03:37.973143000,9.25614306640625,0.0700388275151228,-0.0063955932855606,0.0765876468514997,0.0192391276359558,-0.16912794940238,0.9499075878774684,-0.3334732280949206,left,-0.0014634132385253,-0.5276838226937827,0.5929334884727373,-8.451934011411666,-0.2514072714001638,0.0215988866984844,-0.0014768801629543,4.937977795708179,-0.0024945735931396
2025-04-30 01:03:38.013143000,9.29614306640625,0.071176273744339,0.0131063517183065,0.0770298824883077,0.0275577157735824,-0.1692481066458928,0.950026186983676,-0.3334134501230169,left,-0.0052624344825744,-0.5264851267138311,0.6029672451006248,-8.4571520383209,-0.2507421638267187,0.0332622714340686,0.0003141909837722,4.927818220743537,-0.0009655356407165
2025-04-30 01:03:38.053143300,9.336143310546875,0.0726816175485727,0.0233553312718868,0.0775322954460997,0.0185715463012456,-0.1690709683642326,0.950233441276087,-0.3326298738321164,left,0.000881016254425,-0.5249639039691288,0.6162411161608994,-8.463701606094837,-0.2499200872201392,0.0305785965174436,-0.0010539032518863,4.914914315506816,-0.0024825632572174
2025-04-30 01:03:38.093143300,9.376143310546874,0.0735442362904812,0.0135021833702921,0.0777655703894549,0.0095492973923683,-0.1688118384513593,0.9504036018126428,-0.3318490460923447,left,-4.91142272949e-05,-0.5239106338844525,0.6239218799218536,-8.468325174242258,-0.2493753991275561,0.0150782028213143,0.0031055659055709,4.90597346868217,-0.0039249956607818
2025-04-30 01:03:38.133143300,9.416143310546875,0.0735442362904812,-3.69735062122e-05,0.0777655703894549,0.0038859108462929,-0.1688118384513593,0.9504036018126428,-0.3318490460923447,left,0.0005200505256652,-0.5239106338844525,0.6239218799218536,-8.468325174242258,-0.2493753991275561,-0.0019120490178465,0.0046173185110092,4.90597346868217,-0.0045672953128814
2025-04-30 01:03:38.173143000,9.45614306640625,0.0735442362904812,-0.0074755209498107,0.0777655703894549,-0.0041001429781317,-0.1688118384513593,0.9504036018126428,-0.3318490460923447,left,0.0025141835212707,-0.5239106338844525,0.6239218799218536,-8.468325174242258,-0.2493753991275561,-0.0187140591442585,0.0066793039441108,4.90597346868217,-0.0002487301826477
2025-04-30 01:03:38.213143000,9.49614306640625,0.0730216207709302,-0.0037255971692502,0.0776009204798884,-0.0298816002905368,-0.1688249616597535,0.9503009778331836,-0.33202077819721,left,0.005135953426361,-0.5247400127529059,0.6191990161184221,-8.46458891032338,-0.2498082611577373,-0.0118881091475486,0.0046030431985855,4.913014619365335,-0.0009580850601196
2025-04-30 01:03:38.253143000,9.53614306640625,0.071718227185779,0.0107347872108221,0.0769752589274102,-0.0413383357226848,-0.1685436853866034,0.95032963778999,-0.3317745239581824,left,0.000190258026123,-0.5250655716580614,0.6080511973014101,-8.463793376031518,-0.2500828858609498,-0.0075659388676285,0.0026880986988544,4.915777069815993,0.0008139014244079
2025-04-30 01:03:38.293143300,9.576143310546875,0.0706567330879337,0.0153242051601409,0.0763839998443855,-0.027734026312828,-0.16804163266893,0.9504177648455204,-0.3309986415359047,left,-0.0065449476242065,-0.5252013064654556,0.5990194573229178,-8.46376824159026,-0.2502666844675335,-0.0050727855414152,0.00124317035079,4.9169291624605655,-0.0039889812469482
2025-04-30 01:03:38.333143300,9.616143310546876,0.0700469859090968,0.0007246881723403,0.0761300208378465,-0.0168622806668281,-0.1679980313371123,0.9503883559064,-0.3310709952801878,left,-0.0041297674179077,-0.5255575275552811,0.5937359639620408,-8.462384093755484,-0.250484961479687,-0.0120713906362652,0.0005039423704147,4.9199511406302445,-0.0031691193580627
2025-04-30 01:03:38.373143300,9.656143310546875,0.069437097660591,-0.0138748288154602,0.0758760418313076,-0.0059905340895056,-0.1679544115826326,0.9503588647113852,-0.3311436283440147,left,-0.001715064048767,-0.525913792860828,0.5884530916556716,-8.460995269745588,-0.2507032384918396,-0.0190699957311153,-0.0002353377640247,4.922973118799924,-0.0023492276668548
2025-04-30 01:03:38.413143000,9.69614306640625,0.0687850658961043,-0.0199375003576278,0.0757073255826478,-0.0106005724519491,-0.1681744918214232,0.9502243580267384,-0.3317874004367951,left,0.0012826919555664,-0.5267163534098944,0.5826643887190148,-8.457433193349837,-0.2511161608010691,-0.0220349468290805,-0.0016155987977981,4.929778122639656,-0.002230167388916
2025-04-30 01:03:38.453143000,9.73614306640625,0.0677955751849415,-0.0256455801427364,0.0754152542140659,-0.011179500259459,-0.1685110063111632,0.950083641687532,-0.3327655885790829,left,-0.0010439157485961,-0.5274471852069819,0.5740513490766287,-8.4544088770926,-0.2515107554596804,-0.0161614995449781,-0.0004196278750896,4.935972885626554,-0.0012007355690002
2025-04-30 01:03:38.493143000,9.77614306640625,0.0666025255253553,-0.0278973225504159,0.0750410512573544,-0.025972232222557,-0.1688952389839055,0.949946361470846,-0.3338983779054553,left,0.0050662755966186,-0.5281067694204213,0.563747579868324,-8.451836980777978,-0.2518830590293714,-0.0162726771086454,-0.0038341432809829,4.941560914891958,-0.0021824240684509
2025-04-30 01:03:38.533143300,9.816143310546876,0.0652086173224826,-0.0103343296796083,0.0745508145167216,-0.0141576193273067,-0.1691238436871572,0.9498165538022516,-0.3347602459348188,left,-0.0043784379959106,-0.5289373060515031,0.551698318699561,-8.448516311922669,-0.2523642663152055,-0.0256111398339271,0.0002677030861377,4.948594466790556,0.0049604773521423
2025-04-30 01:03:38.573143300,9.856143310546877,0.0644776672841341,-0.0072269928641617,0.0743224248950273,-0.0165630131959915,-0.1691613587021603,0.9496772397606966,-0.3350481654458405,left,0.0033063888549804,-0.5300177836329643,0.545177903954871,-8.443576517432927,-0.2529299956349684,-0.0256990548223257,-0.0018928498029708,4.957739311754703,0.0001311898231506
2025-04-30 01:03:38.613143300,9.896143310546876,0.0633578681423455,-0.0092136599123477,0.073907099555056,-0.0102305058389902,-0.1693284004078062,0.949605793315745,-0.3357045282331188,left,0.0009233951568603,-0.5304543530039636,0.5355853882884607,-8.442021104684471,-0.2532083152227617,-0.0102020325139164,-0.0018441677093505,4.9614329055756325,0.0012159347534179
2025-04-30 01:03:38.653143000,9.93614306640625,0.0622373859107024,-0.0112003274261951,0.0734917306227827,-0.0038979989476501,-0.1694954003394201,0.9495339675079384,-0.3363616053949255,left,-0.0014604330062866,-0.5308901565891125,0.525991374784708,-8.44045692410767,-0.2534865365963478,0.0052949897944927,-0.0017953440546989,4.965118900611996,0.0023013353347778
2025-04-30 01:03:38.693143000,9.97614306640625,0.0615389552197882,-0.0099985180422663,0.0732275509320773,-0.0045212432742118,-0.1697366577980228,0.949535477245832,-0.3370521847082429,left,0.0006477832794189,-0.5306284631225552,0.5201760395694524,-8.44211871984005,-0.25339584237997,0.0146492458879947,-0.0025191791355609,4.962905316215753,0.001865267753601
2025-04-30 01:03:38.733143000,10.01614306640625,0.0610307459975097,-0.0002695992588996,0.0729755008639509,-0.006887374445796,-0.169834044972313,0.949615855547044,-0.3373821944558847,left,0.0015501976013183,-0.5299458460745206,0.5160921312566846,-8.445761460256577,-0.2531019065628743,0.02097156830132,-0.0039286985993385,4.95713082446754,0.0026320815086364
2025-04-30 01:03:38.773143300,10.056143310546876,0.0609166914483636,0.0109645444899797,0.0727887348398334,-0.0087746018543839,-0.1696690962445089,0.949802325937594,-0.3370468380195602,left,0.0026139616966247,-0.528774453097802,0.5154820000017062,-8.45161077080667,-0.2525660026693786,0.0384357273578643,-0.0045011565089225,4.947215579652786,-0.0036339163780212
2025-04-30 01:03:38.813143300,10.096143310546877,0.060931230691009,0.0130638107657432,0.0725996623109185,0.0013980967923998,-0.1694655624884773,0.950075700200998,-0.3365866828593763,left,-0.0043768882751464,-0.5269815831554179,0.5161441537048668,-8.460442896559835,-0.2517275441988301,0.0447499528527259,-0.0016527585685253,4.93202677834928,-0.0045499503612518
2025-04-30 01:03:38.853143300,10.136143310546874,0.0612692860249996,-0.0010217018425464,0.0726200675948667,0.005292035639286,-0.1694346173842464,0.9502786748068928,-0.3364088053468985,left,-0.0016784071922302,-0.5254489754066751,0.519466466527991,-8.467802611672878,-0.2509751977095437,0.0264305341988801,-0.0024054050445556,4.919030518653988,-0.0007786750793457
2025-04-30 01:03:38.893143300,10.176143310546877,0.061384691096906,-0.0053067337721586,0.0726420012230024,0.003713097423315,-0.1695498418894022,0.9503559651339608,-0.3366095518516797,left,0.0011393427848815,-0.5246939464900824,0.5206713853383437,-8.471447105655074,-0.250598346096278,0.0140675511211156,-0.0032002069056034,4.912623574221134,-0.0024362802505493
2025-04-30 01:03:38.933143000,10.21614306640625,0.061127707946877,-0.0039909370243549,0.0725152169225824,-0.0046005062758922,-0.1696924618141728,0.9504186543379768,-0.3369677498503268,left,0.00143963098526,-0.5240506719367841,0.5186872988490387,-8.474733287718891,-0.2503006065349998,0.0186517909169197,-0.0035530813038349,4.907162386205792,-0.0014116466045379
2025-04-30 01:03:38.973143000,10.25614306640625,0.0608436768364826,0.0037096771411597,0.0723460375642368,-0.000992085551843,-0.169761826145299,0.950512953655932,-0.3371766289615198,left,-0.0021048784255981,-0.5232681520786863,0.5165135350065305,-8.47871037465632,-0.2499442283137988,0.0194731000810861,-0.0015575662255287,4.900516956841946,0.0012122094631195
2025-04-30 01:03:39.013143000,10.29614306640625,0.0609805940670532,0.0002917821984738,0.0723566673301459,0.0056696692481637,-0.1698140932144695,0.95060728140143,-0.3372384165250965,left,-0.0006610751152038,-0.5224620774617273,0.5179149627696722,-8.482579325044155,-0.2495462181437496,0.0211363118141889,-0.0007883161306381,4.893668406121432,-0.0005193352699279
2025-04-30 01:03:39.053143300,10.336143310546875,0.0611349990852476,-0.0055358354002237,0.0723811049084772,0.0040052682161331,-0.169928495788617,0.9507071287472256,-0.337424634304756,left,-0.0001034140586853,-0.5215270131131322,0.5195040585920214,-8.48706319245994,-0.249080652920966,0.0269346982240676,-0.0002201125025749,4.88571978520453,-0.002169132232666
2025-04-30 01:03:39.093143300,10.376143310546874,0.0612321464063675,-0.0005390159785747,0.0723682772624402,0.0033150559756904,-0.1700617238682549,0.9508318273241976,-0.3376624648868123,left,0.0003296732902526,-0.5203799545390384,0.520671166142635,-8.492600952842832,-0.2485169681197649,0.0232531744986772,-0.0003182888031005,4.875962945821881,0.0008938610553741
2025-04-30 01:03:39.133143300,10.416143310546875,0.0615359982471085,0.0122275585308671,0.0724067372766075,0.0072391433641314,-0.1699698679411616,0.9509630122083904,-0.337376557109222,left,-0.0015474557876586,-0.5194669349431755,0.523525167334266,-8.496881991162896,-0.2480661865846038,0.0215715356171131,0.0014363564550876,4.868192604081332,-0.0002279877662658
2025-04-30 01:03:39.173143000,10.45614306640625,0.0619756614604155,0.0093551762402057,0.0724666842680006,-0.0029113823547959,-0.1697808347421057,0.9511318127544436,-0.3368489125718616,left,0.0017935037612915,-0.518380951850825,0.5275879963263869,-8.501922907939553,-0.2475301170535183,0.0283848624676466,0.0017721056938171,4.858944883264601,-0.0034978091716766
2025-04-30 01:03:39.213143000,10.49614306640625,0.0617576147860096,0.0001369779929518,0.0722526998582619,-0.0191284045577049,-0.1696480762009306,0.951295006535342,-0.33661166064027,left,0.0021758675575256,-0.5173304433263867,0.526048913658224,-8.507127490845322,-0.2470561767410724,0.0219246428459882,0.0011493898928165,4.849993515045941,-0.0027993619441986
2025-04-30 01:03:39.253143000,10.53614306640625,0.061004221367004,0.0011376270558685,0.0718338993962971,-0.0245078243315219,-0.1695698552715886,0.9514251675960236,-0.3366311228578535,left,0.0026513934135437,-0.5165152221609564,0.5198804541563615,-8.511465227788687,-0.2467305144364909,0.0205490998923778,-0.0007845945656299,4.843043549777567,-0.0054701566696166
2025-04-30 01:03:39.293143300,10.576143310546875,0.059919952770599,0.0041896244511008,0.0712735480356397,-0.0213591400533914,-0.1694795529135057,0.9515476686684124,-0.3367120053959118,left,-0.0051379799842834,-0.515809053448073,0.5108560937667265,-8.515435300463437,-0.246482650540046,0.0084969252347946,-0.0009929835796356,4.837020636226237,0.0014789402484893
2025-04-30 01:03:39.333143300,10.616143310546876,0.0594885790546425,0.0070502385497093,0.0710369066579569,-0.0120589584112167,-0.1692718135629147,0.951576444072216,-0.336388807500276,left,-0.0010386109352111,-0.5159185317553431,0.5071512478994206,-8.515126672905684,-0.2465828907037455,-0.0113271865993738,-0.0026216395199298,4.837954409945011,0.000252217054367
2025-04-30 01:03:39.373143300,10.656143310546875,0.0589311377489802,-0.0033512040972709,0.0708127288831944,-0.0181068275123834,-0.1691313333390278,0.9515111592848852,-0.3362495557037627,left,0.0017628073692321,-0.5166728950127965,0.5021893511757254,-8.511762164908648,-0.2469948777899502,-0.0201662499457597,-0.0031797587871551,4.844387950123847,-0.0016102790832519
2025-04-30 01:03:39.413143000,10.69614306640625,0.0580285815873439,-0.0066333981230854,0.0704706182086382,-0.0149933230131864,-0.1691310710414143,0.951427643464945,-0.3364950534875117,left,-0.0003550052642822,-0.5174102506610343,0.494299511241354,-8.50864374062717,-0.2474142416064177,-0.0086197052150964,-0.0011807642877101,4.850673898525536,-0.0014531314373016
2025-04-30 01:03:39.453143000,10.73614306640625,0.0574180122664919,-0.0018962463364005,0.0701995664615471,-0.0161624513566494,-0.1691133909493294,0.951431819188479,-0.3366176293689395,left,0.0011610984802246,-0.5174653962135298,0.4890889735188335,-8.50867705837488,-0.2474878301499633,0.0074967145919799,-0.0016563795506954,4.851143854124844,-0.0015240907669067
2025-04-30 01:03:39.493143000,10.77614306640625,0.056421867431882,0.0008294789586216,0.0697146793453338,-0.0275990962982177,-0.1690434199006441,0.9514977647531052,-0.3367244440064448,left,0.0022605657577514,-0.5171524762429951,0.4806984540533274,-8.51067495419383,-0.2474190654030928,0.004586580209434,-0.0029189512133598,4.848476680742204,0.0017719268798828
2025-04-30 01:03:39.533143300,10.816143310546876,0.055342471290255,0.0097074098885059,0.0691541310683026,-0.0268733333796262,-0.1687943392434161,0.9515833957435944,-0.336477945500844,left,-0.0006047487258911,-0.5169392045580502,0.4715689527887851,-8.51222101459205,-0.2474170671153721,0.0079831890761852,-0.0035710148513317,4.846658525404334,0.0004708468914031
2025-04-30 01:03:39.573143300,10.856143310546877,0.0546239543805716,0.0225477516651153,0.0686753069556806,-0.0215727295726537,-0.1683707517847228,0.9517487965308664,-0.3357635532766684,left,-0.0029168725013732,-0.5163110724488513,0.4656187756801024,-8.515596043983102,-0.2472026325648941,0.0203243009746074,-0.0043075755238533,4.841302551329136,-0.00222709774971
2025-04-30 01:03:39.613143300,10.896143310546876,0.0544470980502698,0.0227257031947374,0.0683780023510215,-0.0166363157331943,-0.1678014319148802,0.9519673955803698,-0.3345976507668237,left,-0.0003570914268493,-0.5154153493374254,0.4643485365485772,-8.520004508075118,-0.2468301072160037,0.0176803115755319,-0.0048665255308151,4.833661681187152,-0.0044740140438079
2025-04-30 01:03:39.653143000,10.93614306640625,0.054286917909456,0.0116147203370928,0.068165770039609,-0.0070502310991287,-0.1673848247652931,0.9520968529767876,-0.3337567500591973,left,-0.0037850737571716,-0.5149965613578442,0.4630936045840382,-8.522099434527755,-0.2466723968224602,0.0017588045448064,-0.0019150488078594,4.830087914353609,-0.0042914152145385
2025-04-30 01:03:39.693143000,10.97614306640625,0.054286917909456,0.0025770980864763,0.068165770039609,0.0071720341220498,-0.1673848247652931,0.9520968529767876,-0.3337567500591973,left,-0.0023495554924011,-0.5149965613578442,0.4630936045840382,-8.522099434527755,-0.2466723968224602,-0.0044391048140823,-0.0020835064351558,4.830087914353609,-0.0027886927127838
2025-04-30 01:03:39.733143000,11.01614306640625,0.054286917909456,0.0013001451734453,0.068165770039609,0.0096370670944452,-0.1673848247652931,0.9520968529767876,-0.3337567500591973,left,-0.0019811391830444,-0.5149965613578442,0.4630936045840382,-8.522099434527755,-0.2466723968224602,-0.0144893489778041,-0.0019562430679798,4.830087914353609,0.0039184093475341
2025-04-30 01:03:39.773143300,11.056143310546876,0.0554752668526099,0.0085235070437192,0.0687140965873814,0.0127000072970986,-0.1672231115652441,0.9520077312566316,-0.3331223564362324,left,0.0009657144546508,-0.5157902536104484,0.4730077534202486,-8.517712597745657,-0.2469734549508844,-0.0099731069058179,-0.0012737438082695,4.8368601849675175,0.0044258534908294
2025-04-30 01:03:39.813143300,11.096143310546877,0.0560994856719166,0.0089682433754205,0.0689499064531738,-0.0005053654313087,-0.1670385245967262,0.952021473730582,-0.3325740493210197,left,0.007256805896759,-0.515873893881087,0.4783019143056124,-8.517012340521813,-0.2469800503654566,0.0108050256967544,-0.0015908554196357,4.83757359393388,-0.0005854666233062
2025-04-30 01:03:39.853143300,11.136143310546874,0.0560063259454087,0.0081759924069046,0.0687850663690574,-0.0103581873700022,-0.1668403203607788,0.952176131670855,-0.3321669141898035,left,0.0024110674858093,-0.5149544131652871,0.4777572495022788,-8.521493869850039,-0.246563064331287,0.0341173112392425,-0.0008206441998481,4.829728141130507,-0.0010692775249481
2025-04-30 01:03:39.893143300,11.176143310546877,0.0556815294920053,0.0041019464842975,0.0685029274687837,-0.0053544300608336,-0.1666913792824837,0.9523698578036884,-0.3319176670931457,left,-0.0014671683311462,-0.5136872807526208,0.4753296935617923,-8.527752345722913,-0.2459938626849495,0.0257971175014972,0.0005124323070049,4.818909517735243,0.0008404552936553
2025-04-30 01:03:39.933143000,11.21614306640625,0.0556149020560291,-0.0054689073003828,0.0684183428897374,0.0040152058936655,-0.1667229497816721,0.9524687777208882,-0.3319881315205888,left,-0.0010906457901,-0.5128818750229708,0.4749770807318389,-8.53165636742413,-0.2456125344198689,0.0144977131858468,0.0012643933296203,4.812028818310797,-0.0029917061328887
2025-04-30 01:03:39.973143000,11.25614306640625,0.0554073110291478,-0.0157141759991645,0.068365738248491,0.0028885309584438,-0.1670385580620889,0.9524842576897774,-0.3326957129637145,left,0.0006438493728637,-0.5123511329188548,0.4733473606381565,-8.534303082540632,-0.2453522993194588,0.0118951359763741,0.0006018877029418,4.807492928446829,-0.0020311772823333
2025-04-30 01:03:40.013143000,11.29614306640625,0.0549678018381279,-0.0104492986574769,0.068210670327099,3.41956038028e-05,-0.1674068441903307,0.9525139404987056,-0.3335708209141395,left,-0.0011403560638427,-0.5116599527941672,0.4697788545016199,-8.53782658049166,-0.2450291813923106,0.0184157583862543,0.0008461736142635,4.801583996663988,0.0005553066730499
2025-04-30 01:03:40.053143300,11.336143310546875,0.0548166399256682,0.0036828210577368,0.0680904582435634,-0.009373465552926,-0.1674644770336793,0.9526158342548976,-0.3337164335267338,left,0.0021219849586486,-0.5108008443249706,0.4687140748143196,-8.542012926265597,-0.2446267110134306,0.0198278371244668,-0.0016349032521247,4.794236264249682,-0.0001419186592102
2025-04-30 01:03:40.093143300,11.376143310546874,0.0549321037358318,0.0232617519795894,0.0680083407592102,-0.0002147182822227,-0.1671671541502612,0.9527595208891698,-0.3330506943779013,left,-0.0036947727203369,-0.5100753626017308,0.4698912288349121,-8.545429456710815,-0.2442932796895316,0.0122195500880479,0.0013265125453472,4.788028641781211,0.0012604296207427
2025-04-30 01:03:40.133143300,11.416143310546875,0.0555377174128825,0.015908533707261,0.0681242092456704,-0.0030624801293015,-0.16670234174638,0.9528895384410214,-0.3319127236933987,left,0.0007531642913818,-0.5096350824494625,0.475183343893662,-8.54724731978774,-0.2440712094170118,0.0072883297689259,-0.0003532581031322,4.784260229158401,-0.0050888955593109
2025-04-30 01:03:40.173143000,11.45614306640625,0.0555948180824379,0.0037199594080448,0.0680699859408143,-0.0040565412491559,-0.1664773161821625,0.9529641670406768,-0.3314214134298465,left,-0.0015909671783447,-0.5093540074017295,0.4757460923429578,-8.548563078561425,-0.2439489109386597,0.0086413230746984,0.0013436079025268,4.781853752538561,-0.006541222333908
2025-04-30 01:03:40.213143000,11.49614306640625,0.0555948180824379,0.0011878472287207,0.0680699859408143,-0.0021712617017328,-0.1664773161821625,0.9529641670406768,-0.3314214134298465,left,-0.001646339893341,-0.5093540074017295,0.4757460923429578,-8.548563078561425,-0.2439489109386597,0.0081930812448263,-0.0001130998134613,4.781853752538561,-0.0043486058712005
2025-04-30 01:03:40.253143000,11.53614306640625,0.0555948180824379,-0.0005582948215305,0.0680699859408143,-0.0082996031269431,-0.1664773161821625,0.9529641670406768,-0.3314214134298465,left,0.0006781220436096,-0.5093540074017295,0.4757460923429578,-8.548563078561425,-0.2439489109386597,-0.0119407754391431,-0.000450812280178,4.781853752538561,-0.0011441707611083
2025-04-30 01:03:40.293143300,11.576143310546875,0.0547260788008205,-0.0069527463056147,0.0677130814079382,-0.0133002679795026,-0.1664289545288563,0.9529146606745073,-0.3315510932029694,left,0.0006778240203857,-0.509893442859525,0.4681782874371856,-8.546396255916356,-0.2442744515703363,-0.0215264987200498,-0.0009422227740287,4.78647176772803,-0.0025248229503631
2025-04-30 01:03:40.333143300,11.616143310546876,0.0537619366635445,-0.0165924225002527,0.0673749365887012,-0.0191974230110645,-0.166495699532914,0.9527945850804692,-0.3319541707768302,left,0.0023671984672546,-0.5108336619417168,0.4596960711002349,-8.542345519220829,-0.2447901068853004,-0.0208130739629268,-0.0022738203406333,4.794517127017676,-0.0035673677921295
2025-04-30 01:03:40.373143300,11.656143310546875,0.0527432832910039,-0.0103044807910919,0.0670204807488251,-0.0082059511914849,-0.1666413877119559,0.952681793158444,-0.3325353214946372,left,-0.0027276873588562,-0.5116112540925475,0.4507974559821188,-8.539083887076377,-0.2452267153982347,-0.0137487556785345,-0.0022710710763931,4.801167817078531,0.0007112026214599
2025-04-30 01:03:40.413143000,11.69614306640625,0.0523581860841946,-0.0047757402062416,0.0669179308870505,-0.0038583683781325,-0.1667301106047715,0.9525964013658098,-0.3328310766807275,left,-0.0015486478805541,-0.5121921785297275,0.4473630245540291,-8.536470489707588,-0.2455262351462549,-0.0130752315744757,-0.0038069225847721,4.806134207314253,0.0031644105911254
2025-04-30 01:03:40.453143000,11.73614306640625,0.0523581860841946,0.0010432726703584,0.0669179308870505,-0.0003330186009407,-0.1667301106047715,0.9525964013658098,-0.3328310766807275,left,-0.0009989738464355,-0.5121921785297275,0.4473630245540291,-8.536470489707588,-0.2455262351462549,-0.0046206256374716,-0.0025055259466171,4.806134207314253,0.0022427439689636
2025-04-30 01:03:40.493143000,11.77614306640625,0.0523581860841946,0.0045254053547978,0.0669179308870505,-0.0004621553234755,-0.1667301106047715,0.9525964013658098,-0.3328310766807275,left,0.0017300248146057,-0.5121921785297275,0.4473630245540291,-8.536470489707588,-0.2455262351462549,0.0194552838802337,-0.0028314404189586,4.806134207314253,-0.0020142197608947
2025-04-30 01:03:40.533143300,11.816143310546876,0.0522674643624425,0.0029152678325772,0.0667777600478961,-0.0020277318544685,-0.1666177410410835,0.9527322238323388,-0.332602531624137,left,-0.0016342401504516,-0.5112946337425027,0.4468137566408142,-8.540815240913629,-0.2451129452742062,0.0208847466856241,-0.000778391957283,4.7984600194245575,-0.0012357532978057
2025-04-30 01:03:40.573143300,11.856143310546877,0.0520661747607855,-0.0008577024564146,0.0666395606299874,-0.0056992615573108,-0.166648252402523,0.952821015124502,-0.3327056607268703,left,-0.0008429884910583,-0.5105796759560459,0.4452730300048366,-8.544328801992535,-0.2447848723934112,0.0157069191336631,-0.0014937967061996,4.792344166892767,-0.0012695789337158
2025-04-30 01:03:40.613143300,11.896143310546876,0.0518650530833673,-0.0046306727454066,0.0665013394159284,-0.0093707907944917,-0.1666786765793603,0.9529096099882604,-0.332808413142747,left,-5.21540641784e-05,-0.5098646126751606,0.4437320841731503,-8.547838271418213,-0.2444567504055123,0.0105290934443473,-0.0022092089056968,4.786224807229638,-0.0013030171394348
2025-04-30 01:03:40.653143000,11.93614306640625,0.0518650530833673,0.0067828465253114,0.0665013394159284,-0.0164743661880493,-0.1666786765793603,0.9529096099882604,-0.332808413142747,left,0.0009939074516296,-0.5098646126751606,0.4437320841731503,-8.547838271418213,-0.2444567504055123,0.0005417484790086,-0.0052680820226669,4.786224807229638,-0.0002701878547668
2025-04-30 01:03:40.693143000,11.97614306640625,0.0512016792818606,0.0202427580952644,0.0660790515131795,-0.0162774976342916,-0.1662636199394424,0.953023041790894,-0.3321027616111086,left,-0.0024855732917785,-0.5096045566418378,0.4381252406094223,-8.54937322590053,-0.2444111960895469,0.0004232311621308,-0.0057815685868263,4.783998947873712,-0.0011453330516815
2025-04-30 01:03:40.733143000,12.01614306640625,0.0511971917145942,0.0244050025939941,0.065934402918879,-0.0074155163019895,-0.1657301804569218,0.9531254977461312,-0.3309831729647571,left,-0.0039383769035339,-0.5095303334624858,0.4381050746042281,-8.54972978425324,-0.2444130674700571,-0.0060949455946683,-0.0048440918326377,4.783363280318677,-0.0022957324981689
2025-04-30 01:03:40.773143300,12.056143310546876,0.0515367452743166,0.0101945828646421,0.0659962458161428,0.0037792176008224,-0.1653262571096969,0.953168496625145,-0.3300517756736036,left,-0.0057141780853271,-0.509711953576828,0.4409633866447955,-8.548712716165184,-0.2445024215249302,-0.0070651723071932,-0.0018409788608551,4.784918108545243,-0.0054807662963867
2025-04-30 01:03:40.813143300,12.096143310546877,0.052057532295901,0.0022946596145629,0.0662282971803227,0.0080281784757971,-0.1652549023389154,0.9531445693138634,-0.3297725966576855,left,0.0016327500343322,-0.5099481768051414,0.4453565435698255,-8.547353118249774,-0.2445814261886473,-0.0027309618890285,-0.0017306357622146,4.7869399697616695,-0.0053464472293853
2025-04-30 01:03:40.853143300,12.136143310546874,0.052057532295901,0.0148772615939378,0.0662282971803227,0.0027492032386362,-0.1652549023389154,0.9531445693138634,-0.3297725966576855,left,-0.0028332471847534,-0.5099481768051414,0.4453565435698255,-8.547353118249774,-0.2445814261886473,0.0020311931148171,-0.0008092299103736,4.7869399697616695,0.0014983117580413
2025-04-30 01:03:40.893143300,12.176143310546877,0.0529335009379247,0.0364987589418888,0.0664878632396663,0.0011229489464312,-0.1646926351974117,0.9532085631046964,-0.3283710261487199,left,0.0003283023834228,-0.510125884926933,0.4527985666714608,-8.546109840190411,-0.2446405769073645,-0.0140091935172677,-6.3844025135e-05,4.788460895718634,0.0018664598464965
2025-04-30 01:03:40.933143000,12.21614306640625,0.0537056361042168,0.0323550999164581,0.0666975863214398,-0.0063353544101119,-0.1639938724461326,0.9532447332828268,-0.3267163147048422,left,0.0010563731193542,-0.5107115642390117,0.4592465737670659,-8.54295634459555,-0.2449119988781691,-0.0159040298312902,0.0018784329295158,4.793472586400807,-0.0032733976840972
2025-04-30 01:03:40.973143000,12.25614306640625,0.0538275652760841,0.0264053307473659,0.0666346004690719,-0.0158865321427583,-0.1633955156741113,0.9532852805613402,-0.3254372111449392,left,0.0004754662513732,-0.5111855000334253,0.4601659171016886,-8.540630531996488,-0.2451710741578317,-0.0127275846898555,0.0015380680561065,4.797526537966728,-0.0005089044570922
2025-04-30 01:03:41.013143300,12.296143310546874,0.0536955583139797,0.0252614933997392,0.0664756040307021,-0.01590664871037,-0.1628322347450046,0.9533086859215216,-0.3242987479720802,left,0.0010486245155334,-0.5117677783907784,0.4588884810443967,-8.537900230249763,-0.2454978994557583,-0.0160328689962625,0.0004104860126972,4.802506079944968,-0.0001366138458251
2025-04-30 01:03:41.053143300,12.336143310546875,0.0535943777571787,0.0100460583344101,0.0663445347089577,-0.0136031880974769,-0.162360481663274,0.9533307688012422,-0.32334245470138,left,-0.000611126422882,-0.5122314198584512,0.4579052786933258,-8.53572230168879,-0.2457594171042734,-0.0071889050304889,-0.0014354847371578,4.806469722878933,-0.0032736957073211
2025-04-30 01:03:41.093143300,12.376143310546874,0.0532911682630785,-0.0043974248692393,0.0661829925004195,-0.0051672961562871,-0.1622415057090393,0.953347999934048,-0.3231719160789753,left,-0.0007562041282653,-0.512284618227159,0.4553035352297127,-8.535605397310853,-0.2458150656760195,0.0040612686425447,-0.0008919276297092,4.8069244809091085,-0.0005694031715393
2025-04-30 01:03:41.133143300,12.416143310546875,0.0529224448471605,-0.0118320602923631,0.0660433535138428,0.0020430353470146,-0.1624672735132556,0.9533706007781454,-0.323733449582538,left,-0.0012478828430175,-0.5118437377271673,0.4522682957196608,-8.537888539811968,-0.245615797602093,0.0179076455533504,-0.0010528154671192,4.80315548376441,-0.0008932948112487
2025-04-30 01:03:41.173143000,12.45614306640625,0.0529187869640249,-0.0022225547581911,0.0660198697918514,0.0035412767902016,-0.1626661191094348,0.9534587053200966,-0.3241359814489966,left,0.0014817118644714,-0.5108911029488702,0.4524788697304204,-8.5424548248142,-0.2451476731753283,0.0203989036381244,-0.0048919841647148,4.795008417665958,0.0011842250823974
2025-04-30 01:03:41.213143000,12.49614306640625,0.0528820323434596,0.0088455900549888,0.065967454213072,0.0002475196961313,-0.1626339178279864,0.9535110519507712,-0.3240720403161939,left,-0.0047361254692077,-0.5105292194572413,0.452256605281867,-8.544204298830032,-0.2449798352425418,-0.0120697394013404,-0.0049602463841438,4.791912497477233,0.0061721801757812
2025-04-30 01:03:41.253143000,12.53614306640625,0.0542566563331682,0.0336759686470031,0.0666285503857994,0.0484942123293876,-0.1622516081078771,0.953311918779202,-0.3229468822965521,left,-0.013614535331726,-0.5124592106059638,0.4634988243840635,-8.53432354080677,-0.2458276472611276,-0.0936218127608299,-0.0047043897211551,4.808416765293479,0.0074059069156646
2025-04-30 01:03:41.293143300,12.576143310546875,0.0584733099676298,0.0406509190797805,0.0687370720758801,0.0992406755685806,-0.1616835800788909,0.9527045463520196,-0.3207358202513625,left,-0.010726511478424,-0.5174961215778594,0.4980591560358181,-8.5080071962893,-0.2479668848223663,-0.142090618610382,-0.004961110651493,4.851405719931424,0.0018935501575469
2025-04-30 01:03:41.333143300,12.616143310546876,0.0645994640991769,0.0392509251832962,0.0717695378739345,0.1328071504831314,-0.1612823384206575,0.9519518848869898,-0.3183591618244855,left,-0.0027537941932678,-0.523137727623008,0.5483952950987965,-8.47734843865335,-0.250249176133034,-0.1217229664325714,-0.0055364556610584,4.89940928786099,-0.0059895813465118
2025-04-30 01:03:41.373143300,12.656143310546875,0.0702854956897176,0.030374389141798,0.0745149514864299,0.1144262328743934,-0.1612468766527677,0.9514454656870922,-0.3168161908303913,left,-0.0003924965858459,-0.5263771670694629,0.5954708979958668,-8.458217037203907,-0.2513930832119379,-0.0927068889141082,-0.0048815086483955,4.926902859464287,-0.0062874555587768
2025-04-30 01:03:41.413143000,12.69614306640625,0.0759880022785895,0.0214978549629449,0.0772596755412538,0.0960453227162361,-0.1612099740407355,0.9509302990823312,-0.3152490224172303,left,0.0019360184669494,-0.529608859259614,0.6424819112241268,-8.438762979671358,-0.2525346828430642,-0.0636908113956451,-0.0042199492454528,4.954278942167758,-0.006573349237442
2025-04-30 01:03:41.453143000,12.73614306640625,0.0802240407519489,0.0190107990056276,0.0793098413828432,0.0747342854738235,-0.1611898392555627,0.9505139124342938,-0.3140899568689271,left,0.0024418830871582,-0.5322073800089676,0.6771889944028109,-8.423104807290434,-0.2534780204971384,-0.064860500395298,-0.0026344135403633,4.976254042610526,-0.0048046708106994
2025-04-30 01:03:41.493143000,12.77614306640625,0.0833140706155055,0.0115285050123929,0.080869802990118,0.062835156917572,-0.1611810496487707,0.9500802998952312,-0.3132519293569238,left,-0.0027042031288146,-0.5350405053792965,0.7020373121943324,-8.40688900102675,-0.2546134916749908,-0.0748300328850746,0.0006821081042289,5.0001744319021695,-0.0046110749244689
2025-04-30 01:03:41.533143300,12.816143310546876,0.0860600361066878,0.0025436431169509,0.0823064974653221,0.0527658015489578,-0.1612292980605186,0.9496080412802144,-0.3126186855669326,left,0.0026633143424987,-0.538110049589864,0.7237970163207501,-8.389598259007931,-0.2558811576829209,-0.0806374102830886,-0.0002307891845703,5.026045955261588,-0.0052263736724853
2025-04-30 01:03:41.573143300,12.856143310546877,0.087922036169735,0.0027895709499716,0.083361552112873,0.0441406518220901,-0.1613325360467563,0.9491491222244582,-0.3123331556519765,left,0.0026337504386901,-0.5411133183954229,0.7380883573278785,-8.373162087991833,-0.2571738744867612,-0.0763688758015632,-0.0011679753661155,5.05131308298707,-0.0045573711395263
2025-04-30 01:03:41.613143300,12.896143310546876,0.0897883639123818,0.0030354987829923,0.0844163415100812,0.0355154983699321,-0.1614353121742748,0.9486873696229756,-0.3120406460494184,left,0.0025937557220458,-0.5441161855925228,0.7523506183709949,-8.35662479468882,-0.2584658408670502,-0.0721003413200378,-0.002102218568325,5.076531695395707,-0.0038833618164062
2025-04-30 01:03:41.653143000,12.93614306640625,0.0916422821896015,0.0163181591778993,0.0853990707268945,0.0391547232866287,-0.1613293609783467,0.9482733153984594,-0.3113066288695286,left,-0.0035403966903686,-0.5470104474775261,0.7664940022747964,-8.34054927367866,-0.2597254753133314,-0.0744566023349762,-0.0007171854376792,5.1007940299928185,0.000392735004425
2025-04-30 01:03:41.693143000,12.97614306640625,0.0939450306325793,0.0138127524405717,0.0865511566864578,0.0420632697641849,-0.1610914137540858,0.947845935366644,-0.3101649921780361,left,-0.0019355416297912,-0.5500776425194679,0.7842268620379269,-8.3231474725008,-0.2610488185140289,-0.0827496349811554,-0.0025930702686309,5.126460386168956,-0.0032114386558532
2025-04-30 01:03:41.733143000,13.01614306640625,0.0959627151365153,0.0014513144269585,0.0876394887827209,0.039732526987791,-0.1610396337694682,0.9473626932446428,-0.3094875129523629,left,-0.0011461973190307,-0.5533391096955967,0.7994124484710395,-8.304860705181955,-0.2624676503737946,-0.081056997179985,-0.0018579736351966,5.1536985217064615,-0.0041001439094543
2025-04-30 01:03:41.773143300,13.056143310546876,0.0974990124283851,-0.0099821770563721,0.0885625275459372,0.0368804857134819,-0.1612023169222765,0.9468749116366204,-0.3093919106071545,left,-0.0023323893547058,-0.5564231060574255,0.8106191944010556,-8.287764608952402,-0.2638148340733077,-0.0799276083707809,-0.0013023167848587,5.179404625371098,-0.0003994703292846
2025-04-30 01:03:41.813143300,13.096143310546877,0.0990366160532596,-0.0131816109642386,0.0894985049146005,0.038599532097578,-0.161522076456309,0.9464204509050164,-0.3096261868030311,left,0.0029852986335754,-0.5590556425445764,0.8220105761829763,-8.272911907735466,-0.2649318705621947,-0.060411874204874,-0.0023127496242523,5.201308414143323,-0.003661572933197
2025-04-30 01:03:41.853143300,13.136143310546874,0.1002888557911445,-0.0072137443348765,0.0902706575148389,0.0331267602741718,-0.1618193197116265,0.9460419095057924,-0.3098925729651098,left,0.0009180903434753,-0.5612028163833471,0.8312495291713625,-8.26074508460164,-0.2658390859433576,-0.0485717616975307,-0.0020098835229873,5.2191474376946685,-0.000981330871582
2025-04-30 01:03:41.893143300,13.176143310546877,0.1013562422953122,-0.0018639639019966,0.0908916764765634,0.0161120500415563,-0.1619428379995065,0.9457404577196246,-0.3098434626542546,left,-0.0001450181007385,-0.5630310286574424,0.8390995850846171,-8.250346440184115,-0.2666235182590945,-0.0457785576581954,-0.003890223801136,5.234317534297705,-0.0002312660217285
2025-04-30 01:03:41.933143000,13.21614306640625,0.102558407234548,0.0105846207588911,0.0914928892383375,0.0230189338326454,-0.1618165646105946,0.9454929212202928,-0.3092268940605307,left,-0.0030398368835449,-0.5647510709282978,0.8480942079231143,-8.240363390830158,-0.267371344287879,-0.0407877974212169,-0.000859759747982,5.24857402318716,0.0001739263534545
2025-04-30 01:03:41.973143000,13.25614306640625,0.1040550402944279,0.0070979092270135,0.0921841933789812,0.0227725654840469,-0.1616131687905599,0.945282871036736,-0.3083631490861411,left,0.0015116333961486,-0.5662440337452188,0.8596112619113176,-8.231282258751987,-0.2679990056232741,-0.0358741804957389,-0.0012361779808998,5.260935492110252,-0.0032750964164733
2025-04-30 01:03:42.013143300,13.296143310546874,0.105092927275886,-0.0001984597183763,0.0926900074351533,0.0140277370810508,-0.161571511095046,0.9451219421349136,-0.3079732362441255,left,0.0001375079154968,-0.5672626818481877,0.8675913008797913,-8.225051839929819,-0.2684168715885372,-0.0189730040729045,-0.0016270577907562,5.269363128715753,-0.004932701587677
2025-04-30 01:03:42.053143300,13.336143310546875,0.1057658280850621,0.0038667595945298,0.0930201723863752,0.0110864909365773,-0.1615860151975766,0.9450304976849538,-0.3078088524112022,left,-0.0014193058013916,-0.5677801860634969,0.8728377501659095,-8.221753382906318,-0.2686158491599067,-0.0136774256825447,-0.0019660294055938,5.2736424134701485,-0.0027649998664855
2025-04-30 01:03:42.093143300,13.376143310546874,0.1066270459709172,0.0066591426730155,0.0934000132816615,0.0143334344029426,-0.1614528081856651,0.9449377125326642,-0.3072766774608922,left,-0.0023315548896789,-0.5684528334870786,0.8795404626749456,-8.217470006498694,-0.2688904500238525,-0.0247395988553762,-0.0013225004076957,5.279202970206737,-0.0017535686492919
2025-04-30 01:03:42.133143300,13.416143310546875,0.1074984314548809,-0.0027798088267445,0.0938316251558546,0.0181852076202631,-0.1613776192686652,0.9447661101340378,-0.3068596740464836,left,-0.0019643306732177,-0.5696076621811714,0.8860459721114486,-8.21063343847692,-0.269387864148693,-0.0340286418795585,-0.0003901720046997,5.288743536490202,-0.0047737956047058
2025-04-30 01:03:42.173143000,13.45614306640625,0.1081067294812524,-0.0171606820076704,0.0942672037356134,0.0195245817303657,-0.1616331456943731,0.9444907659761828,-0.3072138502857096,left,-0.0002608299255371,-0.5711357938583065,0.8901672898251562,-8.202048565483093,-0.2700473818485311,-0.0344357416033744,0.0024212449789047,5.301356934347749,-0.0035704970359802
2025-04-30 01:03:42.213143000,13.49614306640625,0.1081399425564395,-0.0234093219041824,0.0945054623239707,0.0091775367036461,-0.1621045841865251,0.9442134948060396,-0.3081910232424084,left,0.0008430480957031,-0.5725093150915583,0.8896529836274683,-8.194772437000275,-0.270650339073072,-0.0264259222894907,0.0010846033692359,5.312683799526095,-0.0023152828216552
2025-04-30 01:03:42.253143000,13.53614306640625,0.1078416638631233,-0.0094856275245547,0.0945394006413623,-0.0002474356442689,-0.1624792653598667,0.9440339534805297,-0.309063241975172,left,0.0004577040672302,-0.5733663301080059,0.8867182453498244,-8.190507765293122,-0.2710398899145173,-0.0150731215253472,-0.0004050284624099,5.319745992997288,0.0025503039360046
2025-04-30 01:03:42.293143300,13.576143310546875,0.1076670880891421,0.0065733464434742,0.0945040592504701,-0.0085784252732992,-0.1624726014126656,0.9439467316966014,-0.309094110771791,left,0.0004995465278625,-0.5740141976115906,0.8849178448643534,-8.187234442710876,-0.2713599141176132,-0.0154727566987276,-0.0009204894304275,5.325082093328237,0.0007759928703308
2025-04-30 01:03:42.333143300,13.616143310546876,0.1074379372024108,0.003486365545541,0.0943913465758043,-0.0090386373922228,-0.1622583634408981,0.9438832381344572,-0.3087002762397073,left,-0.004123568534851,-0.5747536510584471,0.882619212533161,-8.183519806101918,-0.271747843634438,-0.018313281238079,-0.0010801032185554,5.331170473331213,-0.0021553039550781
2025-04-30 01:03:42.373143300,13.656143310546875,0.1073245226170291,-0.003504432272166,0.0943686196145141,-0.0031037684530019,-0.1621541764361444,0.9437796343381376,-0.3085054684355811,left,0.0007489323616027,-0.5756208721814906,0.8811954633403569,-8.17902015659511,-0.2721775119446211,-0.0215189922600984,-0.003819465637207,5.338306316560507,-0.0059846639633178
