time,seconds_elapsed,roll,rotationRateZ,quaternionY,rotationRateY,quaternionZ,quaternionW,yaw,devicelocation,accelerationZ,pitch,gravityX,gravityZ,quaternionX,rotationRateX,accelerationX,gravityY,accelerationY
2025-04-30 01:16:38.772999200,0.464999267578125,0.7802579123783743,-0.0057805678807199,0.3243904622433005,-0.0121897738426923,-6.613584232945329e-17,0.8897183159014554,0.2567751073084894,left,-0.0536927580833435,-0.6084090748430266,5.660714562386274,-5.719211175018549,-0.3212043220915999,-0.0203997604548931,-0.615684449672699,5.605115424761176,0.1952047348022461
2025-04-30 01:16:38.812999200,0.504999267578125,0.1373094886194533,-0.0001429454423487,0.0950975218205295,0.0015039863064885,-0.1005089917006069,0.9028211978301588,-0.1591433833790199,left,0.0161500573158264,-0.8545526417666801,0.8813074723474681,-6.378014106446504,-0.4071464901296919,-0.0331124141812324,-0.1275373548269271,7.396932790803909,0.0166999101638793
2025-04-30 01:16:38.852999200,0.544999267578125,0.0186017863750393,-0.0125663299113512,0.0601715204540169,0.0044228914193809,-0.1151591914957475,0.899179864954297,-0.246094791364282,left,0.008313775062561,-0.8714944383346157,0.117414766011713,-6.311287425607443,-0.4178436143128961,-0.0323941707611084,-0.0486911125481128,7.504947759842872,0.0059152841567993
2025-04-30 01:16:38.892999200,0.584999267578125,-0.0386459030472267,-0.0244032070040702,0.0440347092606777,0.0093301739543676,-0.1222362618095414,0.8964382562173556,-0.2892266630922947,left,0.0049062967300415,-0.8794660018994639,-0.2415676811720244,-6.247685014268756,-0.4236952460230477,-0.0298614688217639,-0.0127204731106758,7.555028426307439,0.0039151906967163
2025-04-30 01:16:38.932999200,0.624999267578125,-0.0522946620129173,-0.0058433357626199,0.0403651102855963,0.0122768376022577,-0.1240845777519524,0.8956071978622064,-0.3000192130823561,left,0.0034278631210327,-0.8816385144861212,-0.3259570243485272,-6.227401520174741,-0.4252782088430129,-0.019448272883892,-0.003085721284151,7.568594010323285,0.0049024820327758
2025-04-30 01:16:38.972999200,0.664999267578125,-0.0558678827620107,0.0371027961373329,0.0395440216225995,0.0273854620754718,-0.1246210939044679,0.8951300222180495,-0.3030853461009719,left,0.0049377083778381,-0.8833491193731297,-0.3474832850452512,-6.213260766619444,-0.4262019987134119,-0.0168353244662284,-0.0035106129944324,7.579249844372272,0.0097641944885253
2025-04-30 01:16:39.012999400,0.70499951171875,-0.0528745641963462,0.0932124257087707,0.0404293113686583,0.0468534603714942,-0.1240102875109434,0.8949228545602715,-0.3004413077820246,left,0.0029598474502563,-0.8848360857185248,-0.3282874765900895,-6.203011175283789,-0.4267316822867993,-0.0285417325794696,-0.0033668875694274,7.588494642579555,0.0098031759262084
2025-04-30 01:16:39.052999200,0.744999267578125,-0.0530530645372496,-0.0165491923689842,0.0406480277104679,0.0061089247465133,-0.124137768029211,0.8944001637908485,-0.3010402357099309,left,0.0049004554748535,-0.887165209594314,-0.3284565860792994,-6.185286718022823,-0.4277685182565334,-0.017395120114088,-0.0028886348009109,7.602942270126938,0.0054750442504882
2025-04-30 01:16:39.092999200,0.784999267578125,-0.0532342993513595,-0.126310795545578,0.0408666745299245,-0.0346356071531772,-0.1242650443391608,0.8938761818381401,-0.3016414742082681,left,0.0068375468254089,-0.8894942667676152,-0.3286344633968547,-6.167527773970365,-0.4288047667665063,-0.0062485095113515,-0.0024095028638839,7.617347812098264,0.0011511445045471
2025-04-30 01:16:39.132999200,0.824999267578125,-0.0591858334203109,-0.1414544731378555,0.0394480061505889,-0.0672310590744018,-0.1255692595591199,0.8936295284138438,-0.3074188288488321,left,0.0061375498771667,-0.8895193772019369,-0.3653233680425211,-6.165271519476175,-0.4290716733210085,-0.0034087060485035,-0.0003886148333549,7.617502710399031,0.0095808506011962
2025-04-30 01:16:39.172999200,0.864999267578125,-0.068536408610574,-0.1349219530820846,0.0370327754458728,-0.0839112848043441,-0.1273268571536824,0.8933755746480244,-0.3157953879339624,left,0.001935064792633,-0.889058846538197,-0.4231956382313743,-6.165086226037144,-0.4292978888733523,0.0007935028988867,0.0011434331536293,7.614657842361926,0.0044623017311096
2025-04-30 01:16:39.212999200,0.904999267578125,-0.0741352321280227,-0.1007914319634437,0.0356444988455704,-0.0625792071223259,-0.1282775621761396,0.8930082825729702,-0.3206999600934028,left,0.0014499425888061,-0.8898005103553243,-0.4572875851863995,-6.156985921689867,-0.4298960082642695,-0.0137666296213865,-0.0008519068360328,7.6192387404114,0.0016489028930664
2025-04-30 01:16:39.252999200,0.944999267578125,-0.0795549256387477,-0.0745124891400337,0.0342794757178411,-0.0511463060975074,-0.1290881129526259,0.8926086821752522,-0.3252392040576547,left,-0.0052085518836975,-0.8907656215612296,-0.4900650154767558,-6.147083536356687,-0.4305936525328801,-0.0146725755184888,-0.0004742927849292,7.625193849423527,0.0011284351348876
2025-04-30 01:16:39.292999200,0.984999267578125,-0.0834005788638917,-0.0286284536123275,0.0332796153531837,-0.0263827666640281,-0.1296413506009528,0.892373804798655,-0.3283898468137997,left,-0.0044015049934387,-0.8912243230585325,-0.5134095045765862,-6.141667356526852,-0.430992559334044,-0.0158763229846954,-0.005280029028654,7.628021766325831,0.0041785240173339
2025-04-30 01:16:39.332999200,1.024999267578125,-0.0850176560448954,-0.0106591992080211,0.0328033345192671,-0.0141923166811466,-0.129783879377254,0.8923131407447399,-0.3294993270840679,left,-0.0045710802078247,-0.8912978650564405,-0.5232927102852613,-6.140270349210501,-0.4311117149072288,-0.0052453335374593,-0.0055679194629192,7.628474770790338,0.005117118358612
2025-04-30 01:16:39.372999200,1.064999267578125,-0.0857897346312685,-0.0042201760224998,0.0325762136162337,0.0026114676147699,-0.1298983606033892,0.8923213971503182,-0.3301084943315218,left,-0.0019457340240478,-0.8911300125504248,-0.5281430729258805,-6.141140117782354,-0.4310774703500812,-0.000532534904778,-0.0048236399888992,7.627440167045592,0.0015044808387756
2025-04-30 01:16:39.412999200,1.104999267578125,-0.0865373071127774,-0.0181145071983337,0.0324234574316486,0.0033769444562494,-0.130157786343168,0.892316588407294,-0.331026159121776,left,-0.0001977682113647,-0.8909261513913849,-0.5328683113494888,-6.142293379470706,-0.4310207969358351,0.0033675597514957,-0.0063596852123737,7.626183444982766,0.0007621049880981
2025-04-30 01:16:39.452999200,1.144999267578125,-0.0878418024137382,-0.0303249768912792,0.0322070083476451,0.0084930285811424,-0.1306984581398119,0.8922792790359944,-0.3328330516130411,left,-0.0023801326751708,-0.8906415884279063,-0.5410707974296063,-6.143754099673032,-0.4309506095461108,0.0022204073611646,-0.0066333748400211,7.624428710269927,-0.003994882106781
2025-04-30 01:16:39.492999200,1.184999267578125,-0.0900814890489591,-0.0419708304107189,0.0319369073539849,0.0221201274544,-0.1317236987989504,0.8920922408960423,-0.3362138728488642,left,-0.003333032131195,-0.8906466109512228,-0.5548259857334196,-6.142488025259971,-0.4310456023339067,-0.0151170101016759,-0.0017894059419631,7.624459689930081,-0.0012007355690002
2025-04-30 01:16:39.532999200,1.224999267578125,-0.0915277968137055,-0.0470942743122577,0.0319138064823419,0.0266374573111534,-0.1326096112929594,0.8918550137420921,-0.3389476461450303,left,-0.0001190304756164,-0.8910285422402351,-0.5634431535616516,-6.13877923386991,-0.4312665996371486,-0.0225487668067216,0.0016385875642299,7.6268147286236285,-0.0003811717033386
2025-04-30 01:16:39.572999200,1.264999267578125,-0.0933042131660699,-0.0247133877128362,0.0318392592062839,0.0132948011159896,-0.1336438233341937,0.8916108164760371,-0.3421623056382048,left,0.0023605823516845,-0.8913085956735479,-0.5741481970472261,-6.135640935844183,-0.4314575781982118,-0.0104534905403852,0.0015014931559562,7.628540821763873,0.0041396617889404
2025-04-30 01:16:39.612999200,1.304999267578125,-0.0930353702101331,0.0082852635532617,0.0320138537139243,0.0101380627602338,-0.1337902817801858,0.8915706845909473,-0.3423742104726541,left,0.001635193824768,-0.8914130968475497,-0.572424661190249,-6.135002637940645,-0.4314823938334021,-0.0052993004210293,0.0007453858852386,7.629184964886307,0.0058639645576477
2025-04-30 01:16:39.652999200,1.344999267578125,-0.091727957968949,0.0323150679469108,0.0322966096612009,-0.0047334851697087,-0.1333353288688028,0.8915520663870835,-0.3407845175308686,left,0.0018343329429626,-0.891910376366051,-0.564055659436807,-6.131967215767502,-0.4316406262493949,-0.0097597371786832,-0.0026013441383838,7.632247859588265,0.0040375590324401
2025-04-30 01:16:39.692999200,1.384999267578125,-0.0897827401077988,0.0401516631245613,0.0326628759222354,0.0003589079715311,-0.1324828603495343,0.8914882600321138,-0.3380595010447542,left,-0.0010492801666259,-0.892931272441802,-0.5514277215972543,-6.125289637699723,-0.4320072830174857,-0.0206200443208217,-0.0047730281949043,7.638530300858616,0.0015364289283752
2025-04-30 01:16:39.732999200,1.424999267578125,-0.0882038723782828,0.0335316359996795,0.0331584556565109,0.0126626919955015,-0.1320688634897894,0.8912674984472363,-0.3365419391710761,left,-0.0006314516067504,-0.8943402098853993,-0.5408073607204482,-6.115425246289372,-0.4325512836961448,-0.0257759224623441,-0.0038235522806644,7.647188239088654,0.0031424760818481
2025-04-30 01:16:39.772999200,1.464999267578125,-0.0866188320769795,0.0269116070121526,0.0336539966682583,0.0249664783477783,-0.1316547557121901,0.8910461573253227,-0.3350181897172025,left,-0.0002152323722839,-0.8957478142856264,-0.5301817391466349,-6.105545072788,-0.4330949699471726,-0.0309318006038665,-0.0028745867311954,7.6558222119212145,0.0047509670257568
2025-04-30 01:16:39.812999200,1.504999267578125,-0.0845588016178961,0.0234100483357906,0.0343926768123347,0.0277203489094972,-0.1314775688820166,0.8908584724828483,-0.3337570413656053,left,0.0015803575515747,-0.8968684266120672,-0.5168780940026044,-6.098071960428356,-0.4334766674047998,-0.0132558904588222,-0.0042357295751571,7.662685083428025,0.0051007866859436
2025-04-30 01:16:39.852999200,1.544999267578125,-0.0828184855419189,0.0410792306065559,0.0348879932147926,0.0227560102939605,-0.1312104461348442,0.8908564723758943,-0.3323479028069211,left,-0.001072347164154,-0.8971742715035432,-0.5060708687841892,-6.096626437795162,-0.433522104445,-0.0032660821452736,-0.0049100257456302,7.664556137996912,0.0060955882072448
2025-04-30 01:16:39.892999200,1.584999267578125,-0.079837406280482,0.0460754707455635,0.0356127598547763,0.0224104858934879,-0.1305768718598184,0.8909527577553946,-0.3294966401236913,left,-0.0042714476585388,-0.8973531218828679,-0.4877847225198521,-6.096740419563651,-0.4334564484280294,0.0034776972606778,-0.0021817870438098,7.665650362974405,-0.0008399486541748
2025-04-30 01:16:39.932999200,1.624999267578125,-0.0763766705564399,0.0391472838819026,0.0364707512252169,0.0256508793681859,-0.1299456919830636,0.8911171579806568,-0.326383456198267,left,0.0029827952384948,-0.8972400234213035,-0.4667488756885752,-6.0992573708206415,-0.433237009546868,0.0028574005700647,0.0011597983539104,7.664958873578906,-0.002423346042633
2025-04-30 01:16:39.972999200,1.664999267578125,-0.0741015160371912,0.0302538834512233,0.0370006452252266,0.0004859827458858,-0.1293952275437291,0.8911790848425278,-0.3240675682485863,left,0.0051456689834594,-0.8974600461787134,-0.4527460692992434,-6.098621995526552,-0.4332294839865029,-0.0031626103445887,0.0068417452275753,7.666304442968964,-0.0049975514411926
2025-04-30 01:16:40.012999400,1.70499951171875,-0.073008847019336,0.0335767939686775,0.0371362839847234,-0.0109191183000803,-0.1289277479642176,0.8912795413997479,-0.3224775111262525,left,0.0042452812194824,-0.8973742382257811,-0.4461299390951171,-6.099768242952227,-0.4331504206314521,-0.0012767296284437,0.0089016854763031,7.665779542312025,-0.0011149048805236
2025-04-30 01:16:40.052999200,1.744999267578125,-0.072144703493953,0.029307410120964,0.0370310764124806,-0.034659493714571,-0.1280259850410323,0.8913388858826736,-0.3200765593620109,left,0.0054079294204711,-0.8977472822637904,-0.4406525305973365,-6.097298637968302,-0.4333047416575192,-0.0083039384335279,0.0066576153039932,7.668060346725583,-0.0039865970611572
2025-04-30 01:16:40.092999200,1.784999267578125,-0.0708205216234971,0.0384502485394477,0.0370114665335312,-0.0184496380388736,-0.1268594937459005,0.8913168142234522,-0.3169210970436618,left,-0.00496506690979,-0.8986862227406228,-0.4320686074515804,-6.090692956092953,-0.4336948729424438,-0.019464623183012,0.002407930791378,7.673797429072857,-0.0005567669868469
2025-04-30 01:16:40.132999200,1.824999267578125,-0.0699624104048795,0.0118152145296335,0.0371829457028081,-0.002181377261877,-0.1264314074435541,0.8912002357104651,-0.3156386655178183,left,-0.0050786733627319,-0.8995440279638385,-0.4263816113237291,-6.084492347887158,-0.4340445480865915,-0.0194691978394985,0.0014903247356414,7.679031822594999,-0.0039860010147094
2025-04-30 01:16:40.172999200,1.864999267578125,-0.0695222277212231,-0.0145158097147941,0.0374517289905877,0.0193865578621625,-0.1265660178089179,0.8910717416417211,-0.3157846971733498,left,-0.0073404908180236,-0.9000676521922878,-0.423423930561915,-6.080667821162939,-0.4342460278727744,-0.0077558048069477,0.0016382113099098,7.682225065678358,-0.0004193782806396
2025-04-30 01:16:40.212999200,1.904999267578125,-0.0698457073870537,-0.0230010673403739,0.0375677030665123,0.0142925083637237,-0.1270679562779029,0.8910363098330758,-0.3170485440274417,left,-0.0032153129577636,-0.8998850801127278,-0.4254886810719966,-6.0819286348789925,-0.434161974135002,0.003113760612905,-0.0013571754097938,7.681111551478505,1.11460685729e-05
2025-04-30 01:16:40.252999200,1.944999267578125,-0.0707151933413781,-0.02557273209095,0.0374307416577191,0.0001585511490702,-0.1274510783811936,0.8910309562656692,-0.3183014372889448,left,0.0003196597099304,-0.8996115623045503,-0.430925136504881,-6.083652389931679,-0.4340725827632847,-0.004893297329545,-0.0055569410324096,7.679443910527229,0.0012556910514831
2025-04-30 01:16:40.292999200,1.984999267578125,-0.0722381750070767,-0.0380044132471084,0.0371832488849605,-0.0011665426427498,-0.1279516481088856,0.890885460095761,-0.3201955431582111,left,0.0037272572517395,-0.8998615526520224,-0.440051386366412,-6.081074063876271,-0.4342452316103491,-0.0160081628710031,-0.0073489435017108,7.680968343615532,-0.0054248571395874
2025-04-30 01:16:40.332999200,2.024999267578125,-0.07516348294425,-0.0512218028306961,0.0367210784025348,-0.0017841337248682,-0.1288793010769555,0.8905508588631865,-0.3237909848577814,left,0.0040549635887146,-0.9006060388019983,-0.4574089100111275,-6.074056878590583,-0.4346962916094897,-0.0244834795594215,-0.00789650157094,7.685505402523279,0.0001128315925598
2025-04-30 01:16:40.372999200,2.064999267578125,-0.0775697802709949,-0.0313386023044586,0.0363602806438968,-0.0039954110980033,-0.1296497604637526,0.8902451414498151,-0.32678339011915,left,0.005053162574768,-0.9013436982353176,-0.4715841503579169,-6.067285192498565,-0.4351235513748924,-0.0154024120420217,-0.0079157091677188,7.689996284201741,0.0027270317077636
2025-04-30 01:16:40.412999200,2.104999267578125,-0.0789739180610084,0.0228705890476703,0.0360330646910999,-0.0102108307182788,-0.1298763411794176,0.8901162527791939,-0.328020454958879,left,-0.0046897530555725,-0.9016930501421548,-0.4798909735953435,-6.063938220158219,-0.4353467963716461,0.0005677081644535,-0.0097025968134403,7.692122190314531,0.0108512043952941
2025-04-30 01:16:40.452999200,2.144999267578125,-0.0776291500504915,0.056059643626213,0.0362044726039151,-0.0045755477622151,-0.1292309062492941,0.8901635714447482,-0.3259476244455717,left,-0.0030269026756286,-0.9019888670542028,-0.4715594908406957,-6.062309157651662,-0.4354279429063696,-0.0041354256682097,-0.0050308480858802,7.693921348690986,0.0065621137619018
2025-04-30 01:16:40.492999200,2.184999267578125,-0.0746313385120568,0.0542106889188289,0.0367443037255749,0.0048909094184637,-0.1280809085341318,0.8901879920640682,-0.3219935879654245,left,0.0012735724449157,-0.9028143737532176,-0.4529099911566823,-6.057359426289796,-0.4356724462454034,-0.0171527341008186,0.0022751949727535,7.698938300070166,-0.0008141994476318
2025-04-30 01:16:40.532999200,2.224999267578125,-0.0747976444315705,0.0061535201966762,0.0367557840555902,0.0008679633028805,-0.1281010137316037,0.890062102865623,-0.3221838586669193,left,0.0019474029541015,-0.9033640625478204,-0.4536010786933824,-6.05306377492249,-0.4359227851539305,-0.0121997855603694,0.0052677132189273,7.702275920060276,-0.0012499094009399
2025-04-30 01:16:40.572999200,2.264999267578125,-0.0749642458491294,-0.0419036522507667,0.0367672318037986,-0.0031549828127026,-0.1281210696108685,0.8899361801943798,-0.3223743284480246,left,0.0026209950447082,-0.9039136988632483,-0.4542924584910273,-6.048766369989514,-0.4361730659305547,-0.0072468360885977,0.0082602500915527,7.705611201962828,-0.0016853213310241
2025-04-30 01:16:40.612999200,2.304999267578125,-0.0778358194153677,-0.06152930483222,0.0362515013630382,-0.0090601071715354,-0.1290252109107895,0.8897435254745897,-0.325826991355221,left,-0.00106942653656,-0.9040220570967588,-0.4715950370781123,-6.046603638997674,-0.4363425977893278,-0.0023259404115378,0.0061257146298885,7.706268204566836,0.0076075196266174
2025-04-30 01:16:40.652999200,2.344999267578125,-0.0793959708087909,-0.0275207608938217,0.0359438869333012,-0.0068185925483703,-0.1295271515411332,0.8897038449804268,-0.3276909530530366,left,-0.0020654797554016,-0.9037744811357008,-0.4811794059706851,-6.047762745904922,-0.4363003290632831,0.0073153511621057,0.0048766881227493,7.704766567832231,0.0107489824295043
2025-04-30 01:16:40.692999200,2.384999267578125,-0.0793287647231256,0.0089727081358432,0.0359028300480885,-0.0003950125537812,-0.1295635669829442,0.8898658622144887,-0.3276494732238277,left,-0.0020508766174316,-0.9030181954147332,-0.4812346067566424,-6.053602119582891,-0.4359623819569835,0.0238959528505802,0.002404797822237,7.700176317432522,0.0051271319389343
2025-04-30 01:16:40.732999200,2.424999267578125,-0.0780209628273147,0.0206612311303615,0.0360271279046413,0.0035865940153598,-0.1291749580244474,0.890201957533477,-0.325994491644275,left,-0.0054585933685302,-0.901827322096686,-0.474031689640507,-6.063364219662547,-0.4353809103602445,0.0334850698709487,0.0030712075531482,7.692938767394423,-0.0052381157875061
2025-04-30 01:16:40.772999200,2.464999267578125,-0.0773611109924459,0.0100698061287403,0.0360399304344575,-0.0016017756424844,-0.1289730106065507,0.8904703153878324,-0.3250946644711058,left,-0.0047887563705444,-0.9007787719901904,-0.4706538107052445,-6.07171411485672,-0.4348906383671261,0.0333526656031608,0.0019008107483386,7.686557541924714,-0.007066011428833
2025-04-30 01:16:40.812999200,2.504999267578125,-0.0769793904537797,0.0067325504496693,0.0359430536731959,-0.0073609137907624,-0.1288090699976841,0.8908004871543898,-0.324378906991901,left,-0.000565230846405,-0.8994042487275384,-0.46914811885003,-6.082421386831999,-0.4342705657634294,0.0190094597637653,0.0001516789197921,7.678179589679837,-0.0030672550201416
2025-04-30 01:16:40.852999200,2.544999267578125,-0.0775130869928908,-0.0034920796751976,0.0356415301316219,-0.0218840707093477,-0.1286722090066243,0.8909232755791301,-0.324272692578872,left,0.0011456608772277,-0.8989005929735424,-0.4726935363719239,-6.086024379760026,-0.4340838916037896,0.0046999398618936,-0.0008972026407718,7.675106173583865,-0.0018675923347473
2025-04-30 01:16:40.892999200,2.584999267578125,-0.0790209718414247,-0.0086776204407215,0.0350705891728443,-0.0242223553359508,-0.128545709203327,0.8909150021748558,-0.3247267159317621,left,-0.0001283288002014,-0.8989279078285984,-0.4818535058399662,-6.0850955744773145,-0.4341849037227908,-0.0052066184580326,-0.0009813718497753,7.675272762322425,-0.0009146332740783
2025-04-30 01:16:40.932999200,2.624999267578125,-0.0811429019654445,-0.0166427716612815,0.034392583820874,-0.022460363805294,-0.1285903684085491,0.8908364656278136,-0.3258844322837544,left,0.0002530813217163,-0.8991218451161967,-0.4946439042322337,-6.082575700610875,-0.4343870382770288,-0.0043330346234142,-0.0015411935746669,7.676456419149041,0.0007746815681457
2025-04-30 01:16:40.972999200,2.664999267578125,-0.0824922664277307,-0.0149856312200427,0.0339949281982319,-0.0190988611429929,-0.1286804989541752,0.8907708538649199,-0.326763173742453,left,-0.0008150339126586,-0.8992741784551952,-0.5027546934409066,-6.080737379267811,-0.4345262047029268,-0.0036772852763533,-0.0013422481715679,7.677385808953642,0.0013725161552429
2025-04-30 01:16:41.012999400,2.70499951171875,-0.0836110090768027,-0.0055869417265057,0.0336602128030458,-0.0087613016366958,-0.1287831687068666,0.8907501310585514,-0.3275337543791984,left,0.0009222030639648,-0.8992269818994479,-0.5095874255377799,-6.080532212084531,-0.4345643043739419,-0.0019187439465895,-0.0028087422251701,7.677097639662027,0.0040197968482971
2025-04-30 01:16:41.052999200,2.744999267578125,-0.0836110090768027,-0.0001194979995489,0.0336602128030458,-0.0046314974315464,-0.1287831687068666,0.8907501310585514,-0.3275337543791984,left,0.0020599365234375,-0.8992269818994479,-0.5095874255377799,-6.080532212084531,-0.4345643043739419,-0.0015068930806592,-0.0018125437200069,7.677097639662027,0.002550721168518
2025-04-30 01:16:41.092999200,2.784999267578125,-0.0836110090768027,0.0065589626319706,0.0336602128030458,-0.0013091657310724,-0.1287831687068666,0.8907501310585514,-0.3275337543791984,left,0.001394510269165,-0.8992269818994479,-0.5095874255377799,-6.080532212084531,-0.4345643043739419,-0.0036656018346548,-0.0011557936668395,7.677097639662027,0.0025098323822021
2025-04-30 01:16:41.132999200,2.824999267578125,-0.0836110090768027,0.0086341826245188,0.0336602128030458,-0.0024667303077876,-0.1287831687068666,0.8907501310585514,-0.3275337543791984,left,-0.0010376572608947,-0.8992269818994479,-0.5095874255377799,-6.080532212084531,-0.4345643043739419,0.0042943581938743,-0.0038819797337055,7.677097639662027,0.0010155439376831
2025-04-30 01:16:41.172999200,2.864999267578125,-0.0824636738051051,0.0098261097446084,0.0338811395151508,0.0212241671979427,-0.1284687236090705,0.8908427971061081,-0.3262512985609076,left,-0.001887023448944,-0.8990874230461207,-0.5026989811982959,-6.082181732857227,-0.4344503798074732,0.0173802748322486,-0.0056993216276168,7.676245991268754,-0.0011212229728698
2025-04-30 01:16:41.212999200,2.904999267578125,-0.0814282892960101,-0.0006653945893049,0.0342460049164861,0.0386298447847366,-0.1286248989650195,0.890962626023057,-0.3260272477928068,left,-0.0048710107803344,-0.8985045172833716,-0.4967651707025244,-6.08715718318224,-0.4341296854815671,0.0184695720672607,-0.0054718144237995,7.672687422004341,0.0024303793907165
2025-04-30 01:16:41.252999200,2.944999267578125,-0.079880240167552,-0.0134669328108429,0.0350055760758832,0.0514837801456451,-0.12922290184696,0.8910152297516731,-0.3265515813844539,left,0.0006946325302124,-0.8979679599829647,-0.4876697543706744,-6.092021574348211,-0.4337833332478793,0.0092395804822444,-0.004126451909542,7.66940942324698,0.0003144741058349
2025-04-30 01:16:41.292999200,2.984999267578125,-0.0787967538926371,-0.0157168135046958,0.0357201704666262,0.0367682762444019,-0.1301014519062827,0.8910677792218401,-0.3279065373045551,left,0.0054722428321838,-0.8972120608533684,-0.4815251141358166,-6.098324473884701,-0.4333544444055173,0.0160286594182252,-0.0010074861347675,7.664787608665227,0.0014940500259399
2025-04-30 01:16:41.332999200,3.024999267578125,-0.0783135200468447,-0.0059583820402622,0.0360041909790859,0.0252060890197753,-0.1304731183781324,0.8911440479578534,-0.328438438600464,left,0.0055429935455322,-0.8966443790216371,-0.4789184022361412,-6.102892512452602,-0.4330621180244989,0.0141041437163949,0.0001788921654224,7.66131379507482,0.0026836395263671
2025-04-30 01:16:41.372999200,3.064999267578125,-0.07783024304302,0.0038000494241714,0.0362881956461371,0.0136438999325037,-0.1308447866319655,0.8912201017936494,-0.3289705977818158,left,0.0056131482124328,-0.8960770929674486,-0.4763068314982578,-6.107455290323496,-0.4327697088524722,0.0121796270832419,0.0013647675514221,7.657839981484413,0.0038732290267944
2025-04-30 01:16:41.412999200,3.104999267578125,-0.0771134564438929,0.004826939664781,0.0364915375445462,0.0067922673188149,-0.1308214506557474,0.8912930124519266,-0.3285378367080586,left,-0.000229001045227,-0.8958028989030488,-0.4720906385753303,-6.109887485906482,-0.4326093077575078,0.0028554927557706,0.0019745640456676,7.656159481051564,0.0013545155525207
2025-04-30 01:16:41.452999200,3.144999267578125,-0.0771134564438929,0.0005227667279541,0.0364915375445462,0.0047441171482205,-0.1308214506557474,0.8912930124519266,-0.3285378367080586,left,-0.0019135475158691,-0.8958028989030488,-0.4720906385753303,-6.109887485906482,-0.4326093077575078,0.008184490725398,0.0016830489039421,7.656159481051564,0.0018434524536132
2025-04-30 01:16:41.492999200,3.184999267578125,-0.0765290203763082,0.0080158049240708,0.0366351653145972,0.0064590233378112,-0.1308580344261066,0.8914446986295615,-0.3282560320594526,left,-0.0006731748580932,-0.8951197175917556,-0.4689195342585444,-6.115376730972528,-0.4322735616254675,0.0139794535934925,-0.0002632066607475,7.651971381711959,-0.0019097924232482
2025-04-30 01:16:41.532999200,3.224999267578125,-0.0754739340935967,0.0229406990110874,0.0368256182038399,0.0078131696209311,-0.1307127338281576,0.8916821320854049,-0.3273103999495553,left,-0.0045292377471923,-0.8941932357294012,-0.4630013962559401,-6.122935183528066,-0.4318114039276468,0.0148466425016522,-0.001554787158966,7.646285737290978,0.0008292198181152
2025-04-30 01:16:41.572999200,3.264999267578125,-0.0737701818013205,0.0295009911060333,0.0371615462446256,0.0143834054470062,-0.1303616281276374,0.8919114941844821,-0.3256155213693248,left,-0.0064136385917663,-0.8934784249828776,-0.4529714390203356,-6.129163264262676,-0.4314147369111741,0.021657682955265,-0.0038236230611801,7.641894224333763,-0.0029647946357727
2025-04-30 01:16:41.612999200,3.304999267578125,-0.071146171223985,0.0225678626447916,0.0378811319995455,0.048326913267374,-0.1301350963584307,0.8921182155543227,-0.3237655351144077,left,-0.0071550011634826,-0.892834527200314,-0.4372366212066262,-6.135238200262188,-0.4309929816515234,0.0122447554022073,-0.0042405053973197,7.637935257574916,-0.0066009163856506
2025-04-30 01:16:41.652999200,3.344999267578125,-0.068672922796972,-0.0114461462944746,0.0388867908663401,0.0605638846755027,-0.1305206759620812,0.8921474506141407,-0.3234068481084161,left,-0.0045841932296752,-0.8925808210534597,-0.4221942791691049,-6.138233290424942,-0.4307261633988614,-0.0023751836270093,-0.0012515820562839,7.636374584129452,-0.0045284628868103
2025-04-30 01:16:41.692999200,3.384999267578125,-0.0672070053697708,-0.0246922224760055,0.0398711387983258,0.0564388446509838,-0.1314617472736593,0.8919670381693197,-0.3248396457821134,left,0.0018087029457092,-0.8928552056723056,-0.4130549506302923,-6.136755034565925,-0.4307236626627005,-0.0193999279290437,0.0009808242321014,7.638062683346867,-0.0011284351348876
2025-04-30 01:16:41.732999200,3.424999267578125,-0.0667226748822104,-0.0213445574045181,0.0404929056750822,0.0310162305831909,-0.132294073188834,0.891736591116883,-0.3265302736481964,left,0.0034094452857971,-0.8933742504758626,-0.4098183433292433,-6.132998312380909,-0.4308879877933712,-0.0173694677650928,0.0014355927705764,7.6412541728645555,-4.1127204895e-06
2025-04-30 01:16:41.772999200,3.464999267578125,-0.0667300630539365,-0.004611887037754,0.0407504288418975,0.0096518900245428,-0.1326624075664429,0.8915109262429788,-0.3274479098886206,left,0.002404510974884,-0.8941577338585026,-0.4094643057271838,-6.127019822493195,-0.4312172899601608,-0.0238043311983346,0.0020158924162387,7.646067710626125,0.0036615133285522
2025-04-30 01:16:41.812999200,3.504999267578125,-0.0663146246067882,0.0062519023194909,0.0409634467488975,0.001756296493113,-0.1326073848568359,0.8913200718277828,-0.3272282979746588,left,0.001667320728302,-0.8950923597577232,-0.4064452136343345,-6.120056997743249,-0.4316085566966546,-0.0190074108541011,0.001286931335926,7.651803623929619,0.0015016794204711
2025-04-30 01:16:41.852999200,3.544999267578125,-0.0663146246067882,0.0141344536095857,0.0409634467488975,-0.0111026465892791,-0.1326073848568359,0.8913200718277828,-0.3272282979746588,left,0.0024256706237792,-0.8950923597577232,-0.4064452136343345,-6.120056997743249,-0.4316085566966546,-0.0126839764416217,0.0007489100098609,7.651803623929619,0.004877746105194
2025-04-30 01:16:41.892999200,3.584999267578125,-0.0652543263705979,0.0244238208979368,0.0410625537152472,-0.0116162002086639,-0.1318069938932414,0.8911882386145173,-0.3250526789273409,left,-2.8908252716e-05,-0.8962948504448646,-0.399355584166944,-6.111297937226295,-0.4321161811233169,-0.0056749396026134,0.0007920376956462,7.659173275914788,-4.0531158447e-06
2025-04-30 01:16:41.932999200,3.624999267578125,-0.0642780272323019,0.020333532243967,0.0411587437572587,0.0066806692630052,-0.1313697562962957,0.8913159921689505,-0.3235718557598738,left,-0.0059984326362609,-0.8960566160099919,-0.393506164018996,-6.113506260925531,-0.4319767384451866,0.0164801198989152,-0.0038518421351909,7.65771430927813,0.0031495094299316
2025-04-30 01:16:41.972999200,3.664999267578125,-0.0623763880807467,0.0079482793807983,0.0416602817452711,0.0285960379987955,-0.1312058115379346,0.8915051135321754,-0.3222106237139566,left,-0.0056336522102355,-0.8953976199315261,-0.3821942041488364,-6.119277830064297,-0.4315878756079818,0.0181432701647281,-0.0054709836840629,7.6536752630203955,-0.0032764673233032
2025-04-30 01:16:42.012999400,3.70499951171875,-0.0602908009651154,0.0036276062019169,0.0424695116454214,0.0530541017651557,-0.1315016075476034,0.8915820426283985,-0.321816229623729,left,-0.0015373826026916,-0.8949482180855995,-0.3696383086321875,-6.123493986454606,-0.4312598474893183,0.0032905358821153,-0.0006791017949581,7.650919242310524,-5.32269477844e-05
2025-04-30 01:16:42.052999200,3.744999267578125,-0.0584642747701951,-0.0038458947092294,0.043246865542492,0.0263353995978832,-0.1318945579572099,0.8916215390050923,-0.3217759421595215,left,0.0110650658607482,-0.8945889046154263,-0.3586136047381907,-6.1269035026371474,-0.4309809607010063,0.0070380475372076,0.0014732405543327,7.648714425742626,-0.0023586153984069
2025-04-30 01:16:42.092999200,3.784999267578125,-0.0578686056196972,0.0038092113099992,0.0434773182260795,-0.0016220491379499,-0.1319775126737668,0.8916437679732248,-0.3216603054819858,left,0.0095840692520141,-0.8944591465515722,-0.3550213889325037,-6.128107617729902,-0.4308865401346444,-0.001613238826394,0.0041393004357814,7.647918306928872,-0.0029195547103881
2025-04-30 01:16:42.132999200,3.824999267578125,-0.0582681026154259,0.0087493462488055,0.043249944882295,-0.0251877754926681,-0.1317229859464541,0.8916080314689868,-0.3213162927793436,left,0.0018288493156433,-0.8947764611641915,-0.3573281680375337,-6.125542151156068,-0.431061174325602,-0.0082564335316419,0.0018458105623722,7.649865349343418,0.0003089308738708
2025-04-30 01:16:42.172999200,3.864999267578125,-0.0585162124003586,0.012984400615096,0.0429587540863616,-0.0281156301498413,-0.1311842274306788,0.8915681195615938,-0.3202847483467016,left,-0.0023468136787414,-0.895311125655682,-0.3586086728347465,-6.121368664863705,-0.431337000252487,-0.0095891710370779,0.0009724646806716,7.65314510166645,-0.0019489526748657
2025-04-30 01:16:42.212999200,3.904999267578125,-0.0591865795091122,0.0134995356202125,0.0425548157948369,-0.0173966325819492,-0.1307771333503073,0.8915735553933883,-0.3197190008796773,left,-0.0071251392364501,-0.8955277635026028,-0.3626140360185876,-6.119470722287893,-0.431489191331906,-0.0077434056438505,0.0022799223661422,7.654473135399818,0.0025368332862854
2025-04-30 01:16:42.252999200,3.944999267578125,-0.059101172150572,0.008266108110547,0.0424204482719681,-0.0173190888017416,-0.130384015300433,0.8915742136668032,-0.3188241624859255,left,-0.0006181001663208,-0.8957931323511585,-0.3619714637987315,-6.117475164556503,-0.4316202994536611,-0.0054156091064214,-0.0012482330203056,7.656099859818815,-0.00673109292984
2025-04-30 01:16:42.292999200,3.984999267578125,-0.059101172150572,-0.0004786076024174,0.0424204482719681,-0.0166234206408262,-0.130384015300433,0.8915742136668032,-0.3188241624859255,left,-0.0026997923851013,-0.8957931323511585,-0.3619714637987315,-6.117475164556503,-0.4316202994536611,-0.0034393582027405,0.0004685707390308,7.656099859818815,-0.0096979737281799
2025-04-30 01:16:42.332999200,4.024999267578125,-0.0608935034675873,-0.0183078944683074,0.0417956989430906,-0.0126627776771783,-0.1303284409933451,0.8915336133282072,-0.3195819617148309,left,-0.0043861269950866,-0.8959296034798366,-0.3728718106606975,-6.115773036813736,-0.4317817524569832,-0.0109443087130784,0.0015751644968986,7.656936310642957,0.0006890296936035
2025-04-30 01:16:42.372999200,4.064999267578125,-0.0619764733313925,-0.0129621643573045,0.0415660154374506,-0.0109938718378543,-0.1304626011722663,0.8913417817298824,-0.3204870765169583,left,0.0016515851020812,-0.8966638394837166,-0.3791464339507743,-6.109752461349964,-0.4321592224480694,-0.0151784718036651,-0.0003382936120033,7.661433037540316,-0.0055919885635375
2025-04-30 01:16:42.412999200,4.104999267578125,-0.0630198804568758,0.008508501574397,0.041273141518885,-0.0115192700177431,-0.1304309798491113,0.8911678186056194,-0.3210053935595491,left,-0.0022778511047363,-0.897427610578266,-0.3851525059651583,-6.10351093661189,-0.4325552876235563,-0.0383762866258621,0.0001784972846508,7.666105705526471,0.0059763193130493
2025-04-30 01:16:42.452999200,4.144999267578125,-0.0629156293811408,-0.0014523910358548,0.0412947218412618,-0.0153621062636375,-0.1301051293942312,0.8909074004564594,-0.3203775615833949,left,0.0025780200958251,-0.8988399439324879,-0.3838351397562772,-6.092740536272525,-0.4331875398320237,-0.0314286202192306,-0.0015665031969547,7.674735586705803,-0.0072035789489746
2025-04-30 01:16:42.492999200,4.184999267578125,-0.0637737433610091,-0.0036429956089705,0.0411141228929951,-0.0131521886214613,-0.1300152213563871,0.8905793393805246,-0.3207589407824574,left,0.0027016401290893,-0.9003524740927511,-0.3883230622926726,-6.0808180432885885,-0.4339057760609259,-0.0459833219647407,7.13989138603e-05,7.683960511168837,0.0008640885353088
2025-04-30 01:16:42.532999200,4.224999267578125,-0.0652241125693199,-0.0097124306485056,0.0407342474752756,-0.0290372669696807,-0.1299743195759081,0.8902864843701608,-0.3215162476997312,left,0.0004427433013916,-0.9016386811561036,-0.3964975643873214,-6.070380820426345,-0.4345543144677579,-0.0245502851903438,-0.0028849206864833,7.691791350924968,0.0040755271911621
2025-04-30 01:16:42.572999200,4.264999267578125,-0.0661647276073663,0.0159013606607913,0.0403804304139692,-0.0218174308538436,-0.1296625918509834,0.8900713816072051,-0.3214015263961232,left,-0.0032892823219299,-0.9027744089858284,-0.4016294108504429,-6.061283906257152,-0.4351206242560284,-0.0266412906348705,-0.0025896914303302,7.698695138964056,0.0055819749832153
2025-04-30 01:16:42.612999200,4.304999267578125,-0.0661270043304574,0.021841175854206,0.0402244637402107,-0.0181714873760938,-0.1291288857471686,0.8899524890025728,-0.32028334641559,left,-0.0023609399795532,-0.9036692810719438,-0.4009453741090372,-6.054422788316011,-0.4355368529281844,-0.0197352673858404,-0.0033146813511848,7.704128269928693,0.0043697357177734
2025-04-30 01:16:42.652999200,4.344999267578125,-0.0656397478412293,0.0203930661082267,0.0402258454046377,-0.0114086680114269,-0.128564742941196,0.889797883037031,-0.3188985766999263,left,-0.0007124543190002,-0.9047668636711166,-0.3974403616627678,-6.046175768974423,-0.4360191749596418,-0.0260096322745084,-0.0024703927338123,7.710783636164665,0.0002888441085815
2025-04-30 01:16:42.692999200,4.384999267578125,-0.0652448929117,0.0117580518126487,0.0402815998508155,-0.0082633653655648,-0.1281987953532488,0.8896360263606022,-0.3179921508083067,left,0.0036161541938781,-0.9057601951013888,-0.3945533715169876,-6.038685705479979,-0.4364517404092798,-0.0151423513889312,-0.0051836594939231,7.71679836640954,0.0004489421844482
2025-04-30 01:16:42.732999200,4.424999267578125,-0.0645722833269332,0.0237139016389846,0.0404080056341412,0.008845386095345,-0.1278843510079416,0.8895730939543488,-0.3170130072573843,left,-0.0029370188713073,-0.906285298194224,-0.3902301745556294,-6.0349061869412655,-0.436660751903665,-0.0064824717119336,-0.0016700848937034,7.719975242879986,0.0038130283355712
2025-04-30 01:16:42.772999200,4.464999267578125,-0.06287362672274,0.0214590728282928,0.0408649407467258,0.0145920850336551,-0.1275911140311389,0.8895743324764844,-0.3155493869661736,left,-0.0029684901237487,-0.9065553064446842,-0.3798473852943629,-6.03347995353043,-0.4367014979871499,-0.0048673627898097,-0.0039505548775196,7.721607812517881,0.0037181377410888
2025-04-30 01:16:42.812999200,4.504999267578125,-0.0613987913205854,0.0141247473657131,0.0412684260030422,0.0128413494676351,-0.1273503253732631,0.8895724846082507,-0.314309519673487,left,0.0022531151771545,-0.9067914656659444,-0.3708366515712812,-6.032213294595479,-0.4367375190889364,0.0006632786244153,-0.001003049314022,7.723035214972495,-0.0009346604347229
2025-04-30 01:16:42.852999200,4.544999267578125,-0.0613987913205854,0.0024452162906527,0.0412684260030422,0.0045230016112327,-0.1273503253732631,0.8895724846082507,-0.314309519673487,left,0.0045201778411865,-0.9067914656659444,-0.3708366515712812,-6.032213294595479,-0.4367375190889364,-0.0091423876583576,0.0015535578131675,7.723035214972495,0.0011042952537536
2025-04-30 01:16:42.892999200,4.584999267578125,-0.0615866505908514,-0.0026282556354999,0.0412920541009409,0.0013594983611255,-0.1273879726766919,0.8894144870895383,-0.3145599256055386,left,0.0010090470314025,-0.9074732142897508,-0.3716457394644618,-6.026887131136656,-0.437046060170373,-0.0112686697393655,0.0015811994671821,7.727153756207227,0.0019906163215637
2025-04-30 01:16:42.932999200,4.624999267578125,-0.0615866505908514,-0.0077017270959913,0.0412920541009409,-0.0018040048889815,-0.1273879726766919,0.8894144870895383,-0.3145599256055386,left,-0.0019589066505432,-0.9074732142897508,-0.3716457394644618,-6.026887131136656,-0.437046060170373,-0.0133949518203735,0.0015263259410858,7.727153756207227,0.0032968521118164
2025-04-30 01:16:42.972999200,4.664999267578125,-0.0623684968338903,-0.0151784112676978,0.041207936532449,-0.0093273650854825,-0.127550144193982,0.8891640837146804,-0.3154161562854476,left,-0.0008242726325988,-0.908462378028646,-0.3758811485445126,-6.018963352400064,-0.4375159520976834,-0.0001178020611405,0.0002555772662162,7.733122893744706,-0.0021932125091552
2025-04-30 01:16:43.012999400,4.70499951171875,-0.0623684968338903,-0.0117885060608387,0.041207936532449,-0.0002839192748069,-0.127550144193982,0.8891640837146804,-0.3154161562854476,left,-0.0043559670448303,-0.908462378028646,-0.3758811485445126,-6.018963352400064,-0.4375159520976834,0.0019968885462731,0.0009908638894557,7.733122893744706,-0.0009213089942932
2025-04-30 01:16:43.052999200,4.744999267578125,-0.0623684968338903,-0.005597140174359,0.041207936532449,0.0038411729037761,-0.127550144193982,0.8891640837146804,-0.3154161562854476,left,-0.0004341602325439,-0.908462378028646,-0.3758811485445126,-6.018963352400064,-0.4375159520976834,-0.0043526049703359,-0.0004365891218185,7.733122893744706,-0.0007538199424743
2025-04-30 01:16:43.092999200,4.784999267578125,-0.0632871519030105,-0.0038317670114338,0.0410869708819968,-0.0066213076934218,-0.127898764158616,0.8890670225156825,-0.3166706885008733,left,0.0011066794395446,-0.9086296481201688,-0.3813285272302106,-6.017324353021383,-0.4376228032965468,-0.0062360512092709,-0.0002250671386718,7.734131194004416,-0.0024167299270629
2025-04-30 01:16:43.132999200,4.824999267578125,-0.0632871519030105,-0.002041824394837,0.0410869708819968,-0.0031226812861859,-0.127898764158616,0.8890670225156825,-0.3166706885008733,left,-0.0027800202369689,-0.9086296481201688,-0.3813285272302106,-6.017324353021383,-0.4376228032965468,-0.0099107893183827,0.0004284158349037,7.734131194004416,0.0005106329917907
2025-04-30 01:16:43.172999200,4.864999267578125,-0.0640590455596851,-0.0076164053753018,0.0409358840353713,-0.0016051458660513,-0.128021840608733,0.8889358868906374,-0.3173796030291856,left,-0.0020332336425781,-0.9091034212644644,-0.3857384891595691,-6.013370646959543,-0.4378672230984518,-0.0061246147379279,-0.0022497698664665,7.736987167957425,-0.0002559423446655
2025-04-30 01:16:43.212999200,4.904999267578125,-0.0640590455596851,-0.0086972033604979,0.0409358840353713,0.0058426829054951,-0.128021840608733,0.8889358868906374,-0.3173796030291856,left,-0.0021861791610717,-0.9091034212644644,-0.3857384891595691,-6.013370646959543,-0.4378672230984518,-0.0095225386321544,-0.0027566961944103,7.736987167957425,0.000234842300415
2025-04-30 01:16:43.252999200,4.944999267578125,-0.0647608581393236,-0.0170648358762264,0.0409765350286877,0.0084082502871751,-0.1284251517991309,0.8887008243430671,-0.3187171839002292,left,0.0005997419357299,-0.9098663913853322,-0.3895764964198693,-6.007205110067129,-0.4382222195176143,-0.0199998244643211,-0.0010996684432029,7.741582094532251,-0.0009250044822692
2025-04-30 01:16:43.292999200,4.984999267578125,-0.0657237057710913,-0.0189476273953914,0.0409662385813123,0.0100716957822442,-0.1289138526415705,0.888463494112953,-0.3203702878461537,left,0.0015673637390136,-0.910568841570866,-0.3950030880458652,-6.001399638658762,-0.438560790572394,-0.0153190959244966,0.0024342089891433,7.7458087723165745,0.0011894702911376
2025-04-30 01:16:43.332999200,5.024999267578125,-0.0671429347255107,-0.0359016805887222,0.0407970737370989,-0.0101391049101948,-0.129467099988303,0.8882932401026812,-0.3223538145104998,left,0.0008734464645385,-0.910900336943471,-0.403347722543031,-5.99827069298327,-0.4387583991179526,-0.0004027178511023,0.0002760216593742,7.747801991960406,-0.0002277493476867
2025-04-30 01:16:43.372999200,5.064999267578125,-0.0688870335142805,-0.0176836922764778,0.0404338655688409,-0.0052884514443576,-0.1299130004439081,0.8882033503586172,-0.3242217077328603,left,-0.001814067363739,-0.9109203513214492,-0.4137980971477925,-5.997403847020864,-0.4388423535233537,-0.0010694481898099,0.002126608043909,7.747922403469682,0.0026764273643493
2025-04-30 01:16:43.412999200,5.104999267578125,-0.0688870335142805,-0.008148175664246,0.0404338655688409,-0.00546306790784,-0.1299130004439081,0.8882033503586172,-0.3242217077328603,left,7.30156898498e-05,-0.9109203513214492,-0.4137980971477925,-5.997403847020864,-0.4388423535233537,-0.0009456518455408,-0.0006523728370666,7.747922403469682,0.0013846158981323
2025-04-30 01:16:43.452999200,5.144999267578125,-0.0688870335142805,0.0008949171751737,0.0404338655688409,-0.0031593292951583,-0.1299130004439081,0.8882033503586172,-0.3242217077328603,left,0.0002493858337402,-0.9109203513214492,-0.4137980971477925,-5.997403847020864,-0.4388423535233537,-0.0045684650540351,-3.7550926208e-06,7.747922403469682,0.0001243352890014
2025-04-30 01:16:43.492999200,5.184999267578125,-0.0699582121324793,0.0014943187125027,0.0401506825786433,-0.0062182024121284,-0.1300188640262352,0.8881244286026512,-0.3250156495008275,left,0.0048242807388305,-0.9111487288615696,-0.4200984759336337,-5.99519260071218,-0.4389967940835328,-0.0014557875692844,-0.0012431293725967,7.749295445388555,-0.0012627243995666
2025-04-30 01:16:43.532999200,5.224999267578125,-0.0699582121324793,0.0072700059972703,0.0401506825786433,0.0070462841540575,-0.1300188640262352,0.8881244286026512,-0.3250156495008275,left,-0.0052038431167602,-0.9111487288615696,-0.4200984759336337,-5.99519260071218,-0.4389967940835328,-0.0019280186388641,-0.0013412050902843,7.749295445388555,0.0029342770576477
2025-04-30 01:16:43.572999200,5.264999267578125,-0.0699582121324793,0.007981271483004,0.0401506825786433,0.0059626437723636,-0.1300188640262352,0.8881244286026512,-0.3250156495008275,left,-0.0035909414291381,-0.9111487288615696,-0.4200984759336337,-5.99519260071218,-0.4389967940835328,-5.21865440532e-05,-0.0010550431907176,7.749295445388555,0.0033555030822753
2025-04-30 01:16:43.612999200,5.304999267578125,-0.0699582121324793,0.0061704283580183,0.0401506825786433,-0.0038974145427346,-0.1300188640262352,0.8881244286026512,-0.3250156495008275,left,0.003301978111267,-0.9111487288615696,-0.4200984759336337,-5.99519260071218,-0.4389967940835328,0.0055641923099756,-0.0006767474114894,7.749295445388555,-9.62018966674e-05
2025-04-30 01:16:43.652999200,5.344999267578125,-0.0688667718735337,0.011027006432414,0.0403077520647141,-0.0068733459338545,-0.1296426503368034,0.8882416613834496,-0.3236036474353879,left,0.0032647848129272,-0.9109265479044836,-0.4136732286591082,-5.997364099532366,-0.4388562774278684,0.0056860037147998,-0.0010959506034851,7.747959812870621,0.0008513331413269
2025-04-30 01:16:43.692999200,5.384999267578125,-0.0684217487054087,0.0100238230079412,0.0402886626438684,-0.0096741700544953,-0.1293220982531635,0.8883151989521503,-0.3226510419883023,left,0.0044234991073608,-0.9108296773912392,-0.4110555569740012,-5.998296996468305,-0.4388038451961794,0.0053624911233782,-0.0016584284603595,7.747377629068493,-0.0021474957466125
2025-04-30 01:16:43.732999200,5.424999267578125,-0.0685155035103403,0.0052609890699386,0.0400838944943481,-0.0150118470191955,-0.1290212550528127,0.8884103253224628,-0.3219931784105467,left,-0.0017254948616027,-0.9105930192928404,-0.411743429640308,-6.000087387016415,-0.4387185700947156,0.0093092862516641,-0.0005145259201526,7.745954318267106,0.0001142024993896
2025-04-30 01:16:43.772999200,5.464999267578125,-0.0689955603034478,0.0026989511679857,0.0397452337922031,-0.0186729114502668,-0.1287744612842012,0.8885584879262106,-0.3216141388820909,left,-0.0029029846191406,-0.9100602518176372,-0.4149082138141617,-6.004004852721095,-0.4385217101646474,0.0208753906190395,0.0001463070511817,7.742748800224065,-0.0028563737869262
2025-04-30 01:16:43.812999200,5.504999267578125,-0.0694274076493379,0.0032552725169807,0.0394186668612819,-0.0094970408827066,-0.1286285078887883,0.8888068601028694,-0.321379493312522,left,-0.005787193775177,-0.90901111894772,-0.4180642666922882,-6.011925124326348,-0.4380905113239636,0.020294489338994,0.0015389397740364,7.736430703118443,-0.0011596083641052
2025-04-30 01:16:43.852999200,5.544999267578125,-0.0700248026587958,-0.0090727945789694,0.039114851842776,-0.0151019804179668,-0.1285721957610972,0.8889668850644463,-0.321465293035653,left,-0.0036143660545349,-0.908291822163782,-0.4220448972936719,-6.017223230734468,-0.437809354757609,0.0133050084114074,0.0010210275650024,7.732094135218858,-0.0066238641738891
2025-04-30 01:16:43.892999200,5.584999267578125,-0.070973461746424,-0.0088746268302202,0.038801101250964,-0.0089405002072453,-0.1286320549590821,0.8889971388878245,-0.3220411766363064,left,-0.003225028514862,-0.9080641785646753,-0.4278778777634724,-6.0185769834309815,-0.4377584550813809,-0.0007159775123,0.0005349889397621,7.730720508778095,-0.0066637396812438
2025-04-30 01:16:43.932999200,5.624999267578125,-0.070973461746424,0.0124161299318075,0.038801101250964,-0.0030884426087141,-0.1286320549590821,0.8889971388878245,-0.3220411766363064,left,-0.0032112598419189,-0.9080641785646753,-0.4278778777634724,-6.0185769834309815,-0.4377584550813809,-0.0173014067113399,-0.0022568553686141,7.730720508778095,0.0026513338088989
2025-04-30 01:16:43.972999200,5.664999267578125,-0.0708191151570046,0.0096227079629898,0.0388677651528914,-0.0018409778131172,-0.1283597617604778,0.888723509474858,-0.3215152293611007,left,-0.005375325679779,-0.9094870814716598,-0.4261701239975169,-6.007663959750532,-0.4383875928936265,-0.0374223217368125,0.0017492808401584,7.739298367509245,-0.0067874789237976
2025-04-30 01:16:44.012999400,5.70499951171875,-0.0709755946838525,-0.0019873389974236,0.0389178969075022,-0.0060361349023878,-0.1282670999039335,0.8884205210228656,-0.3215462999317178,left,-0.0015197992324829,-0.9109055005355984,-0.4263311963107437,-5.996640461432934,-0.4390237354096865,-0.0386534966528415,-0.0009747147560119,7.747833556142448,-0.0011556148529052
2025-04-30 01:16:44.052999200,5.744999267578125,-0.0709066105536092,0.0211518928408622,0.0389813239604437,-0.0067400517873466,-0.1279607551733668,0.8880586594187498,-0.3210325085985475,left,-0.0011653304100036,-0.9127386261414312,-0.4249105889230966,-5.982492693614959,-0.4398388718402015,-0.0432570278644561,0.0009833462536334,7.758840687847137,-0.0017891526222229
2025-04-30 01:16:44.092999200,5.784999267578125,-0.0699108497416117,0.0410831794142723,0.039187360470684,-0.0130622908473014,-0.1273368649899138,0.8877725921241335,-0.3193328800866568,left,0.000451922416687,-0.914483064597143,-0.4180072027428075,-5.969402910417318,-0.440578631474832,-0.0425315238535404,-0.0030346065759658,7.769291354712843,0.00673508644104
2025-04-30 01:16:44.132999200,5.824999267578125,-0.0686568517977567,0.02616723254323,0.0393696191575912,-0.0154795851558446,-0.1264877039934056,0.8875112732471726,-0.3169990686598393,left,-0.0019617676734924,-0.9162684948368652,-0.4095690082106739,-5.9560746422886846,-0.4413329404150501,-0.032979317009449,-0.0017422661185264,7.779962970852852,-0.0024420619010925
2025-04-30 01:16:44.172999200,5.864999267578125,-0.0684593110204907,0.0213707014918327,0.0393220554565336,-0.0117588099092245,-0.125972673487758,0.8872774071908396,-0.3158962881975603,left,-0.0020377039909362,-0.917655109812484,-0.4076540414348244,-5.945386075013875,-0.4419541380322233,-0.0325370728969574,-0.0026809759438037,7.788233371070027,-0.0002010464668273
2025-04-30 01:16:44.212999200,5.904999267578125,-0.0682589530477716,0.0165741723030805,0.0392744609556512,-0.0080380355939269,-0.1254575813824629,0.8870429950702688,-0.3147912045179609,left,-0.0021146535873413,-0.919041829553532,-0.4057258133186027,-5.934687570866942,-0.4425750626172686,-0.0320948287844657,-0.0036210604012012,7.796490327283739,0.0020414590835571
2025-04-30 01:16:44.252999200,5.944999267578125,-0.0676500006648181,0.0201282165944576,0.0393637801106623,-0.0111858127638697,-0.1249789362537681,0.8868431889135721,-0.3135454656725241,left,0.0015830397605895,-0.9202690202149156,-0.4014647583406418,-5.925383151426911,-0.4431027334979212,-0.0231357365846633,-0.0035490244626998,7.803783991423248,0.003032624721527
2025-04-30 01:16:44.292999200,5.984999267578125,-0.0666643061008692,0.0231577586382627,0.0395590444846891,0.0008833743631839,-0.1245028514397454,0.8866894949888013,-0.3120944114045046,left,0.0015854835510253,-0.9213046617601696,-0.3950853595018386,-5.917708963537216,-0.4435266854172792,-0.0232973620295524,-0.0016981065273284,7.809930823615192,0.0059539675712585
2025-04-30 01:16:44.332999200,6.024999267578125,-0.065711109099166,0.0255430471152067,0.039730125448605,0.000648530491162,-0.1240367032358658,0.8865715758818745,-0.310661727501248,left,-0.0004662871360778,-0.9221700271130838,-0.3890004866302013,-5.911336505895853,-0.4438775310258345,-0.0137135256081819,-0.001583844423294,7.815060003197193,0.004603087902069
2025-04-30 01:16:44.372999200,6.064999267578125,-0.0645089464636734,0.01671152561903,0.0400056342408266,0.0153380334377288,-0.1237059148719692,0.8865378190480999,-0.3093592790236469,left,-0.0055326223373413,-0.9225862532994512,-0.3816840992022305,-5.908553597179055,-0.4440125834536869,-0.0063762036152184,-0.0030163712799549,7.817524932006001,0.0069471001625061
2025-04-30 01:16:44.412999200,6.104999267578125,-0.0634419026954268,0.0104170069098472,0.0403653634475032,0.0129031697288155,-0.1236262401546118,0.8864589623768125,-0.3086944868844384,left,-0.0001585483551025,-0.9230393825808942,-0.3751546243682503,-5.905422313416004,-0.4441597743398775,-0.0058859544806182,-0.0055390708148479,7.8202073029577726,0.0044260621070861
2025-04-30 01:16:44.452999200,6.144999267578125,-0.0634419026954268,0.0056928675621747,0.0403653634475032,0.010263186879456,-0.1236262401546118,0.8864589623768125,-0.3086944868844384,left,0.0042724609375,-0.9230393825808942,-0.3751546243682503,-5.905422313416004,-0.4441597743398775,0.000336701516062,-0.0053488165140151,7.8202073029577726,0.0069195628166198
2025-04-30 01:16:44.492999200,6.184999267578125,-0.0634419026954268,0.0089461915194988,0.0403653634475032,0.0001648357138037,-0.1236262401546118,0.8864589623768125,-0.3086944868844384,left,0.0024091601371765,-0.9230393825808942,-0.3751546243682503,-5.905422313416004,-0.4441597743398775,0.0073442291468381,-0.0022296495735645,7.8202073029577726,0.0028232336044311
2025-04-30 01:16:44.532999200,6.224999267578125,-0.0615065489521313,0.0279244817793369,0.0408342443372084,0.0162785276770591,-0.1233971386317457,0.886644633832058,-0.3071440966133607,left,-0.0036817789077758,-0.9224449255835284,-0.3640104588130489,-5.910774780359864,-0.4438095816489825,0.0246998239308595,-2.4996697902e-06,7.81668848118186,0.0048784017562866
2025-04-30 01:16:44.572999200,6.264999267578125,-0.0590624070963666,0.0276522971689701,0.0413644408887023,0.0113344807177782,-0.1230092572122731,0.8869248903469238,-0.3049512113664521,left,0.0021018981933593,-0.921547626025688,-0.3499765266330912,-5.918646536648273,-0.443308018623435,0.0269546993076801,-0.0014447011053562,7.81137167007327,-0.0015296936035156
2025-04-30 01:16:44.612999200,6.304999267578125,-0.0575571387407468,0.0197023674845695,0.0415952157868976,0.007267830427736,-0.1226787872852987,0.8872275442568458,-0.3033409737162107,left,-0.0012619495391845,-0.9204675083591514,-0.3415521048979834,-5.92758621442914,-0.4427720165447203,0.0294845886528491,6.444752216339111e-07,7.804962972074747,-0.0048438310623168
2025-04-30 01:16:44.652999200,6.344999267578125,-0.0564538857736839,0.0130059095099568,0.0417540583335213,0.0043848659843206,-0.1224452118729998,0.8874842328199702,-0.3021651170030988,left,-0.0003290176391601,-0.9195125068704988,-0.3354327087022364,-5.935398349484801,-0.4423070260154415,0.019473098218441,-0.0009731538593769,7.799289018091559,-0.0041659474372863
2025-04-30 01:16:44.692999200,6.384999267578125,-0.0557378749392749,0.0115289874374866,0.0418482695790672,-0.0033984724432229,-0.1221943284973314,0.887571342183222,-0.3012220152007508,left,-0.0007510185241699,-0.9193088591121106,-0.3312713512390852,-5.937223811346292,-0.4421928938344064,-0.004045533016324,0.0016126483678817,7.798078473258018,-0.0027786493301391
2025-04-30 01:16:44.732999200,6.424999267578125,-0.0556813389078593,0.0004518767818808,0.0418279375515372,-0.0056082345545291,-0.1220083680357122,0.8874727908471439,-0.3008320188779736,left,-0.0034979581832885,-0.9198660041994264,-0.3306938070794567,-5.932903610059618,-0.4424438286100577,-0.0191718377172946,0.0018298216164112,7.801389789763093,-0.0028046369552612
2025-04-30 01:16:44.772999200,6.464999267578125,-0.0561946368987705,0.0056831436231732,0.0416688212214719,-0.0138115994632244,-0.1218836777272971,0.887312091583851,-0.3008864564451738,left,-0.002423882484436,-0.92063825919863,-0.3334005818201229,-5.926715276813507,-0.4428152379209714,-0.013158718124032,0.0008715018630027,7.805976533031463,-0.0003241300582885
2025-04-30 01:16:44.812999200,6.504999267578125,-0.0561069613768126,0.0238246396183967,0.0415106139924145,-0.0184327624738216,-0.1214188149796329,0.8872724121967953,-0.2998427222318521,left,-0.0021438002586364,-0.9211034090736642,-0.3326772725142538,-5.923118129104376,-0.4430371400621652,-0.0106585072353482,0.0006215497851371,7.808736645394563,0.0003229975700378
2025-04-30 01:16:44.852999200,6.544999267578125,-0.0553204671435481,0.0313695892691612,0.0414772933803907,-0.0122895957902073,-0.1207614416191521,0.8872921062157224,-0.2980037132126703,left,-0.0022307634353637,-0.9214500892344618,-0.3278690685149282,-5.920675996649265,-0.4431807493502565,-0.0095599656924605,0.00217080488801,7.81079299340248,-0.0016545057296752
2025-04-30 01:16:44.892999200,6.584999267578125,-0.0541056371219321,0.0314248800277709,0.0415819282422117,-0.0175976101309061,-0.1200518584839133,0.8872701697509852,-0.295855901262175,left,0.0014120936393737,-0.9220278361744272,-0.3204320869145914,-5.916562716111541,-0.4434075091865784,-0.0173888280987739,-0.0003759562969207,7.814217707154154,-0.0022648572921752
2025-04-30 01:16:44.932999200,6.624999267578125,-0.0534315953166259,0.02143195271492,0.0415268613240098,-0.0175756290555,-0.1193835250616916,0.887235961477867,-0.2940709874633971,left,0.0008763670921325,-0.9226103147928858,-0.3162009156182408,-5.912231408908963,-0.4436615945749046,-0.0172789264470338,-1.62236392498e-05,7.817667555347085,-9.63807106018e-05
2025-04-30 01:16:44.972999200,6.664999267578125,-0.0532006281124347,0.0114712864160537,0.0414205099342444,-0.0173903759568929,-0.1188797301624914,0.8871403954661422,-0.2928933503537483,left,0.0010026097297668,-0.9233468287305164,-0.3145290734158829,-5.906552778750657,-0.4439977159350703,-0.0113591141998767,-0.0021391957998275,7.822026335078477,-0.0014492273330688
2025-04-30 01:16:45.012999400,6.70499951171875,-0.0532435225672049,0.0093731842935085,0.0413072136693557,-0.0058495784178376,-0.1185957808386328,0.8870742442257643,-0.2923207936296474,left,-0.0022940039634704,-0.9238092343515302,-0.3145899367576464,-5.902927573990821,-0.4442163865254303,-0.0090932194143533,-0.0029738396406173,7.824760728478431,0.0025469064712524
2025-04-30 01:16:45.052999200,6.744999267578125,-0.0532435225672049,-0.0023803133517503,0.0413072136693557,-0.0057331719435751,-0.1185957808386328,0.8870742442257643,-0.2923207936296474,left,0.0007763504981994,-0.9238092343515302,-0.3145899367576464,-5.902927573990821,-0.4442163865254303,-0.0090986294671893,-0.0042496994137763,7.824760728478431,0.0004820823669433
2025-04-30 01:16:45.092999200,6.784999267578125,-0.0534008546485892,0.001836507115513,0.0412660207281876,0.0064668492414057,-0.1184641370494274,0.8869047915114756,-0.2921852779694273,left,-1.59740447998e-05,-0.9246358226449016,-0.3151733626687899,-5.896417753705382,-0.4445936340590512,-0.0169468186795711,-0.0021643750369548,7.829643824344873,0.0015316009521484
2025-04-30 01:16:45.132999200,6.824999267578125,-0.0534008546485892,-0.0001766611821949,0.0412660207281876,0.0069077513180673,-0.1184641370494274,0.8869047915114756,-0.2921852779694273,left,0.0001345872879028,-0.9246358226449016,-0.3151733626687899,-5.896417753705382,-0.4445936340590512,-0.0073236851021647,-0.0025260709226131,7.829643824344873,0.0014457702636718
2025-04-30 01:16:45.172999200,6.864999267578125,-0.0528453022073964,0.0082929544150829,0.0415402689874486,0.0112044066190719,-0.1184762679609102,0.8867058477482533,-0.2920236978039122,left,-2.62260437011e-05,-0.9255354542421924,-0.3115253250226378,-5.889554882198572,-0.4449614455045383,-0.0109247481450438,-0.0023422911763191,7.834953036668896,0.0067706704139709
2025-04-30 01:16:45.212999200,6.904999267578125,-0.0528453022073964,0.0081317825242877,0.0415402689874486,0.006297031417489,-0.1184762679609102,0.8867058477482533,-0.2920236978039122,left,0.0013368129730224,-0.9255354542421924,-0.3115253250226378,-5.889554882198572,-0.4449614455045383,0.0031511513516306,-0.0012555941939353,7.834953036668896,0.0060871243476867
2025-04-30 01:16:45.252999200,6.944999267578125,-0.0515053304544479,0.0093087637796998,0.0419224482594009,0.0093133356422185,-0.1183658384928992,0.8867492541361172,-0.2910948648764067,left,0.0033323764801025,-0.9254605805141138,-0.3036633960084989,-5.890552661064267,-0.44486843186372,0.0097565306350588,-0.0011174324899911,7.834511138120293,0.0008701086044311
2025-04-30 01:16:45.292999200,6.984999267578125,-0.0515053304544479,0.0042431047186255,0.0419224482594009,0.0098302634432911,-0.1183658384928992,0.8867492541361172,-0.2910948648764067,left,0.0011216402053833,-0.9254605805141138,-0.3036633960084989,-5.890552661064267,-0.44486843186372,0.0093613527715206,-2.37748026847e-05,7.834511138120293,-0.0004085302352905
2025-04-30 01:16:45.332999200,7.024999267578125,-0.0500937297185622,0.0075452267192304,0.0423107562845681,0.0059236478991806,-0.118300971300926,0.8868863279750545,-0.2901899215681434,left,-0.0006724596023559,-0.9249436710206512,-0.2955507436363026,-5.895019577345252,-0.4445756063655381,0.0055933687835931,0.0007768105715513,7.831461687421799,0.001732051372528
2025-04-30 01:16:45.372999200,7.064999267578125,-0.0500937297185622,0.0070772203616797,0.0423107562845681,0.0006647785194218,-0.118300971300926,0.8868863279750545,-0.2901899215681434,left,-0.0024505853652954,-0.9249436710206512,-0.2955507436363026,-5.895019577345252,-0.4445756063655381,0.0139319850131869,0.0003530737012624,7.831461687421799,-0.0017108917236328
2025-04-30 01:16:45.412999200,7.104999267578125,-0.0489952056733862,0.0071716583333909,0.0424830355617187,-0.0012353734346106,-0.1180887351617891,0.8871354565465327,-0.2890693685937979,left,-0.0041256546974182,-0.9240012138324196,-0.2894360236156731,-5.902708378282189,-0.4441180426312958,0.0175654664635658,0.0001541208475828,7.825895285466313,-0.0020658373832702
2025-04-30 01:16:45.452999200,7.144999267578125,-0.0480164721290945,0.0082670729607343,0.0426566575641139,0.0019765100441873,-0.1179221771615749,0.8873346903096904,-0.288131748127532,left,-0.00082528591156,-0.9232492831576136,-0.2839411342601292,-5.9088663163900375,-0.4437477620504224,0.0136404074728488,0.0007595345377922,7.821449411973357,-0.005010187625885
2025-04-30 01:16:45.492999200,7.184999267578125,-0.0480164721290945,0.0008895969949662,0.0426566575641139,-0.0052058780565857,-0.1179221771615749,0.8873346903096904,-0.288131748127532,left,-0.001781404018402,-0.9232492831576136,-0.2839411342601292,-5.9088663163900375,-0.4437477620504224,-0.0008394112810492,0.0003203097730875,7.821449411973357,-0.0041978955268859
2025-04-30 01:16:45.532999200,7.224999267578125,-0.0480164721290945,-0.0052919830195605,0.0426566575641139,-0.0039589628577232,-0.1179221771615749,0.8873346903096904,-0.288131748127532,left,-0.0012226700782775,-0.9232492831576136,-0.2839411342601292,-5.9088663163900375,-0.4437477620504224,-0.0240713395178318,-0.0002074390649795,7.821449411973357,-0.0019829869270324
2025-04-30 01:16:45.572999200,7.264999267578125,-0.0485292483617509,0.0118180904537439,0.042535341436022,-0.0125850308686494,-0.1177275926813883,0.8869942219592396,-0.2881048199441332,left,0.0013452768325805,-0.9248609350067284,-0.286359118654672,-5.896120816585421,-0.4444909984358381,-0.041311390697956,0.0018096361309289,7.83097302712202,0.001419723033905
2025-04-30 01:16:45.612999200,7.304999267578125,-0.0485875970836966,0.0267313942313194,0.042352081520404,-0.032405711710453,-0.117143137891725,0.8867512001589097,-0.286953103639684,left,0.0008347630500793,-0.926283242937356,-0.286161915582139,-5.884973984149098,-0.4451473501446266,-0.0253569688647985,0.004695413634181,7.8393609162390225,0.0042162537574768
2025-04-30 01:16:45.652999200,7.344999267578125,-0.0484405028730056,0.0362043343484401,0.0420049849220498,-0.0367178507149219,-0.1162081877028678,0.8866918512837969,-0.2848486430972256,left,0.001660943031311,-0.9270979888879972,-0.2849868621870875,-5.878633090689778,-0.4455431723458041,-0.0123337423428893,0.0047416090965271,7.84415867190957,0.0031881928443908
2025-04-30 01:16:45.692999200,7.384999267578125,-0.0483772558964716,0.0215466506779193,0.0415889068415144,-0.0363744236528873,-0.1153089909621456,0.886772675482939,-0.2828045414737145,left,0.0010753273963928,-0.9272631371267708,-0.2845524528251961,-5.877358248448371,-0.4456551397835693,0.0022993423044681,0.0024048797786235,7.845130731812119,0.0021223425865173
2025-04-30 01:16:45.732999200,7.424999267578125,-0.0491712061030518,-0.0045358091592788,0.0410468586078512,-0.0354601182043552,-0.1148053283829369,0.8868964065290778,-0.2820401906240469,left,0.0010575652122497,-0.9269750952267576,-0.2893297684959136,-5.879387708449364,-0.445589295077324,0.0134570263326168,-0.0010707322508096,7.843435618332028,0.0001610517501831
2025-04-30 01:16:45.772999200,7.464999267578125,-0.0506274495927048,-0.0058370484039187,0.0404165016715741,-0.0235863886773586,-0.1146644369811806,0.8870945471028708,-0.2823720261873781,left,-0.0025587677955627,-0.9261209131452204,-0.298230210244935,-5.885649106931686,-0.4452886095476986,0.0283844918012619,-0.0020722728222608,7.838404638427495,0.0021912455558776
2025-04-30 01:16:45.812999200,7.504999267578125,-0.0513817401060241,0.0011031371541321,0.0400170592840067,-0.0133189633488655,-0.1145910179509259,0.8873777418259822,-0.2824648861189875,left,-0.0010719895362854,-0.9248743623195887,-0.3031711920447647,-5.895175644689798,-0.4447789906539457,0.0307677891105413,-0.0025493018329143,7.831052522099018,0.0012847185134887
2025-04-30 01:16:45.852999200,7.544999267578125,-0.0515463206662279,0.0029681238811463,0.0397853931457529,-0.0109262019395828,-0.1144248669228736,0.8876315673745756,-0.2820726136380593,left,-5.53131103515e-05,-0.923833278585142,-0.3045613312289119,-5.90326484312117,-0.4443359152914219,0.02388914860785,-0.003818055614829,7.824902767297625,-0.0042823553085327
2025-04-30 01:16:45.892999200,7.584999267578125,-0.0518269402610841,0.0020504484418779,0.0395954332202657,-0.0044975727796554,-0.1143577654286059,0.8877948588492993,-0.2819944011008241,left,-0.0015771985054016,-0.923132988352826,-0.3065016881743446,-5.908650043290853,-0.4440438246413178,0.0078014750033617,-0.0020028688013553,7.820761429709195,-0.0024966597557067
2025-04-30 01:16:45.932999200,7.624999267578125,-0.0518269402610841,0.0082263434305787,0.0395954332202657,-0.0073410524055361,-0.1143577654286059,0.8877948588492993,-0.2819944011008241,left,0.0007845163345336,-0.923132988352826,-0.3065016881743446,-5.908650043290853,-0.4440438246413178,0.0048752082511782,-0.0010086521506309,7.820761429709195,-0.0012748837471008
2025-04-30 01:16:45.972999200,7.664999267578125,-0.0515561523051294,0.0269073508679866,0.0394064056466599,-0.0212525948882102,-0.1138421654886168,0.8879167550566063,-0.280674680435622,left,-0.0012738108634948,-0.9228952618475246,-0.3049974576238543,-5.910588902398944,-0.443949314728483,-0.0061653796583414,-0.0012171808630228,7.81935448552072,0.0071344375610351
2025-04-30 01:16:46.012999400,7.70499951171875,-0.0508349875081889,0.0344918332993984,0.0392059665588218,-0.0341804921627044,-0.112961101285872,0.8880358191639273,-0.2783296063257603,left,-0.0009691715240478,-0.9228942275720332,-0.3007353066673502,-5.910815696892142,-0.4439540339800882,0.0078831035643816,-0.0017004497349262,7.819348055779933,-1.74045562744e-05
2025-04-30 01:16:46.052999200,7.744999267578125,-0.0504854632274855,0.034152016043663,0.0388343951934089,-0.0312521904706954,-0.1120506177701643,0.8882377122358873,-0.2760693401045223,left,-0.0006154179573059,-0.9225213096135002,-0.2988164309013634,-5.913831829842925,-0.443813465122309,0.0102928634732961,-0.0024352930486202,7.817140901124477,0.0006398558616638
2025-04-30 01:16:46.092999200,7.784999267578125,-0.0497681799211677,0.0325217023491859,0.0386131403932922,-0.0255388133227825,-0.1111720463575651,0.8884090378908582,-0.2737100520891469,left,-0.0001454949378967,-0.9222765197451502,-0.2946696499528363,-5.9159553978681565,-0.4437107691853345,0.0026140171103179,-0.0044447891414165,7.815690702316164,-0.0021528005599975
2025-04-30 01:16:46.132999200,7.824999267578125,-0.048586252402494,0.046140469610691,0.0386040604485322,-0.0123057765886187,-0.1103130636047904,0.8884589502150613,-0.271213634714487,left,-0.0021337270736694,-0.9225754103543512,-0.2875637086714617,-5.913965685355663,-0.4438258800625385,-0.0128569081425666,-0.0044955983757972,7.817461219120025,0.0019540190696716
2025-04-30 01:16:46.172999200,7.864999267578125,-0.0461130853149264,0.0724922716617584,0.0389380424257126,0.0014065681025385,-0.1091977375909083,0.8884409894447601,-0.2675383374305244,left,-0.0081295371055603,-0.9233593207497436,-0.2726540713692084,-5.908536061522364,-0.4441084936064094,-0.0223749056458473,-0.0004795473068952,7.822099984836578,0.0059208869934082
2025-04-30 01:16:46.212999200,7.904999267578125,-0.0415781738013758,0.1063929200172424,0.039725531514018,-0.0040118102915585,-0.1075929268287124,0.888457836345895,-0.2617416343508852,left,-0.0030183792114257,-0.9243074884632996,-0.2455482935070991,-5.902298628437519,-0.4443966779405424,-0.0182127505540847,0.0003608167171478,7.827704965236783,0.0051732659339904
2025-04-30 01:16:46.252999400,7.94499951171875,-0.0357201019171717,0.1371102780103683,0.0405905932996602,-0.0223296582698822,-0.1052825195314827,0.888578058753421,-0.2536830947529381,left,0.0011101961135864,-0.9251756110705424,-0.2107254384616389,-5.896842701119184,-0.4446314378647281,-0.0158320870250463,0.0010670367628335,7.832830053165554,0.0032656788825988
2025-04-30 01:16:46.292999200,7.984999267578125,-0.0298009282733149,0.1378822773694992,0.0412095093090913,-0.0432438179850578,-0.1024663880661205,0.8887735731092061,-0.2444413863634211,left,-0.0007725358009338,-0.9259163964395688,-0.1756445535345003,-5.892184646180271,-0.4448415162444027,-0.0115422122180461,0.0013894885778427,7.837199354290962,-0.0029317736625671
2025-04-30 01:16:46.332999200,8.024999267578124,-0.0250348568888519,0.1070391237735748,0.0415001650369701,-0.0516112893819808,-0.0997963123123002,0.8889775230314292,-0.2360880975825697,left,-0.0011944770812988,-0.9264590604335028,-0.1474536290504969,-5.888702649283409,-0.4450140068185751,-0.0100140571594238,-0.0015660356730222,7.840396689027547,-0.0073326230049133
2025-04-30 01:16:46.372999200,8.064999267578125,-0.0223229044503698,0.0603652969002723,0.0414562507568912,-0.0351442620158195,-0.0978531691419764,0.8891227617745042,-0.2303845822944405,left,-0.0071269273757934,-0.926821420165332,-0.1314197734912857,-5.88623888951838,-0.4451592145164675,-0.0055678929202258,-0.002526219934225,7.842530778446793,-0.0096445083618164
2025-04-30 01:16:46.412999200,8.104999267578124,-0.0210668049833577,0.0269977562129497,0.0413862965978183,-0.0158251840621233,-0.0968329448563347,0.8891653855685415,-0.2274831316716517,left,-0.00629323720932,-0.9271491417905008,-0.1239718229723628,-5.883829490289092,-0.4453036772677925,-0.0106696914881467,-0.0033103646710515,7.844460285204648,-0.0061348676681518
2025-04-30 01:16:46.452999200,8.144999267578125,-0.0202883096421884,0.0170736014842987,0.041449747018362,-0.001274961978197,-0.096386329413251,0.8891241877665289,-0.2261162556260798,left,-0.0038158893585205,-0.9275605396735828,-0.1193257872648071,-5.8806982065260405,-0.4454770198596123,-0.0079178549349308,-0.0004178071394562,7.846880205827951,-0.0010603666305541
2025-04-30 01:16:46.492999200,8.184999267578124,-0.0194060286312388,0.0184576828032732,0.0415743355764877,-0.0088141579180955,-0.0960215609531436,0.8891211795850267,-0.2248671332147475,left,0.0010879635810852,-0.9277628504559172,-0.1141065182465594,-5.879214689970016,-0.4455503057326831,-0.0074902875348925,-0.0003674775362014,7.848070292395353,0.0022748708724975
2025-04-30 01:16:46.532999200,8.224999267578125,-0.0185671851720853,0.0378771983087062,0.0415372431301551,-0.0241332836449146,-0.0953565712050559,0.8891382975959463,-0.2229675658249425,left,0.0017523169517517,-0.9280165296454246,-0.109137762523815,-5.877316747394204,-0.4456623243037443,-0.0077153439633548,0.0001234402880072,7.849561992257833,0.0021308660507202
2025-04-30 01:16:46.572999200,8.264999267578125,-0.0173466621368787,0.0449172705411911,0.0414233175451518,-0.032761875540018,-0.0943054598582717,0.8892314182740246,-0.2199980573266374,left,0.00148206949234,-0.9281169209805118,-0.1019506000992376,-5.876656822180748,-0.4457106695421477,-0.0020667966455221,-0.0004087463021278,7.850151774844527,-0.0002012252807617
2025-04-30 01:16:46.612999200,8.304999267578125,-0.0162624458505302,0.0337787270545959,0.0412435867184632,-0.0330197587609291,-0.0932081649503366,0.8893177581371943,-0.2169958798296004,left,0.0004525780677795,-0.928261087914488,-0.0955605794017203,-5.875632739830016,-0.4457859203714776,-0.0044581368565559,-0.0016349647194147,7.850999331584572,-0.0045844316482543
2025-04-30 01:16:46.652999200,8.344999267578125,-0.0164797524633049,0.0090893972665071,0.0408562588227087,-0.0356528982520103,-0.0925277078201468,0.8892962119782475,-0.2156001304379434,left,-0.0011284351348876,-0.9286702783898434,-0.0967844495077151,-5.87239974925816,-0.4460064020367681,-0.0124987447634339,-0.0040621720254421,7.853402885594964,-0.0062583684921264
2025-04-30 01:16:46.692999200,8.384999267578126,-0.0171221990528963,0.0004685232415795,0.0405464842192439,-0.0118991676717996,-0.0922455034551155,0.8891631705151241,-0.2153323704842598,left,-0.002916395664215,-0.9293831954222854,-0.1004612474574707,-5.866736901190877,-0.4463582198994651,-0.0195487290620803,-0.0032174997031688,7.857588062325119,-0.0048035383224487
2025-04-30 01:16:46.732999200,8.424999267578125,-0.0179135694363636,-0.0027200109325349,0.0403153993132267,-0.0026911301538348,-0.0922086260835829,0.8889870807847399,-0.2156964838825832,left,-0.0051976442337036,-0.930170895730322,-0.1049930639345198,-5.86046439679265,-0.4467372240044175,-0.0181832835078239,-0.0041739800944924,7.862207538819312,-0.0024405717849731
2025-04-30 01:16:46.772999200,8.464999267578126,-0.0182536629403683,0.0017587789334356,0.0402650389722426,-0.003689412260428,-0.0922043462592527,0.8887595660341401,-0.2159217171070704,left,-0.0026362538337707,-0.9311775608464316,-0.1068416692095808,-5.852513145527244,-0.4471952696860063,-0.0271397940814495,-0.0054255770519375,7.868104195642471,-0.0028886198997497
2025-04-30 01:16:46.812999200,8.504999267578125,-0.0185619526052358,0.011534709483385,0.0401365270242763,-0.0145507091656327,-0.0920382617453168,0.8885747340868428,-0.2157598127802552,left,-0.0001166462898254,-0.9320682064836386,-0.1085158129668794,-5.845470825800299,-0.4476080889938985,-0.0163056775927543,-0.0052006402984261,7.873314623767137,-0.0067296624183654
2025-04-30 01:16:46.852999200,8.544999267578126,-0.0192211835350112,0.0159963052719831,0.0398110128352095,-0.0167695190757513,-0.0917326492941155,0.8884395642855172,-0.2154506747654439,left,-0.0020159482955932,-0.9327970501734154,-0.1122589724174235,-5.839658924651146,-0.4479680257710258,-0.0284598544239997,-0.0028742672875523,7.877573450255394,-0.0046948790550231
2025-04-30 01:16:46.892999200,8.584999267578125,-0.0192057783671582,0.0211548060178756,0.0396570652297385,-0.0161916706711053,-0.0912122201213267,0.8881290610637722,-0.2143740530828312,left,0.0006546974182128,-0.9344068847888464,-0.1119253200162667,-5.826973630601168,-0.4487029818544807,-0.0510518252849578,-0.0024952236562967,7.886965547978877,-0.0034447312355041
2025-04-30 01:16:46.932999200,8.624999267578126,-0.019613726771004,0.0004119351506233,0.0394617520682062,-0.0171248186379671,-0.0908430936948602,0.8877205548002787,-0.2138746534594809,left,-0.002184510231018,-0.936371670029892,-0.1139982903654221,-5.811424179291725,-0.4496027405695941,-0.0547352135181427,-0.0027322648093104,7.898401718750596,0.0025464296340942
2025-04-30 01:16:46.972999200,8.664999267578125,-0.0203021840664947,-0.0116352681070566,0.0393423649458696,-0.0079354913905262,-0.0907523193401004,0.8871859532259311,-0.2141728080778079,left,-0.000651478767395,-0.9387573409121576,-0.1176163347321096,-5.792489177197218,-0.4506855338422966,-0.0574936494231224,-0.0032862881198525,7.912245535185932,0.0021108984947204
2025-04-30 01:16:47.012999400,8.70499951171875,-0.0211260005869458,-0.0165233947336673,0.0392904682702154,0.0066911233589053,-0.0909281972964589,0.8867100854163047,-0.2151184126206991,left,-0.0032676458358764,-0.9407565736224106,-0.1220538148560561,-5.776562709268927,-0.451590027885507,-0.0428999811410903,-0.0037125200033187,7.923812638860941,0.0060310363769531
2025-04-30 01:16:47.052999200,8.744999267578125,-0.0211790719464362,-0.0204172153025865,0.0396044599427731,0.0255325399339199,-0.0913890421076669,0.8863251917004243,-0.2162823463140871,left,0.0008149147033691,-0.942237094321824,-0.122111837786762,-5.764822002592682,-0.4522249114603416,-0.0302855335175991,-0.001172904856503,7.932358348888158,0.0029090046882629
2025-04-30 01:16:47.092999200,8.784999267578126,-0.0213785687171536,-0.0295816846191883,0.0399524163066779,0.0276202354580163,-0.0920522543478357,0.8859961015608657,-0.217956280801582,left,0.0039737224578857,-0.9433748061339222,-0.1230688827832695,-5.755770681130886,-0.4527043046351294,-0.0233878772705793,0.0002433797344565,7.938913177359104,0.004678726196289
2025-04-30 01:16:47.132999200,8.824999267578125,-0.0222583078120286,-0.0309576019644737,0.0401344772017333,0.02264248393476,-0.0928632374623037,0.8857178159965543,-0.220292788406444,left,0.0037024021148681,-0.9442078336882468,-0.1279851502669509,-5.749045172268152,-0.4530667805745051,-0.0190832689404487,0.0019754031673073,7.943706256854534,0.0063021779060363
2025-04-30 01:16:47.172999200,8.864999267578124,-0.0229582361066817,-0.0189643390476703,0.0402875041023601,0.016376256942749,-0.0934989923754799,0.8854562459980339,-0.2221439593593775,left,0.0035097599029541,-0.9450481212164916,-0.1318557720220647,-5.742279915916919,-0.4534337190915642,-0.0185499917715787,0.0019106864929199,7.948535576707124,0.0070295929908752
2025-04-30 01:16:47.212999200,8.904999267578125,-0.0234585328434568,-0.0180421452969312,0.0403853461917557,0.0081626595929265,-0.093922350794319,0.8852597864058579,-0.2234016140879229,left,0.0010324716567993,-0.945702458127664,-0.1346065777007024,-5.737012789168953,-0.4537210616946622,-0.0086497562006115,0.0011812634766101,7.95229229889214,0.0060245990753173
2025-04-30 01:16:47.252999400,8.94499951171875,-0.0241427732177296,-0.0191678386181592,0.0403693440122813,0.0045967968180775,-0.0942790513332068,0.8851372338586208,-0.2245831080463367,left,0.0020742416381835,-0.9460599305871216,-0.1384633901261724,-5.734076151195168,-0.4538874467929206,-0.0027010254561901,-0.0002236030995845,7.95434338620305,0.0031347870826721
2025-04-30 01:16:47.292999200,8.984999267578125,-0.0256465983631645,-0.0267664324492216,0.0401235094254105,0.0018538632430136,-0.0947692267315116,0.8851008779128725,-0.2264550415309419,left,-0.001020073890686,-0.945963124402756,-0.1471060303223784,-5.73463144699037,-0.4538780681247186,0.0069656353443861,-0.000975377857685,7.953788090407848,0.0037789344787597
2025-04-30 01:16:47.332999200,9.024999267578124,-0.0270403799972256,-0.0201158635318279,0.0398772556653088,-0.0011535128578543,-0.0952396335346525,0.8851518119161836,-0.2281989443244497,left,-0.0030477643013,-0.9454936014173584,-0.1551996583336964,-5.738153191375732,-0.4537019284777002,0.0134684052318334,-0.0016946215182542,7.951093444496393,0.0041479468345642
2025-04-30 01:16:47.372999200,9.064999267578123,-0.0278846319433376,-0.006845817901194,0.0397170693660659,0.0062854317948222,-0.0955449184717057,0.8852487241325083,-0.2292790408521314,left,-0.0031449198722839,-0.9449098170822916,-0.1601734464245848,-5.742659270623326,-0.4534627140908189,0.0108827920630574,-0.0018246471881866,7.94774121145904,0.0027617216110229
2025-04-30 01:16:47.412999200,9.104999267578124,-0.0278846319433376,-0.0011564181186258,0.0397170693660659,0.0116486232727766,-0.0955449184717057,0.8852487241325083,-0.2292790408521314,left,-0.0025119185447692,-0.9449098170822916,-0.1601734464245848,-5.742659270623326,-0.4534627140908189,-0.004643578082323,-0.0028765983879566,7.94774121145904,0.0015746355056762
2025-04-30 01:16:47.452999200,9.144999267578124,-0.027356825633379,-0.0095593500882387,0.0400916976824707,0.0282703731209039,-0.095927268967311,0.8851888914789581,-0.229879182612065,left,-0.0039321184158325,-0.9450013420675908,-0.1571225161550566,-5.742016296544671,-0.4534658949562816,-0.0044107516296207,-0.0014524776488542,7.948267281159758,-0.0046880841255187
2025-04-30 01:16:47.492999200,9.184999267578124,-0.0270192892711492,-0.017676193267107,0.0404972478309172,0.0287159048020839,-0.0965049409809878,0.8851294385656053,-0.2310109385838619,left,-0.0016489028930664,-0.9449934408062914,-0.1551860681997612,-5.742132031878828,-0.4534233569535963,0.0019037933088839,-0.0002341624349355,7.948221688452363,-0.0030889511108398
2025-04-30 01:16:47.532999200,9.224999267578124,-0.0268666553497731,-0.0167453568428754,0.0408768638046657,0.0293061099946498,-0.0971483347970176,0.8850591236001399,-0.2323868239142323,left,-0.0042974948883056,-0.9449964216898707,-0.1543090113705955,-5.742132616400719,-0.4533892583626044,-0.0090609397739171,0.001042210496962,7.948238639587164,0.0025135874748229
2025-04-30 01:16:47.572999200,9.264999267578125,-0.0269942994895065,-0.0134312026202678,0.0411525359157327,0.0186365693807601,-0.0976818264972468,0.8848589648423775,-0.2337029544156193,left,-0.0044675469398498,-0.9456113525211456,-0.1549099912047386,-5.73722497061491,-0.4536401843911224,-0.0209999438375234,-0.0001933891326189,7.95176973632276,0.0039376020431518
2025-04-30 01:16:47.612999200,9.304999267578124,-0.0268439797997646,-0.0064848712645471,0.0414933025589008,0.032334741204977,-0.09810979009406,0.884581636205071,-0.2346674316883326,left,-0.00568288564682,-0.9466183000907948,-0.1538325894978828,-5.72924215516746,-0.4540575728334367,-0.0299466419965028,0.0006839595735073,7.957544812592864,0.0034943222999572
2025-04-30 01:16:47.652999200,9.344999267578125,-0.0259180016586554,-0.0201239958405494,0.0421784698520335,0.049230083823204,-0.0986831137946979,0.8842371368804806,-0.2355796832195418,left,0.0043905377388,-0.9478591870702128,-0.1482713477747049,-5.71950577405095,-0.4545408285179383,-0.0232906285673379,0.002229175530374,7.964650260683894,-0.006314218044281
2025-04-30 01:16:47.692999200,9.384999267578126,-0.0259037095811603,-0.0417973361909389,0.0427741100554179,0.0466659665107727,-0.0997354791781146,0.8839608859564575,-0.2380038907416432,left,0.0094627141952514,-0.9485479009510728,-0.1480474758909549,-5.714022374203801,-0.4547926305863858,-0.0139423320069909,0.0047667054459452,7.968588769176602,-0.0005491375923156
2025-04-30 01:16:47.732999200,9.424999267578125,-0.0273991287335195,-0.0548037849366664,0.0429260164668523,0.0196771398186683,-0.1009628421693764,0.8837954117462394,-0.2415570211678391,left,0.0074628591537475,-0.9486332522164782,-0.1565735405027866,-5.713115196231008,-0.4548291693404488,0.0036415150389075,0.0040751546621322,7.96907684495449,0.0052801370620727
2025-04-30 01:16:47.772999200,9.464999267578126,-0.0298011759261303,-0.0377204120159149,0.0425874231719988,0.0015895273536443,-0.1019169671093661,0.8838251290964436,-0.2449014836617064,left,0.0001489520072937,-0.94797751751836,-0.1704518985285423,-5.717943931561708,-0.4545902858238416,0.0250199288129806,0.0047377552837133,7.965327721554041,0.0127440094947814
2025-04-30 01:16:47.812999200,9.504999267578125,-0.0313304321019378,-0.0136409420520067,0.0422180094423329,-0.0059698512777686,-0.1023653821558161,0.8840759500743434,-0.2465958857328637,left,0.0018661618232727,-0.9466254170568654,-0.1795331219382584,-5.728436099481582,-0.4540359986991877,0.0423989258706569,0.0027657449245452,7.957585729125141,0.0087227225303649
2025-04-30 01:16:47.852999200,9.544999267578126,-0.0324065594626266,-0.0116925099864602,0.0417812294912611,-0.0222551152110099,-0.1024538444548606,0.8844547521663909,-0.247211394460531,left,0.0058484673500061,-0.944902687434086,-0.186141415895801,-5.741932125392556,-0.4533180655476108,0.0460733622312545,-0.0005333255976438,7.947700294926762,0.0053519010543823
2025-04-30 01:16:47.892999200,9.584999267578125,-0.0340642147303177,-0.0167051143944263,0.0411319704194741,-0.022141532972455,-0.102503798626458,0.8848381779888215,-0.2480336970157656,left,0.0020171403884887,-0.9431614732627138,-0.1961303287349641,-5.755438088175654,-0.4526173904658232,0.0363356471061706,-0.0025266055017709,7.937685096868872,0.0030727386474609
2025-04-30 01:16:47.932999200,9.624999267578126,-0.035457498588942,-0.0116689121350646,0.0406181784424152,-0.013079416938126,-0.1026190634838367,0.8851626304536648,-0.2488837560278016,left,0.0007626414299011,-0.941647266991411,-0.2045749530078843,-5.767164766326546,-0.4520028954381228,0.0376749373972415,-0.006115922704339,7.928955846968293,0.0018355846405029
2025-04-30 01:16:47.972999200,9.664999267578125,-0.0365164190611062,-0.0076726609840989,0.0402026082931448,-0.0082017946988344,-0.1027045974114232,0.8854759087839918,-0.2494993688801255,left,-0.0026086568832397,-0.9402023430961336,-0.2110998612646013,-5.778388171130419,-0.4514066560580324,0.035591185092926,-0.0066529531031847,7.920609458905458,-0.0021671652793884
2025-04-30 01:16:48.012999400,9.70499951171875,-0.0367519636783358,-0.0085025914013385,0.04012725274906,-0.0024505397304892,-0.1028748192139347,0.8857020883144326,-0.2499147543267904,left,-0.0023695826530456,-0.939115970837142,-0.2127769458976574,-5.7869332966357465,-0.4509305317765247,0.0295837633311748,-0.0074620656669139,7.914322925981879,-0.007087767124176
2025-04-30 01:16:48.052999200,9.744999267578123,-0.0369862874722484,-0.0093325208872556,0.0400519069096623,0.0033007157035171,-0.1030449934802232,0.8859280194718583,-0.2503290006560283,left,-0.0021311044692993,-0.938029492734761,-0.2144507791277021,-5.795471992400288,-0.4504542339902984,0.0235763397067785,-0.0082714986056089,7.908027040708064,-0.0120073556900024
2025-04-30 01:16:48.092999200,9.784999267578126,-0.0374318447161261,-0.0025924295186996,0.0399242152548745,-0.001790789887309,-0.1032011425850752,0.8860829123806468,-0.2508443080771255,left,-0.0045849680900573,-0.9372563381809218,-0.2172617448952049,-5.801484969079494,-0.4501251652774909,0.0111219454556703,-0.0075666438788175,7.9035402506828305,-0.0058858394622802
2025-04-30 01:16:48.132999200,9.824999267578123,-0.0374318447161261,0.0110168503597378,0.0399242152548745,0.0029276977293193,-0.1032011425850752,0.8860829123806468,-0.2508443080771255,left,-0.0104140639305114,-0.9372563381809218,-0.2172617448952049,-5.801484969079494,-0.4501251652774909,-0.0011201705783605,-0.0080284960567951,7.9035402506828305,-0.0027024149894714
2025-04-30 01:16:48.172999200,9.864999267578124,-0.0362228174099023,0.0215291082859039,0.0401477837608544,-0.0003458869177848,-0.1028244116206868,0.8860830948567732,-0.2493981456399812,left,-0.0099704265594482,-0.937480793021131,-0.2101831665447913,-5.799969888341426,-0.450191072072776,-0.01068683154881,-0.0079368166625499,7.904843149974941,0.0007997751235961
2025-04-30 01:16:48.212999200,9.904999267578123,-0.0344600257921597,0.030641034245491,0.0405126479106534,0.0061780167743563,-0.1023568820405144,0.8860799289053694,-0.2474712821971641,left,-0.0031051635742187,-0.9377789303915044,-0.1998775341729633,-5.797976668697595,-0.4502712603260846,-0.0055415881797671,-0.0035548564046621,7.906573334768414,6.97374343872e-05
2025-04-30 01:16:48.252999400,9.94499951171875,-0.0328804400495391,0.0132983196526765,0.0408486751527297,0.0031313356012105,-0.1019978049290668,0.8861322176039037,-0.2458575120989396,left,0.0066904425621032,-0.9377701544799768,-0.1907211631678044,-5.798354269838333,-0.4502194996327021,-0.0020463981200009,-0.0027705505490303,7.906522481364012,-0.0047044157981872
2025-04-30 01:16:48.292999200,9.984999267578123,-0.0318536778765108,0.01230607368052,0.0410950805592061,0.0090496810153126,-0.1017923523756589,0.8861215040628649,-0.2448859062369598,left,0.0038601756095886,-0.9379457239721524,-0.1847233292588032,-5.797160091617704,-0.45026470771088,-0.0075252335518598,-0.0006875973194837,7.907540718495845,-0.0041040778160095
2025-04-30 01:16:48.332999200,10.024999267578124,-0.0309132823481385,0.0116828568279743,0.0413795791503228,0.0107203368097543,-0.1017061004237707,0.886078235678585,-0.2442332632961378,left,0.0020354390144348,-0.938201444895888,-0.1792091324145905,-5.795310079836845,-0.4503433699021136,-0.0054316679015755,-0.0004286598414182,7.9090236505299805,0.0024255514144897
2025-04-30 01:16:48.372999200,10.064999267578123,-0.0297393739862189,0.019855611026287,0.0416741613882068,0.0117577509954571,-0.1014913203716595,0.8860539878070999,-0.2431703026493266,left,-0.0011571049690246,-0.9384418099126526,-0.172349274848774,-5.7936149663567535,-0.450412163490807,-0.0032646039035171,0.0012336689978837,7.910417150714993,0.0060717463493347
2025-04-30 01:16:48.412999200,10.104999267578124,-0.0283249690120836,0.0181492790579795,0.0419630176277768,0.0111122475937008,-0.1012078360821513,0.8861909350974936,-0.2417789908264911,left,0.0001044273376464,-0.9380123101753206,-0.1642507971324026,-5.797248354423046,-0.4501796318417235,0.0032345487270504,0.0008825398981571,7.907927087464929,0.0044951438903808
2025-04-30 01:16:48.452999200,10.144999267578124,-0.0269122855637768,0.016442947089672,0.0422518580219401,0.0104667441919446,-0.1009242373108217,0.8863277326512848,-0.2403892866520336,left,0.0013654232025146,-0.937581795549241,-0.1561525751443579,-5.800878235358,-0.449947017401632,0.0097337011247873,0.0005314359441399,7.905429425430297,0.0029194355010986
2025-04-30 01:16:48.492999200,10.184999267578124,-0.0255888351785907,0.019179243594408,0.0425422022357598,0.0125101320445537,-0.100698828142663,0.8864548951848252,-0.2391778020873614,left,-0.001823604106903,-0.9371601373044304,-0.1485605217133183,-5.804410501137376,-0.4497194576678887,0.010851283557713,0.0012080250307917,7.90298203227818,0.0049353241920471
2025-04-30 01:16:48.532999200,10.224999267578124,-0.0237190818736983,0.0222378186881542,0.0429982195311119,0.0151408687233924,-0.1004636289317012,0.886616329873812,-0.2376582753561997,left,0.0004816651344299,-0.9366007814383194,-0.1378122784068342,-5.809096613126993,-0.4494103475952529,0.0196243692189455,-0.0002534929662942,7.899733259615302,0.0043217539787292
2025-04-30 01:16:48.572999200,10.264999267578125,-0.0214253043820681,0.0319329388439655,0.043532266779253,0.0219819750636816,-0.1001586870499599,0.88687479072021,-0.2357410038256009,left,-0.0019263625144958,-0.935652626859072,-0.1246475850757677,-5.816884198263288,-0.4489169088763429,0.0218755826354026,0.002110643312335,7.8942200491517776,0.0050309896469116
2025-04-30 01:16:48.612999200,10.304999267578124,-0.0182789662693234,0.037035334855318,0.0442837721513053,0.0186384413391351,-0.0997036614001622,0.8871201371290149,-0.2330672850392411,left,0.0047992467880249,-0.9348428621360356,-0.1064619126443751,-5.8236371796548365,-0.4484596928136456,0.0258470121771097,0.001400233246386,7.889505880111455,0.0024976730346679
2025-04-30 01:16:48.652999200,10.344999267578125,-0.0162154672278285,0.0256795957684516,0.0446353860168148,-0.0079427137970924,-0.0992002643719304,0.8874331443633381,-0.2308157475388663,left,0.0039059519767761,-0.9337365874053132,-0.0945860900800675,-5.832567505085468,-0.44791684835122,0.0331146232783794,0.0008644089102745,7.883057434624433,0.0031076073646545
2025-04-30 01:16:48.692999200,10.384999267578126,-0.0148934745632622,0.0203804709017276,0.0447565703016397,-0.0090464716777205,-0.0987408878855066,0.8877705540389793,-0.2290315326203615,left,0.0003514885902404,-0.932486407505526,-0.0870220845665782,-5.842535941392183,-0.4473370454581872,0.0360065475106239,-0.0032975198701024,7.875758509787917,0.0018422603607177
2025-04-30 01:16:48.732999200,10.424999267578125,-0.0144253692703234,0.0124812750145792,0.0446233644430918,-0.0134356627240777,-0.0983734203044485,0.8881608344586701,-0.2278680857956034,left,-0.0019295811653137,-0.9309450637778256,-0.0844621709506958,-5.854708025223016,-0.4466561895695014,0.0434290282428264,-0.0032344060018658,7.866742844161391,-0.0005257129669189
2025-04-30 01:16:48.772999200,10.464999267578126,-0.0139339995439167,0.0126929292455315,0.0445104620920565,-0.013130915351212,-0.0980597226705775,0.8885979823866355,-0.226800612778929,left,-0.0003578066825866,-0.9291664423558256,-0.0817801744582597,-5.868730705356597,-0.4458663996174535,0.0488633513450622,-0.0030751172453165,7.856316142693162,-0.0037561655044555
2025-04-30 01:16:48.812999200,10.504999267578125,-0.0136639113430763,0.0179319940507411,0.0442749210570395,-0.0185697730630636,-0.0976893365623942,0.8891149392642843,-0.2256972434299999,left,-0.0007717609405517,-0.9270541350782276,-0.0804216633882373,-5.885332880589366,-0.4449396341967041,0.0534246750175952,-0.0040308833122253,7.843900897756218,-0.0064390897750854
2025-04-30 01:16:48.852999200,10.544999267578126,-0.0134582177260262,0.021025400608778,0.0439606129566844,-0.0235238373279571,-0.0971927935254983,0.8896301226258457,-0.2243483949719733,left,-0.0012553334236145,-0.9250049815528671,-0.0794272363902535,-5.901408986121416,-0.4440488421025077,0.0445005521178245,-0.0033012274652719,7.831823506471514,-0.0063595175743103
2025-04-30 01:16:48.892999200,10.584999267578125,-0.0126819610396996,0.0287517644464969,0.043822278065417,-0.011428901925683,-0.0965703397533766,0.8900002027391328,-0.2224785360831943,left,0.0011861324310302,-0.92366415630858,-0.0749792942377971,-5.911962528839707,-0.443456207617323,0.0247941203415393,-0.003440517000854,7.823902650344372,-0.0061999559402465
2025-04-30 01:16:48.932999200,10.624999267578126,-0.0119313024384929,0.0168836861848831,0.0437816470175092,-0.0037692924961447,-0.0960726070777371,0.8902082792322025,-0.2209444156370975,left,-0.0049583315849304,-0.9229828929120916,-0.0706049927102867,-5.9173459754437205,-0.4431506418117348,0.0106390602886676,-0.0044309138320386,7.819872956436872,-0.0025647282600402
2025-04-30 01:16:48.972999200,10.664999267578125,-0.0108782489708666,0.0087388949468731,0.0440093078266415,0.0096272537484765,-0.0958568881126332,0.8902952668857768,-0.2199190008329837,left,-0.0066424012184143,-0.9227076868896388,-0.0643970871140249,-5.919569496712088,-0.4430001548768462,0.007076556328684,-0.0044110896997153,7.818243893930315,-0.0018435716629028
2025-04-30 01:16:49.012999400,10.70499951171875,-0.0106712296372594,-0.0118737211450934,0.0441485424750575,0.018251933157444,-0.0960730463440418,0.8904045168012357,-0.2202659515321057,left,-0.0038071870803833,-0.9221167712736064,-0.0632209012078121,-5.924200663644075,-0.4427197046615855,0.0140423895791172,-0.0015618158504366,7.8147443613767615,0.0007157325744628
2025-04-30 01:16:49.052999200,10.744999267578123,-0.0116124964962867,-0.0309546403586864,0.0440921102750703,0.0288493074476718,-0.0967490764076885,0.8905970985913578,-0.222179335675828,left,-0.0079951882362365,-0.920920242900795,-0.0689056597128044,-5.933484624817967,-0.4421904383774717,0.0303390361368656,-9.3556009232e-06,7.807650019201636,0.0005462169647216
2025-04-30 01:16:49.092999200,10.784999267578126,-0.0116511565141003,-0.0258422773331403,0.0444217763469769,0.0377823933959007,-0.0976418740015146,0.890845388450064,-0.2241082068182807,left,-0.0089825391769409,-0.9193715736046776,-0.069275835598912,-5.94556493871212,-0.4414603862827797,0.0292617436498403,0.0003737402148544,7.798451398223638,-0.0017721652984619
2025-04-30 01:16:49.132999200,10.824999267578123,-0.0115870852697849,-0.0343252643942832,0.0448335375724304,0.0452560521662235,-0.0986412605152228,0.8910927601799266,-0.2262209942699789,left,-0.0068843364715576,-0.9177692369192922,-0.0690395974239334,-5.958056756016612,-0.440696727725485,0.0439725369215011,0.0003963438794016,7.788913754549622,-0.0076678395271301
2025-04-30 01:16:49.172999200,10.864999267578124,-0.0118977843908446,-0.0558641999959945,0.0452080369730838,0.0581605024635791,-0.0999433277902876,0.8914998934354501,-0.2291415276638158,left,-0.0154088735580444,-0.9152852945664828,-0.0711207191135035,-5.97736292951107,-0.4395401766229547,0.0770502090454101,-0.0003311838954687,7.774089110383391,-0.0127906799316406
2025-04-30 01:16:49.212999200,10.904999267578123,-0.012764233837226,-0.1500636637210846,0.0458896469650118,0.1511768400669098,-0.1024285961920032,0.8920352396002285,-0.234907466115533,left,-0.0449198484420776,-0.9115935980365348,-0.076665571390884,-6.005954817745089,-0.4378078028155246,0.1041991934180259,0.0050952993333339,7.751967879468202,-0.0368291139602661
2025-04-30 01:16:49.252999400,10.94499951171875,-0.0165220085074691,-0.425369381904602,0.0477345019429595,0.3649740815162658,-0.1094825774226374,0.8922276408170381,-0.2522447321516475,left,-0.0649248361587524,-0.9068906434008708,-0.0998351971141528,-6.042009296944737,-0.4355051018990477,0.1094828695058822,0.0070538017898797,7.723634349909425,-0.0741767883300781
2025-04-30 01:16:49.292999200,10.984999267578123,-0.0289500826196423,-0.7936285734176636,0.0505013772416082,0.5478003621101379,-0.1246065301105595,0.8912163323415839,-0.2918568910253511,left,-0.0339266061782836,-0.902249573900545,-0.1759518293853849,-6.076068802934885,-0.4331931839534665,0.0862894877791404,0.0008472763001918,7.6955059875339265,-0.07137131690979
2025-04-30 01:16:49.332999200,11.024999267578124,-0.0519808464423851,-0.9627286195755004,0.0524475738625754,0.514515221118927,-0.1454921444956236,0.8887190512546104,-0.3496053755737485,left,0.0265646576881408,-0.8984538927195558,-0.3173446422932669,-6.099531511586904,-0.4315781669074012,0.0315809622406959,-0.0117676630616188,7.672378209924697,-0.0072812438011169
2025-04-30 01:16:49.372999200,11.064999267578123,-0.0787247635934891,-0.8596194386482239,0.0530106963067304,0.4214206039905548,-0.1660868786271592,0.8855041706350455,-0.4086275656948551,left,0.0479500889778137,-0.895227035617921,-0.4822815950589254,-6.113513859710097,-0.4306825079085992,0.0273772105574607,-0.0066074766218662,7.652629553359747,0.0373358726501464
2025-04-30 01:16:49.412999200,11.104999267578124,-0.0975116288639635,-0.7356227040290833,0.0533734619858713,0.357828825712204,-0.1810829248221804,0.8832028240565262,-0.4510443557924675,left,0.0407928824424743,-0.8909641428727647,-0.600214147000201,-6.135787650838494,-0.429317119191702,0.0490595996379852,-0.0064701437950134,7.626417838260531,0.0282560586929321
2025-04-30 01:16:49.452999200,11.144999267578124,-0.1158918639197561,-0.6116259694099426,0.0537238451735081,0.2942370176315307,-0.1960369123938582,0.8806962982012561,-0.4930921521952323,left,0.0338010191917419,-0.8862075592783069,-0.7170701192185283,-6.159682321166992,-0.4278520560244173,0.0707419887185096,-0.0064426138997077,7.597007034859061,0.0195024609565734
2025-04-30 01:16:49.492999200,11.184999267578124,-0.1342436190484908,-0.58664870262146,0.0529090336653577,0.1951905488967895,-0.2088028540580334,0.8784544899556451,-0.5300911013855031,left,0.0273427367210388,-0.8811214654522589,-0.8351447099789977,-6.183697987526655,-0.4265205717374923,0.0610623210668563,-0.0010076090693473,7.565368618535995,0.0226994752883911
2025-04-30 01:16:49.532999200,11.224999267578124,-0.1508748824369536,-0.4675299227237701,0.0512994875271603,0.1602629423141479,-0.2185533821110818,0.8765824101837022,-0.559527332496742,left,0.0264939069747924,-0.8768308536659939,-0.9427372888874264,-6.200987560501694,-0.4256829848206713,0.0281915441155433,0.0020672231912612,7.538526204317808,0.0266361236572265
2025-04-30 01:16:49.572999200,11.264999267578125,-0.1672144870431414,-0.3484111130237579,0.0496847209756584,0.1253353357315063,-0.2282816377364954,0.8746210882587246,-0.5886925535257392,left,0.0257065892219543,-0.8722314832114568,-1.0496882819566875,-6.218879775545001,-0.424802090572599,-0.0046792365610599,0.0050766393542289,7.509598215997219,0.0307853817939758
2025-04-30 01:16:49.612999200,11.304999267578124,-0.1787112767371378,-0.2643008828163147,0.0485481870185485,0.0504372268915176,-0.2347889165345079,0.8730341219676065,-0.6086447727400719,left,0.0172076225280761,-0.869904247569198,-1.1242181838925926,-6.223582838669419,-0.4246512356708793,-0.0064721596427261,0.0046155750751495,7.49490041308105,0.0078296661376953
2025-04-30 01:16:49.652999200,11.344999267578125,-0.1884008938390443,-0.2291709184646606,0.0473956564495317,0.0420298799872398,-0.2395593805569835,0.8716729295278955,-0.6240109831054088,left,-0.0007785558700561,-0.8686829660330186,-1.1861820342440157,-6.221384451842308,-0.4249133147408036,-0.0221167244017124,-0.0019687488675117,7.487171280133723,-0.0040361285209655
2025-04-30 01:16:49.692999200,11.384999267578126,-0.197459543954751,-0.2365932762622833,0.0462288221803818,0.0269456468522548,-0.2439050614638561,0.870430798933392,-0.6380836607028508,left,-0.0075372457504272,-0.8673524276332072,-1.2444433037504552,-6.220148188045621,-0.4251160165258664,0.0106281712651252,-0.0113416165113449,7.478737798309326,-0.0116246342658996
2025-04-30 01:16:49.732999200,11.424999267578125,-0.2054121324431229,-0.1696400493383407,0.0449400138707373,0.031948409974575,-0.2478352344300713,0.8695927347899465,-0.650335327960519,left,-0.0147414207458496,-0.8646995306378192,-1.297911859087646,-6.22945494557321,-0.4246958751492113,0.0315101444721221,-0.0121750086545944,7.461883109620213,0.0087146162986755
2025-04-30 01:16:49.772999200,11.464999267578126,-0.2091203772294888,-0.0969790518283844,0.0444993484629,0.0403498299419879,-0.2505293327036044,0.8691912126822211,-0.6577284285232783,left,-0.0089489221572875,-0.8623002711533827,-1.3247161332525312,-6.242094646915793,-0.4239829768107538,0.0386456362903118,-0.0134369730949401,7.446594355073571,0.0003407597541809
2025-04-30 01:16:49.812999200,11.504999267578125,-0.2101182539401422,-0.0241067484021186,0.044500250589271,0.0587178915739059,-0.2520813067700296,0.8691126438180302,-0.6612911341256564,left,-0.0075768828392028,-0.8603834838293783,-1.3339188458837568,-6.254717397123575,-0.4232232432563219,0.0308729596436023,-0.0047234743833541,7.434349206006527,0.0068117380142211
2025-04-30 01:16:49.852999200,11.544999267578126,-0.2070920493419531,0.0369782112538814,0.045408182917791,0.0409124493598938,-0.2524457216658268,0.8693875661391564,-0.6603398598940002,left,0.0123243331909179,-0.859149937925289,-1.3168693652749062,-6.267695536640286,-0.4223441318884082,0.0178557727485895,-0.0079866498708724,7.426454653364419,0.001457393169403
2025-04-30 01:16:49.892999200,11.584999267578125,-0.2040571601333713,0.0672650933265686,0.046033788054357,-0.0411992296576499,-0.2515228313237715,0.8697080390024194,-0.6568192924480433,left,0.0204677581787109,-0.8594467792497219,-1.2973948494762182,-6.269504631888866,-0.42216719557076,-0.0212224666029214,-0.0066581219434738,7.42835551854968,0.0035482048988342
2025-04-30 01:16:49.932999200,11.624999267578126,-0.2017993431489592,0.0718441605567932,0.0461932440861565,-0.0474904514849185,-0.2498693027284026,0.8700636012606897,-0.6521664767332038,left,0.0133889913558959,-0.8604133136183351,-1.281796298328042,-6.265379660913347,-0.4223987826876764,0.0005895812064409,-0.0089324414730072,7.4345403446644545,-0.009162962436676
2025-04-30 01:16:49.972999200,11.664999267578125,-0.2012774660822665,0.0096956305205821,0.0458341785814797,-0.0533498600125312,-0.2486063025298845,0.8703659618545364,-0.649103706359111,left,0.006041944026947,-0.8607835916622534,-1.2779760093875228,-6.263350785434246,-0.4225603226939717,-0.0020861537195742,-0.0128209888935089,7.436907658317684,-0.0080111026763916
2025-04-30 01:16:50.012999400,11.70499951171875,-0.2046543179998033,-0.0680193901062011,0.0446769967333344,-0.0490453988313674,-0.2486229906002204,0.8702753565103425,-0.6507329465730041,left,0.0025553107261657,-0.8605885977017289,-1.2994137880831955,-6.260419408157468,-0.4228609900346234,0.0018306542187929,-0.0124686360359191,7.435660873126983,-0.0140368938446044
2025-04-30 01:16:50.052999200,11.744999267578123,-0.2100147699127042,-0.0780716612935066,0.0431792742172532,-0.0372753664851188,-0.2497407612869552,0.8700004910729167,-0.6556052218561269,left,-0.0019850134849548,-0.8594051300072817,-1.334787153150886,-6.2619654685556885,-0.4229233611236539,0.0214186832308769,-0.0075002163648605,7.428088976567984,0.0022969245910644
2025-04-30 01:16:50.092999200,11.784999267578126,-0.2141016788968796,-0.0330533720552921,0.0418677087488093,-0.0305913276970386,-0.2505573038780863,0.8699409358935346,-0.6590596625339318,left,-0.0016654133796691,-0.8578214952066443,-1.3628656850352885,-6.267945127487183,-0.4226947352176648,0.032896626740694,-0.0071115493774414,7.417939922997355,-0.0026490688323974
2025-04-30 01:16:50.132999200,11.824999267578123,-0.2132150928169394,0.0171451531350612,0.0418450686939594,-0.0159947238862514,-0.2498234061688952,0.8701497983675793,-0.6569878209094008,left,-0.0074079036712646,-0.8579986516880547,-1.3570302568800747,-6.267867386075854,-0.4227016644763526,0.0197113659232854,-0.0029570907354354,7.419076233550906,-0.0029455423355102
2025-04-30 01:16:50.172999200,11.864999267578124,-0.2123276106787573,0.0673436820507049,0.0418224145756858,-0.0013981210067868,-0.2490892989054363,0.8703580143589896,-0.6549149519457422,left,-0.0131499767303466,-0.8581742889682172,-1.35119234450683,-6.267794905361533,-0.4227082960438074,0.0065261060371994,0.0011971145868301,7.420202607232332,-0.0032411217689514
2025-04-30 01:16:50.212999200,11.904999267578123,-0.209741249591285,0.0630417913198471,0.0422468143326401,0.0218716524541378,-0.2480607872240283,0.8706923082742168,-0.6513702649973101,left,-0.0118113756179809,-0.8584623631088454,-1.334532009346038,-6.269178468674421,-0.4225826347846722,0.0049608605913817,0.0028640776872634,7.422049696403741,-0.0051751732826232
2025-04-30 01:16:50.252999400,11.94499951171875,-0.2072071776456454,0.0468743257224559,0.0427304201725045,0.019288869574666,-0.2472667034549024,0.8709920766785193,-0.6483464587996608,left,-0.006143569946289,-0.8585773865654385,-1.3184655484251675,-6.271704187759757,-0.4223815746800223,0.006822173949331,4.48524951934e-05,7.422786778506636,-0.0079012513160705
2025-04-30 01:16:50.292999200,11.984999267578123,-0.205106385097122,0.0435053668916225,0.0431565247114538,-0.0191281046718359,-0.2465277257838095,0.8711995083465849,-0.6457294996556181,left,-0.0026426315307617,-0.8589660012681154,-1.304699473401159,-6.271635798698664,-0.4223423977779562,-0.0195143334567546,0.0024393945932388,7.425276841756701,-0.0074350833892822
2025-04-30 01:16:50.332999200,12.024999267578124,-0.2041619914076242,0.0291915945708751,0.0434456269280125,-0.0190808046609163,-0.245819801884108,0.8711230137592004,-0.6440156839461735,left,0.0007972121238708,-0.8604333527741682,-1.2965654129147528,-6.262188171395659,-0.4228826611560272,-0.0314464531838893,0.0029097646474838,7.434668354958295,-0.0075522661209106
2025-04-30 01:16:50.372999200,12.064999267578123,-0.204493443519346,0.010081198066473,0.0433515864188466,-0.043407455086708,-0.2451629915203809,0.8709651595899526,-0.6430587555544132,left,0.0049049258232116,-0.8619832477897122,-1.296299601585418,-6.250468507507443,-0.4235982343622057,-0.043155200779438,0.0018961131572723,7.444570740291476,0.0017076134681701
2025-04-30 01:16:50.412999200,12.104999267578124,-0.2086533812419989,-0.0573887713253498,0.042211455211008,-0.0990703925490379,-0.2448483559110316,0.8705066166786634,-0.6448227152841459,left,0.0060711503028869,-0.8637998065961754,-1.3194864159055053,-6.231781342694163,-0.4248361799182975,-0.052905149757862,-0.0012370347976684,7.456154795101285,-0.0031343102455139
2025-04-30 01:16:50.452999200,12.144999267578124,-0.2172694672116968,-0.0651878640055656,0.039672603599551,-0.1164186671376228,-0.2450993776664903,0.8699103748319713,-0.6498365556143925,left,-0.0033211112022399,-0.8646703346095908,-1.371730544014275,-6.213840612334012,-0.4261553538308599,-0.0189229361712932,-0.0009234994649887,7.461697231659293,0.0002623796463012
2025-04-30 01:16:50.492999200,12.184999267578124,-0.2234050020542233,-0.014873944222927,0.0374402972221479,-0.0938277095556259,-0.2449086620641633,0.8698210584774902,-0.6522741066691994,left,-0.0059241652488708,-0.8641679398352533,-1.4106599941283464,-6.208962192642688,-0.4266488947330537,0.017905905842781,-0.0030424892902374,7.458499312400818,-0.0007739663124084
2025-04-30 01:16:50.532999200,12.224999267578124,-0.2264788430854518,0.0130645912140607,0.0358639099117493,-0.0804488509893417,-0.2440972706565187,0.8700768076439718,-0.6517234177531079,left,-0.0050590634346008,-0.8634373178459192,-1.430962046792358,-6.209905610972642,-0.4267279307125757,0.015853451564908,-0.0062337517738342,7.453845349115133,-0.0034931898117065
2025-04-30 01:16:50.572999200,12.264999267578125,-0.2289666750809844,0.0009014345705509,0.0345745615639246,-0.0669527649879455,-0.243279933752737,0.8702640488155011,-0.6509862817430523,left,-0.0062347650527954,-0.8631399509893838,-1.446909849769622,-6.208484638258814,-0.4269191932194724,0.011589054018259,-0.0055513083934783,7.451949744626879,-0.0109530091285705
2025-04-30 01:16:50.612999200,12.304999267578124,-0.2309650478363939,0.0027972687967121,0.0335356133638971,-0.0422371551394462,-0.2427982010614979,0.8704485512048399,-0.6506904008170526,left,-0.0074783563613891,-0.8625043055552996,-1.4603978385046124,-6.210190857654809,-0.4269001960662256,0.0152767281979322,-0.0051864385604858,7.4478960853219025,-0.0063834190368652
2025-04-30 01:16:50.652999200,12.344999267578125,-0.2314654430609074,0.0222751777619123,0.033039907818476,-0.0229769013822078,-0.2422803394230923,0.8706438303950096,-0.6496551898625921,left,-0.0054831504821777,-0.8621632691598748,-1.4640879251942038,-6.211930979320407,-0.4268349009602609,0.0091343335807323,-0.0051593333482742,7.445719910326599,-0.0036737322807312
2025-04-30 01:16:50.692999200,12.384999267578126,-0.230838247104031,0.0360967479646205,0.0329661859378854,-0.0220503974705934,-0.241552673476866,0.8708009500289781,-0.6477662445426458,left,-0.0023126602172851,-0.8625015382163226,-1.4596150175638496,-6.2103954403162,-0.4269323239492711,-0.0104511994868516,-0.005553662776947,7.447878549665212,-0.0007129311561584
2025-04-30 01:16:50.732999200,12.424999267578125,-0.2311930050408543,0.0272721089422702,0.032666184088605,-0.0591394826769828,-0.2405192968709628,0.8707629708244059,-0.6459532801988757,left,0.0067065954208374,-0.8639560640882583,-1.4593343009263275,-6.199325764769315,-0.4276158036211831,-0.0382015034556388,-0.0085747987031936,7.45715023587942,0.0001530647277832
2025-04-30 01:16:50.772999200,12.464999267578126,-0.2315443100331878,0.0184474699199199,0.0323660889488626,-0.0962285548448562,-0.2394854694657079,0.8707235330725549,-0.6441378287875049,left,0.0157250165939331,-0.8654108713812484,-1.4590208510629832,-6.188246736872196,-0.4282985716468224,-0.0659518018364906,-0.0115992575883865,7.466407309046387,0.0010204315185546
2025-04-30 01:16:50.812999200,12.504999267578125,-0.2315217601184887,0.1262905299663543,0.0317314219655475,-0.0802578777074813,-0.2375722079739253,0.8709614495740051,-0.6400904762294427,left,0.0035569667816162,-0.8667595643242557,-1.4565693662576376,-6.178472946354747,-0.4289273659914498,-0.0188593380153179,-0.0070645213127136,7.474975230905414,0.029374361038208
2025-04-30 01:16:50.852999200,12.544999267578126,-0.2267570088731297,0.2317997068166732,0.0318193493020055,-0.0820064470171928,-0.2340089252998906,0.8718656253164538,-0.6298882387269948,left,0.0102878808975219,-0.8679837227685646,-1.42505574535802,-6.1764218590438364,-0.4290427274505401,0.0052508134394884,-0.0107595771551132,7.4827406042099,0.0375650525093078
2025-04-30 01:16:50.892999200,12.584999267578125,-0.2180856442678199,0.3256362676620483,0.0323420862518468,-0.1277729868888855,-0.2283220330195803,0.8732783698181323,-0.613127092780026,left,0.0127556324005126,-0.8700814544774083,-1.3680457180216907,-6.173208742216229,-0.4291945516096746,0.0260947402566671,-0.0149026215076446,7.496020941543579,0.0364270210266113
2025-04-30 01:16:50.932999200,12.624999267578126,-0.2054266718173768,0.4491370618343353,0.0329435903513694,-0.1724812537431717,-0.2202878796081984,0.8754777305190693,-0.5889448766132787,left,0.0103887319564819,-0.8717260724795838,-1.2872753142610192,-6.177954475438595,-0.4288668013646691,0.0610450431704521,-0.0182015597820281,7.506409649088979,0.0387006998062133
2025-04-30 01:16:50.972999200,12.664999267578125,-0.1885996895093812,0.5983017086982727,0.0334766627918444,-0.2404932677745819,-0.2093817746727659,0.8784876592627451,-0.5561406586378773,left,0.0092455148696899,-0.8729658719363838,-1.1813958228807897,-6.189592890784144,-0.4281330713368529,0.0913031697273254,-0.0208783000707626,7.514228213885426,0.0391506552696228
2025-04-30 01:16:51.012999400,12.70499951171875,-0.1660667656391217,0.631138265132904,0.0341637117310973,-0.2409846186637878,-0.194984548989853,0.8824077350094419,-0.5126091102422123,left,-0.0021387338638305,-0.8734849582639413,-1.0409933727171272,-6.2107929152011865,-0.4268144209254851,0.1003423854708671,-0.0138383209705352,7.517498029336333,0.0096632838249206
2025-04-30 01:16:51.052999200,12.744999267578123,-0.1435145092383487,0.6639748811721802,0.0348430924263738,-0.2414759844541549,-0.1805434902404182,0.8861292791302295,-0.4690597417830183,left,-0.0133673548698425,-0.8733732715400527,-0.9007931671272964,-6.233519126272201,-0.4253997639120496,0.1093816012144088,-0.0067777186632156,7.51679426498115,-0.0194188952445983
2025-04-30 01:16:51.092999200,12.784999267578126,-0.1226811736833661,0.5900386571884155,0.035340031324975,-0.2494991421699524,-0.1669087435204517,0.8894579988627044,-0.4282501854054577,left,-0.0171365737915039,-0.8726229109920001,-0.7714320431988686,-6.256527076894044,-0.4239775847086319,0.10020712018013,-0.0072501152753829,7.512066651937365,-0.0386514067649841
2025-04-30 01:16:51.132999200,12.824999267578123,-0.107319013293089,0.4499621987342834,0.0350522660425758,-0.2306944876909256,-0.1555161882468731,0.8921029028355328,-0.3951795623685448,left,-0.0233616828918457,-0.8713821654594033,-0.6762289171990007,-6.27690117188096,-0.4227746998897643,0.0753361582756042,-0.0019106641411781,7.504239319312572,-0.0433481931686401
2025-04-30 01:16:51.172999200,12.864999267578124,-0.0974930476178996,0.3245973587036133,0.034252508397729,-0.1916795969009399,-0.1468549484308796,0.8939331299095349,-0.3710133792462691,left,-0.0213682651519775,-0.8705243290903923,-0.6151470373138785,-6.289647840729355,-0.4220710740576125,0.0390459448099136,0.0012501962482929,7.498820801395177,-0.0398934483528137
2025-04-30 01:16:51.212999200,12.904999267578123,-0.0916095123852426,0.2011215984821319,0.0333621726407913,-0.1326584964990615,-0.1407870941355969,0.8951425634433714,-0.3545893073708808,left,-0.0205960273742675,-0.8698953142760524,-0.5785626524886116,-6.297853943538666,-0.4216465247275616,0.030176056548953,0.0035971440374851,7.49484371445775,-0.0427446365356445
2025-04-30 01:16:51.252999400,12.94499951171875,-0.0882530613117817,0.1159916669130325,0.032876428739029,-0.0612517744302749,-0.137257644191536,0.8957327148215164,-0.3451329220541027,left,-0.0124409198760986,-0.8699520863367175,-0.5573834881965071,-6.299336291050911,-0.4215950502490634,-0.0197989586740732,0.0018468648195266,7.495203195419907,-0.0256604552268981
2025-04-30 01:16:51.292999200,12.984999267578123,-0.0858999970040865,0.053414948284626,0.0330609346671512,-0.0125707387924194,-0.1354641043970906,0.8956459617237008,-0.3402501556243696,left,0.0041530132293701,-0.8718171919332659,-0.5413589667212217,-6.2866924980551,-0.4223445091719997,-0.0707534477114677,0.0012725219130516,7.50698481862843,-0.0097257494926452
2025-04-30 01:16:51.332999200,13.024999267578124,-0.0848625350039639,0.0301929432898759,0.0335921693973646,-0.0043701576068997,-0.1350969591168202,0.8950583484985504,-0.3393179003751483,left,0.0051036477088928,-0.8749066354386031,-0.5328680190885439,-6.264110663890838,-0.4236635823245802,-0.0581990480422973,0.0028355531394481,7.526442967814207,0.0024213790893554
2025-04-30 01:16:51.372999200,13.064999267578123,-0.0838167145595141,0.0069709364324808,0.0341233214327919,0.0038304245099425,-0.1347294670195624,0.8944686989710676,-0.3383772681119862,left,0.0060479044914245,-0.8779959103897781,-0.5243676095077767,-6.241465701362491,-0.4249816628760563,-0.0456446483731269,0.0043975971639156,7.545828636285663,0.0145760178565979
2025-04-30 01:16:51.412999200,13.104999267578124,-0.0835203802719019,-0.0047398228198289,0.0343664563848477,0.0086762811988592,-0.1346945808636894,0.8941740918622336,-0.3383310717779266,left,-0.0035829544067382,-0.8794148835079675,-0.5216243021490052,-6.230944891870021,-0.4255927315452134,-0.0062868893146514,0.0051820985972881,7.554708692833781,0.0130113959312438
2025-04-30 01:16:51.452999200,13.144999267578124,-0.0835442777052568,-0.0214731972664594,0.0345103075942135,0.0237034615129232,-0.1350852621424579,0.8941802080031767,-0.3391791370177275,left,-0.0077852606773376,-0.8791100179763275,-0.5219653706716373,-6.233227449849248,-0.4254443600767331,0.0222992077469825,0.0025851838290691,7.552801982429623,0.0090407729148864
2025-04-30 01:16:51.492999200,13.184999267578124,-0.0839202801470659,-0.0326591059565544,0.0345823740412083,0.0200552083551883,-0.1358054577628688,0.8943358434709763,-0.3408146381644995,left,3.5285949707e-05,-0.8778493136226312,-0.5251067374372854,-6.242513749110699,-0.4248816819966595,0.0400639995932579,-0.000470258295536,7.544910352396965,0.0007603764533996
2025-04-30 01:16:51.532999200,13.224999267578124,-0.0846987759312967,-0.0247287414968013,0.0344455310877677,0.0121941482648253,-0.1365000932215557,0.8945953685104429,-0.3425212861101904,left,0.0005066394805908,-0.8760884202108636,-0.531089428576082,-6.255331145107745,-0.4241230793815624,0.0406040027737617,-0.0003588125109672,7.533867564857005,-0.0017830729484558
2025-04-30 01:16:51.572999200,13.264999267578125,-0.0850024738988765,-0.0106091434136033,0.0343529984590428,0.000989306718111,-0.1368827515992194,0.8948532819734883,-0.343335680834028,left,-0.0013160109519958,-0.8745865887816542,-0.5339491288561373,-6.266435891968012,-0.423462589185901,0.0338481143116951,-0.0014222748577594,7.524430458948015,-0.0071720480918884
2025-04-30 01:16:51.612999200,13.304999267578124,-0.0848961044260837,-0.0008237957954406,0.0342485655882026,-0.0007081200601533,-0.1367702580965947,0.8950399368926486,-0.3429372526144577,left,-0.0067560076713562,-0.8738004604853583,-0.5337839648896828,-6.272384571239352,-0.4231127839237737,0.0252786986529827,-0.0020572692155838,7.519484234717487,-0.0087038278579711
2025-04-30 01:16:51.652999200,13.344999267578125,-0.0847903490337161,0.0089615536853671,0.0341441001355555,-0.0024055470712482,-0.136657699430355,0.895226475548005,-0.3425392758477211,left,-0.0121964216232299,-0.8730144005817345,-0.5336211024781689,-6.278329158857464,-0.4227629205297423,0.0167092811316251,-0.0026920065283775,7.514533918833732,-0.0102351903915405
2025-04-30 01:16:51.692999200,13.384999267578126,-0.0842125784059168,0.0121929394081234,0.0341819045554679,0.0022437856532633,-0.1364675625567938,0.8954043033347201,-0.3417612995275026,left,-0.0117601156234741,-0.8723568200762506,-0.5304090450964868,-6.283558291682601,-0.4224444241482716,0.0151046132668852,-0.002480573952198,7.510388489592075,-0.0135921239852905
2025-04-30 01:16:51.732999200,13.424999267578125,-0.0833740388893334,0.0123206228017807,0.0343746710596557,0.0119836069643497,-0.1363797539210999,0.8955407901741442,-0.3411065425620931,left,-0.0092467069625854,-0.8718381867200475,-0.5254641725728288,-6.287882000100613,-0.4221677820725355,0.0037980442866683,0.0024229027330875,7.507117505097389,-0.0140223503112792
2025-04-30 01:16:51.772999200,13.464999267578126,-0.0823126585067508,0.0174410454928874,0.0346341953999796,-0.0020676562562584,-0.1362014781172836,0.8956339571443509,-0.3401796473817095,left,-0.002095878124237,-0.871602412515409,-0.5189355745216832,-6.290200213915109,-0.4220065408283187,-0.0004295436665415,0.0005768500268459,7.5056293123662465,-0.0171834826469421
2025-04-30 01:16:51.812999200,13.504999267578125,-0.0820986373866573,0.024517823010683,0.0345111646195131,-0.0300708375871181,-0.1356768951705583,0.8956210271575455,-0.3389615037262776,left,-0.0049008727073669,-0.872051613011323,-0.5173127590928226,-6.286950272208452,-0.422212913607813,-0.025080993771553,0.0013916194438934,7.508463659009337,-0.0130433440208435
2025-04-30 01:16:51.852999200,13.544999267578126,-0.0823386380942499,0.0263693071901798,0.0342164078734387,-0.0303351413458585,-0.1349366876744893,0.895462398789841,-0.3375723771584338,left,-0.0096105337142944,-0.8733039444435972,-0.5180478319017217,-6.277449453413486,-0.4228101236038928,-0.0386400111019611,0.0011026747524738,7.516357627129555,-0.0077102780342102
2025-04-30 01:16:51.892999200,13.584999267578125,-0.0820934936780989,0.0350556187331676,0.0341228111819104,-0.0267596822232007,-0.1340711517246038,0.8951482568902072,-0.3357750602007289,left,-0.0072774291038513,-0.8754017095471462,-0.5152148734981193,-6.261848564177751,-0.4237572713945564,-0.055344134569168,-0.0006058029830455,7.529554377833008,-0.0062497854232788
