time,seconds_elapsed,roll,rotationRateZ,quaternionY,rotationRateY,quaternionZ,quaternionW,yaw,devicelocation,accelerationZ,pitch,gravityX,gravityZ,quaternionX,rotationRateX,accelerationX,gravityY,accelerationY
2025-04-30 01:05:33.866345200,0.62834521484375,0.1452151566552385,0.003567571984604,0.0666774974868332,-0.0004896269529126,-1.0765663801745105e-18,0.9709115603750196,0.0342812224818002,left,-0.0013207197189331,-0.4629126792942761,1.2697246061317622,-8.682201733678578,-0.2299674614538428,0.0137893455103039,-0.0002507120370864,4.379218708309531,-0.0013527870178222
2025-04-30 01:05:33.906345200,0.66834521484375,0.1452151566552385,0.0043614031746983,0.0666774974868332,-0.0090037742629647,-1.0765663801745105e-18,0.9709115603750196,0.0342812224818002,left,0.000447392463684,-0.4629126792942761,1.2697246061317622,-8.682201733678578,-0.2299674614538428,0.0092139728367328,-0.0011660009622573,4.379218708309531,-0.0003480017185211
2025-04-30 01:05:33.946345200,0.70834521484375,0.1456831001449247,0.012932738289237,0.0668428705686183,0.0028619049116969,0.0003981343859271,0.9710958045310368,0.0350764796186998,left,-0.0019182562828063,-0.4611519632667026,1.2749046391181649,-8.689222426095604,-0.2291397277949038,0.0152445565909147,-0.0007990002632141,4.363762488241494,-0.0032181441783905
2025-04-30 01:05:33.986345200,0.74834521484375,0.1447315775534369,0.0043020462617278,0.0663911711703402,-0.0013364842161536,0.0003869287466529,0.9710472882435272,0.0348830647903651,left,-0.0019019842147827,-0.4618595631977557,1.2661902945257724,-8.687373583358525,-0.2294764566943621,0.0139654716476798,-0.0004443526268005,4.369975663667917,-0.0044823288917541
2025-04-30 01:05:34.026345200,0.78834521484375,0.1447315775534369,-0.0056452825665473,0.0663911711703402,-0.0050043519586324,0.0003869287466529,0.9710472882435272,0.0348830647903651,left,0.0001136064529418,-0.4618595631977557,1.2661902945257724,-8.687373583358525,-0.2294764566943621,-0.0019171452149748,-3.58670949935e-05,4.369975663667917,-0.0031515955924987
2025-04-30 01:05:34.066345200,0.82834521484375,0.1441784287548201,-0.0036188145168125,0.0661636573050583,-0.0182964019477367,0.0004347622660021,0.9712321606918324,0.0347387473867036,left,0.0029155611991882,-0.4603895829961796,1.2623062926992774,-8.694419994738697,-0.2287582253711342,-0.0093484278768301,-0.0022654384374618,4.357065913212299,-0.00283744931221
2025-04-30 01:05:34.106345200,0.86834521484375,0.1432344990747122,-0.0005847214488312,0.065698611398662,-0.0318366587162017,0.0005966729703121,0.9712902878785908,0.0348316900762134,left,0.0024504661560058,-0.4601502372290019,1.2542476355366408,-8.696639424353837,-0.2286448907773861,-0.0121591994538903,-0.0054276213049888,4.354962803453207,-0.0018325150012969
2025-04-30 01:05:34.146345200,0.90834521484375,0.1421496696580345,-0.0020274925045669,0.0651610941183562,-0.0381244719028472,0.0007258305680067,0.971283279636221,0.0348705375942135,left,0.0003780722618103,-0.4605258976927472,1.2445806663945316,-8.696375220459698,-0.2288281280247207,-0.0111670903861522,-0.0063896030187606,4.358263306303322,-0.0015087127685546
2025-04-30 01:05:34.186345200,0.94834521484375,0.1398769187470099,-0.0029451767913997,0.0640751613394755,-0.035094991326332,0.0008612226244773,0.971304486728083,0.0346481783769673,left,0.0004264712333679,-0.4609885897875639,1.2245315655782818,-8.697183614233136,-0.2290445942899267,-0.0213178731501102,-0.0061404183506965,4.362327779263258,0.0005308985710144
2025-04-30 01:05:34.226345200,0.98834521484375,0.1384916238549565,-0.0188973136246204,0.0634406613877617,-0.0269225873053073,0.0007753185717693,0.971259464783128,0.0342024038610692,left,-0.0015851259231567,-0.4617759318517416,1.2120076726350932,-8.695467457965016,-0.2294119768265859,-0.0335810855031013,-0.0064816325902938,4.369241504174471,0.0006899237632751
2025-04-30 01:05:34.266345200,1.02834521484375,0.1365308025929322,-0.0364527627825737,0.0626413970839109,-0.0012024156749248,0.0002216790932867,0.971175537905528,0.0326920470792892,left,-0.0083266496658325,-0.4630603513593497,1.1941902763936667,-8.692260186356306,-0.2299872753959131,-0.0262718498706817,-0.000506967306137,4.380514593338966,0.001510351896286
2025-04-30 01:05:34.306345200,1.06834521484375,0.1353128598547532,-0.0314090475440025,0.0622827487573955,0.0025924302171915,-0.0006829027186723,0.971142398756715,0.0305852503317501,left,0.0049737691879272,-0.4636827263978636,1.1832347287457436,-8.691005217859148,-0.2302236724678891,-0.0023055430501699,-0.0087676346302032,4.385974320049583,-0.0002869963645935
2025-04-30 01:05:34.346345200,1.10834521484375,0.1348213981417277,-0.0142427310347557,0.0621524052413832,0.0029635189566761,-0.0010273810243503,0.9712225251198076,0.0297187048711654,left,-0.0029219985008239,-0.4631106006381839,1.1793003849714994,-8.694070450648665,-0.2299192492986232,0.0073299929499626,-0.0041319578886032,4.38095532284379,0.0064911246299743
2025-04-30 01:05:34.386345200,1.14834521484375,0.1348213981417277,0.0080548245459795,0.0621524052413832,0.0011368345003575,-0.0010273810243503,0.9712225251198076,0.0297187048711654,left,0.0027059316635131,-0.4631106006381839,1.1793003849714994,-8.694070450648665,-0.2299192492986232,-0.0002074097283184,-0.0056091472506523,4.38095532284379,-0.0012349188327789
2025-04-30 01:05:34.426345500,1.188345458984375,0.1347067307045101,0.0228082984685897,0.0620307249087983,0.0018779706442728,-0.000764820462667,0.9711922795341976,0.0302534881105483,left,0.0024570226669311,-0.4634099566958077,1.1781272495388984,-8.69290608304441,-0.2300811821054929,0.002163560129702,-0.0035029798746109,4.383581579694152,-0.0017758607864379
2025-04-30 01:05:34.466345200,1.22834521484375,0.1352957557833403,0.0310843680053949,0.0621816725006388,0.0162207633256912,-0.0002206195808731,0.9712221452525172,0.0314837504144429,left,0.0001150965690612,-0.4629902015212296,1.18349549857378,-8.694033041247724,-0.2299155043836223,0.022506820037961,-0.0005076974630355,4.379899091789127,-0.0010420382022857
2025-04-30 01:05:34.506345200,1.26834521484375,0.1356283420444846,0.0204447507858276,0.0622799397533447,0.0081226881593465,7.57361979202e-05,0.9712881333243684,0.0321246812977601,left,0.0013566613197326,-0.4623194206326462,1.1867839456599203,-8.696547654417156,-0.2296098613713442,0.0156556311994791,-0.001257911324501,4.374012371838092,0.0018059909343719
2025-04-30 01:05:34.546345200,1.30834521484375,0.1360297891570076,0.0054716495797038,0.0624059161687718,0.0044699041172862,0.0003734026340686,0.9713336688793384,0.0327957039576564,left,0.0008785724639892,-0.4618077317325055,1.190578369506821,-8.698287191560864,-0.2293824576320139,0.001943252980709,3.5360455513e-05,4.369520613376796,-0.0018962621688842
2025-04-30 01:05:34.586345200,1.34834521484375,0.1362784396224464,-0.0076907672919332,0.0625575269346163,0.0166760869324207,0.0002427490747029,0.9713578086743117,0.0325651661017144,left,-2.4676322937e-05,-0.4615268549583433,1.1929078353676943,-8.699206059971452,-0.2292389574337978,0.0113601731136441,0.0004032552242279,4.367054515524209,-0.0017724335193634
2025-04-30 01:05:34.626345200,1.38834521484375,0.1365396044384312,-0.009985308162868,0.0627414386502891,0.0161484237760305,8.342783905e-06,0.9713915956972204,0.0321175107054017,left,-0.0026202201843261,-0.4611573927293845,1.1953992868572474,-8.700492008128762,-0.2290455995709082,0.0161256752908229,-0.0006759241223335,4.363810126775503,-0.0040562450885772
2025-04-30 01:05:34.666345200,1.42834521484375,0.1374614920821832,-0.000966316089034,0.0632465449022604,0.0208492167294025,-0.0002476359020291,0.9714665204527846,0.0317412658393787,left,-0.0010421276092529,-0.4602396973070178,1.203967866303399,-8.70334973564744,-0.228588192181443,0.0114299915730953,-0.0027577877044677,4.355748985394835,-0.0027360916137695
2025-04-30 01:05:34.706345200,1.46834521484375,0.1377460917940067,-0.0063179805874824,0.0633870942840143,0.0145653672516345,-0.0003563799619958,0.9713833268819032,0.0316319632974442,left,-0.0006837844848632,-0.4608949022890951,1.2060527097534388,-8.700178119874,-0.2289027495297449,-0.0041554132476449,-0.0019595324993133,4.361504772442579,-0.0022456645965576
2025-04-30 01:05:34.746345200,1.50834521484375,0.1380307078771291,-0.0116696450859308,0.0635276280811566,0.008281516842544,-0.0004650616835192,0.9712999276433292,0.0315229615319112,left,-0.000325858592987,-0.4615500461614912,1.2081354343116282,-8.697002412447333,-0.2292172554611166,-0.0197408199310302,-0.0011610463261604,4.367258221402764,-0.0017549991607666
2025-04-30 01:05:34.786345200,1.54834521484375,0.1379232144926754,-0.0164151899516582,0.063502244273515,-0.0005900096148252,-0.0006542647760858,0.9712041276179068,0.0311713995878093,left,0.0022754073143005,-0.4624217959601143,1.206676613805443,-8.693357918465138,-0.2296292571341952,-0.0293598286807537,-0.0015924721956253,4.374911074243486,0.001522421836853
2025-04-30 01:05:34.826345200,1.58834521484375,0.1378152867290493,-0.0211607348173856,0.0634768469201908,-0.0094615379348397,-0.0008435814823899,0.97110818951155,0.030819336348928,left,0.0048760175704956,-0.4632936057665775,1.2052139939069748,-8.689706994742155,-0.2300412283649036,-0.0389788374304771,-0.0020234808325767,4.382561004474759,0.0048001408576965
2025-04-30 01:05:34.866345200,1.62834521484375,0.1371447791201202,0.0041113980114459,0.0631487744266711,-0.0201914384961128,-0.000936816119796,0.9709220795425074,0.0305996249207351,left,0.0001080632209777,-0.4651080413045266,1.1982980770386755,-8.682621420395375,-0.2309150550514998,-0.0389521643519401,-0.0061368271708488,4.398471690312028,0.0092390477657318
2025-04-30 01:05:34.906345200,1.66834521484375,0.1377115045720045,0.0168046541512012,0.0632672024761324,0.0023734178394079,-0.0004017900671778,0.970838541314392,0.0318784559442865,left,-0.0023061633110046,-0.4656845078905848,1.202870207259804,-8.679427592790127,-0.2312349916510688,-0.0181083288043737,-0.0038706138730049,4.403523420743644,0.0028428435325622
2025-04-30 01:05:34.946345200,1.70834521484375,0.1382792277938117,0.0294979140162467,0.0633855919274912,0.0249382741749286,0.0001332604526383,0.9707547513916064,0.0331580735685834,left,-0.0047208666801452,-0.4662604512448738,1.2074478173736485,-8.676230258053542,-0.2315548578980839,0.0027355086058378,-0.0016049221158027,4.408569305956363,-0.0035527348518371
2025-04-30 01:05:34.986345200,1.74834521484375,0.1401205198470534,-0.001545974984765,0.0641952609260028,0.054823875427246,0.0003409778177901,0.9707711748124576,0.0339765099066964,left,-0.0032129883766174,-0.4656029821919916,1.2238257553964853,-8.676860372650623,-0.2312622522944694,0.0286807753145694,0.0029232576489448,4.402809134994447,-0.0109888315200805
2025-04-30 01:05:35.026345200,1.78834521484375,0.1410165737749965,-0.0181578211486339,0.0647341739236772,0.0424385666847229,-0.0001161188078634,0.9708336629720848,0.0331887452898804,left,0.003280758857727,-0.4648049652979855,1.2320936713956296,-8.679236454132198,-0.2308497583473496,0.0204597972333431,0.0004587322473526,4.395815038323402,-0.0048214495182037
2025-04-30 01:05:35.066345200,1.82834521484375,0.1417443596353977,-0.0130828721448779,0.0652324789896634,0.0148715693503618,-0.0007365942740097,0.9708910248633116,0.0320303369032063,left,0.0033924579620361,-0.4640932755029844,1.238851621223241,-8.681431918349862,-0.230466682722683,0.0006543304771184,0.0005519986152648,4.389574974890053,0.002151995897293
2025-04-30 01:05:35.106345200,1.86834521484375,0.1415618828086383,0.0175813566893339,0.065127881100033,-0.0320488736033439,-0.0006894865435438,0.970851183741838,0.0321139817583096,left,0.0125921964645385,-0.4644938887085588,1.2370191450990735,-8.679916253089905,-0.2306638590711431,-0.02632443793118,-0.0034097358584403,4.393087659186125,0.0054880678653717
2025-04-30 01:05:35.146345200,1.90834521484375,0.1408622975839953,0.0280104391276836,0.0646664790935733,-0.0315709114074707,-0.000174597522613,0.970787919397564,0.0330645666967543,left,-0.0021339654922485,-0.4652478796192518,1.2304811216324567,-8.67749750151038,-0.2310606455015016,-0.03096654266119,-0.0004676282405853,4.399697140453756,0.0045267045497894
2025-04-30 01:05:35.186345200,1.94834521484375,0.1407942879454094,0.0176396667957305,0.0644151443580004,-0.0093733705580234,0.0005756434399015,0.9706005522586568,0.0347173501411684,left,0.0012038350105285,-0.4669011695831911,1.2288685718692838,-8.670367503499984,-0.2319159285756155,-0.0409855619072914,0.0005966126918792,4.414181008358299,-0.0022180378437042
2025-04-30 01:05:35.226345200,1.98834521484375,0.1404960643458365,-0.0064312163740396,0.0642282151600335,-0.0097010042518377,0.0006571174036116,0.9704689861676684,0.0349054675810496,left,0.0015169382095336,-0.4681294220051004,1.2255226224422453,-8.66535873542726,-0.2325175576865043,-0.0346102304756641,0.0006963089108467,4.424933580780029,-0.0028504431247711
2025-04-30 01:05:35.266345200,2.02834521484375,0.1400852400662444,-0.0121650230139493,0.0640678897071869,0.0018093381077051,0.0004220299189177,0.9703503477694758,0.0344075774844077,left,0.0009382963180541,-0.4692745663995509,1.2212542974732816,-8.660838043132424,-0.2330567876067314,-0.0245984829962253,0.0012049674987792,4.4349525782302015,0.0023653805255889
2025-04-30 01:05:35.306345200,2.06834521484375,0.1400852400662444,-0.0026553384959697,0.0640678897071869,0.0013246857561171,0.0004220299189177,0.9703503477694758,0.0344075774844077,left,0.002049446105957,-0.4692745663995509,1.2212542974732816,-8.660838043132424,-0.2330567876067314,-0.0073458589613437,1.44466757774e-05,4.4349525782302015,0.0041057765483856
2025-04-30 01:05:35.346345200,2.10834521484375,0.140264062744848,0.0175360590219497,0.0641280391718713,-0.00472701061517,0.0004263034188607,0.9702501925714598,0.0345200953569572,left,0.0028231739997863,-0.4700917096605974,1.2222959154807032,-8.657028129455446,-0.23345665291937,0.004469221457839,0.0012866109609603,4.44209835833162,0.0022984147071838
2025-04-30 01:05:35.386345200,2.14834521484375,0.1401237874277245,0.0164671931415796,0.064005413737307,-0.0124582787975668,0.0006955812654451,0.9702832713506558,0.0350229567712371,left,0.0018105506896972,-0.4698435736006069,1.2212355197075753,-8.65829069673717,-0.2333523983798168,0.0131541844457387,-5.2735209465e-05,4.439928613077104,-0.0001547038555145
2025-04-30 01:05:35.426345500,2.188345458984375,0.1398636732340216,0.0138886338099837,0.0638260184963916,-0.0035182936117053,0.0010506634984614,0.9704042160590728,0.0356195845581939,left,-0.0066931247711181,-0.4688645676396254,1.2195887023486196,-8.662908419665694,-0.2328966579257758,0.0298324692994356,0.0003577023744583,4.43136624417603,-0.0051647126674652
2025-04-30 01:05:35.466345200,2.22834521484375,0.139975441260702,0.0044688433408737,0.063877565008895,-0.001672688871622,0.0011249148858759,0.970483294382701,0.0357460687160028,left,-0.0026060342788696,-0.468146750589581,1.221000395777449,-8.66591987644136,-0.232552650032342,0.017697662115097,-0.0012586191296577,4.425085264210403,-0.0042015016078948
2025-04-30 01:05:35.506345200,2.26834521484375,0.139975441260702,0.0032514692284166,0.063877565008895,-0.0091491602361202,0.0011249148858759,0.970483294382701,0.0357460687160028,left,-0.0007305741310119,-0.468146750589581,1.221000395777449,-8.66591987644136,-0.232552650032342,-0.0048592574894428,-0.0027362331748008,4.425085264210403,-0.0012510120868682
2025-04-30 01:05:35.546345200,2.30834521484375,0.139975441260702,0.0127066131681203,0.063877565008895,-0.0056383525952696,0.0011249148858759,0.970483294382701,0.0357460687160028,left,-0.0002962350845336,-0.468146750589581,1.221000395777449,-8.66591987644136,-0.232552650032342,-0.0138221979141235,-0.0017580315470695,4.425085264210403,-0.0011296272277832
2025-04-30 01:05:35.586345200,2.34834521484375,0.1397110845318485,0.002095453441143,0.0636561291190176,-0.001951688202098,0.0015041823381542,0.9704477944101402,0.0364923218758204,left,-0.000567078590393,-0.4685235571660597,1.2184771609101444,-8.664590089142322,-0.2327590139727902,-0.0156071558594703,-0.0009154602885246,4.428382552190125,-0.0017364621162414
2025-04-30 01:05:35.626345200,2.38834521484375,0.1395652560769816,-0.0159183833748102,0.06359164918325,0.0064062606543302,0.0014260944748417,0.9703781249597866,0.0363443847106813,left,-0.0017479062080383,-0.4691700181952897,1.2168151459820569,-8.661931099066138,-0.233067660833334,-0.0130748888477683,-0.0008064359426498,4.434038093733787,-0.0030434131622314
2025-04-30 01:05:35.666345200,2.42834521484375,0.1392586319034665,-0.0198815949261188,0.063551961376832,0.0040218411013484,0.0009170793896291,0.970289050614264,0.0352852950636207,left,0.0025538206100463,-0.4700308185137773,1.213628844096139,-8.658520413839817,-0.233451220579405,-0.0199319403618574,-0.0029696226119995,4.441565858890116,0.004264086484909
2025-04-30 01:05:35.706345200,2.46834521484375,0.1391293881573748,-0.0064850412309169,0.0635129809040506,0.0025577847845852,0.0007798074043007,0.9702340384279796,0.0350091311139467,left,0.0015724301338195,-0.4705438506231802,1.2121936236612498,-8.656419642168283,-0.2336911179021919,-0.016103995963931,-0.0014989674091339,4.446050895349681,0.0044900774955749
2025-04-30 01:05:35.746345200,2.50834521484375,0.1392384021893086,0.0061833867803215,0.0635275499617251,0.0008376677287742,0.0008568149999294,0.9701540808134222,0.0352429331731499,left,0.0009963512420654,-0.4712039449441085,1.2127297032993287,-8.653379543820023,-0.2340186098902109,-0.0112077798694372,0.0004842281341552,4.451819541878998,0.001267671585083
2025-04-30 01:05:35.786345200,2.54834521484375,0.139216895942232,-0.0065041948109865,0.0634734523073863,-0.0062737334519624,0.0009498317565605,0.9700549301393208,0.035493122020926,left,0.0009939074516296,-0.4720641318507099,1.212011764288321,-8.649609962153434,-0.2344435339948399,-0.0195020325481891,0.0018978491425514,4.459334155292809,0.0001151859760284
2025-04-30 01:05:35.826345200,2.58834521484375,0.139216895942232,-0.0109759178012609,0.0634734523073863,-0.0078717162832617,0.0009498317565605,0.9700549301393208,0.035493122020926,left,0.0024359822273254,-0.4720641318507099,1.212011764288321,-8.649609962153434,-0.2344435339948399,-0.0092552388086915,0.0022136196494102,4.459334155292809,-0.0037647187709808
2025-04-30 01:05:35.866345200,2.62834521484375,0.1384019556043073,-0.0098425978794693,0.0631580548049314,-0.0071984380483627,0.0006642812168118,0.9700245887382004,0.034743180013817,left,0.0017071962356567,-0.4725503660382047,1.2046631550911813,-8.648446179071069,-0.2346551573191236,-0.0024576880969107,0.0013602674007415,4.463580414560437,8.77678394317e-05
2025-04-30 01:05:35.906345200,2.66834521484375,0.1373208356843801,0.0039651868864893,0.0626755682631668,-0.0271813441067934,0.0005886826252678,0.9700255818798134,0.034346551964184,left,-0.0023281574249267,-0.4728351067322484,1.1951383708987384,-8.648484172993898,-0.2347803777979418,-0.0097594447433948,-0.0008453503251075,4.466066678418219,0.0024586915969848
2025-04-30 01:05:35.946345200,2.70834521484375,0.1373740764787505,0.0210134163498878,0.0626148596595418,-0.0066644139587879,0.0009010359534101,0.9699801472077264,0.0350308088237538,left,-0.0039403438568115,-0.4732099886622116,1.1953694762408733,-8.646761586984992,-0.2349835247032594,-0.0178919713944196,-0.0011321902275085,4.469339416478574,0.0030913054943084
2025-04-30 01:05:35.986345200,2.74834521484375,0.1376617828581839,0.0110328337177634,0.0625911839053816,-0.0086605418473482,0.0014535748812484,0.9698737086534084,0.0363006514572491,left,0.0025740265846252,-0.474040207626931,1.1973475713808088,-8.642738907340169,-0.2354258385184188,-0.0209352374076843,-0.0015612170100212,4.476584857562184,-0.0024049580097198
2025-04-30 01:05:36.026345200,2.78834521484375,0.1375093187772712,-0.0018297443166375,0.0624659459936649,-0.0022853258997201,0.0015945051150463,0.9697804436615326,0.0366157080215565,left,-0.0003107190132141,-0.474878974103827,1.1955147299304605,-8.639198458254336,-0.235842052658313,-0.0188215393573045,-0.0007407888770103,4.483901610316336,0.0004127621650695
2025-04-30 01:05:36.066345200,2.82834521484375,0.1375093187772712,-0.0019269925542175,0.0624659459936649,0.0007053243461996,0.0015945051150463,0.9697804436615326,0.0366157080215565,left,0.0004090070724487,-0.474878974103827,1.1955147299304605,-8.639198458254336,-0.235842052658313,-0.0088643003255128,-0.00129184871912,4.483901610316336,-0.0005066990852355
2025-04-30 01:05:36.106345200,2.86834521484375,0.1375093187772712,-0.0046120919287204,0.0624659459936649,-3.87069303542e-05,0.0015945051150463,0.9697804436615326,0.0366157080215565,left,0.0015265345573425,-0.474878974103827,1.1955147299304605,-8.639198458254336,-0.235842052658313,-0.0014777434989809,-0.0021399408578872,4.483901610316336,0.0025847852230072
2025-04-30 01:05:36.146345200,2.90834521484375,0.1375093187772712,0.0014231149107217,0.0624659459936649,0.0001402432098984,0.0015945051150463,0.9697804436615326,0.0366157080215565,left,-0.0013319253921508,-0.474878974103827,1.1955147299304605,-8.639198458254336,-0.235842052658313,0.0034267553128302,-0.0023173391819,4.483901610316336,0.0026557445526123
2025-04-30 01:05:36.186345200,2.94834521484375,0.1375093187772712,0.0028727741446346,0.0624659459936649,-0.0019348547793924,0.0015945051150463,0.9697804436615326,0.0366157080215565,left,-0.0015609860420227,-0.474878974103827,1.1955147299304605,-8.639198458254336,-0.235842052658313,0.0099908299744129,-0.0018235370516777,4.483901610316336,0.0021895468235015
2025-04-30 01:05:36.226345200,2.98834521484375,0.1375093187772712,0.0047904076054692,0.0624659459936649,0.0048518013209104,0.0015945051150463,0.9697804436615326,0.0366157080215565,left,-0.0016961097717285,-0.474878974103827,1.1955147299304605,-8.639198458254336,-0.235842052658313,0.000802606344223,-0.0016026422381401,4.483901610316336,0.0019119977951049
2025-04-30 01:05:36.266345200,3.02834521484375,0.1375093187772712,-0.0033708084374666,0.0624659459936649,0.0031906059011816,0.0015945051150463,0.9697804436615326,0.0366157080215565,left,-0.0014845132827758,-0.474878974103827,1.1955147299304605,-8.639198458254336,-0.235842052658313,0.0016381049063056,-0.0014888197183609,4.483901610316336,-0.0017433762550354
2025-04-30 01:05:36.306345200,3.06834521484375,0.1375093187772712,-0.0054218140430748,0.0624659459936649,0.0094701834022998,0.0015945051150463,0.9697804436615326,0.0366157080215565,left,-0.0020380020141601,-0.474878974103827,1.1955147299304605,-8.639198458254336,-0.235842052658313,0.0009046481573022,-0.0008444115519523,4.483901610316336,0.0002767741680145
2025-04-30 01:05:36.346345200,3.10834521484375,0.1376301535065839,-0.006192801054567,0.0626388112499448,0.0105279386043548,0.0010837119531783,0.969747558364335,0.0356103599903723,left,-0.0001637339591979,-0.4751342839356527,1.1964015227023512,-8.637920108881593,-0.2359344046251522,-0.0091142151504755,-6.78524374961e-05,4.4861283464550965,2.22325325012e-05
2025-04-30 01:05:36.386345200,3.14834521484375,0.1376301535065839,-0.0063932328484952,0.0626388112499448,0.0125315701588988,0.0010837119531783,0.969747558364335,0.0356103599903723,left,-0.000392735004425,-0.4751342839356527,1.1964015227023512,-8.637920108881593,-0.2359344046251522,0.0023618321865797,0.0005240589380264,4.4861283464550965,-0.0016075670719146
2025-04-30 01:05:36.426345500,3.188345458984375,0.1381366409336469,-0.010457893833518,0.0629561535536935,0.0042327446863055,0.0007529501361255,0.969758893913396,0.035034480468604,left,0.0005137920379638,-0.4749035890499968,1.2009188539963216,-8.638338042032718,-0.2358047531488217,0.0009776898659765,0.0001782476902008,4.484116422110795,0.0003283619880676
2025-04-30 01:05:36.466345200,3.22834521484375,0.138054645443873,-0.0011880071833729,0.0629769918517888,0.0003033243992831,0.0004939808601383,0.9697395632322144,0.0344942565138527,left,0.000244140625,-0.4750918203384247,1.2000943858709183,-8.637599790886044,-0.2358789599869367,-0.0030854900833219,-0.0015773847699165,4.485758051837981,0.0008984208106994
2025-04-30 01:05:36.506345200,3.26834521484375,0.138054645443873,-0.0001600059913471,0.0629769918517888,0.0015257491031661,0.0004939808601383,0.9697395632322144,0.0344942565138527,left,0.0001406073570251,-0.4750918203384247,1.2000943858709183,-8.637599790886044,-0.2358789599869367,-0.0032690349034965,-0.0004452988505363,4.485758051837981,0.0011507868766784
2025-04-30 01:05:36.546345200,3.30834521484375,0.138054645443873,-0.0072620771825313,0.0629769918517888,0.0037786136381328,0.0004939808601383,0.9697395632322144,0.0344942565138527,left,-0.0004909634590148,-0.4750918203384247,1.2000943858709183,-8.637599790886044,-0.2358789599869367,-0.0037220451049506,0.0002240017056465,4.485758051837981,-0.0002079904079437
2025-04-30 01:05:36.586345200,3.34834521484375,0.1380712028415328,-0.0118291825056076,0.0630274300257163,4.99433372169e-05,0.0003019349166957,0.9697213602761212,0.0341133913411753,left,0.0022192001342773,-0.4752445870696642,1.200143047318235,-8.636901287227868,-0.2359409734108432,0.0057673561386764,-0.001815840601921,4.487090177224577,-0.0029421746730804
2025-04-30 01:05:36.626345200,3.38834521484375,0.1380712028415328,-0.0033634062856435,0.0630274300257163,0.0091755343601107,0.0003019349166957,0.9697213602761212,0.0341133913411753,left,-0.0040146708488464,-0.4752445870696642,1.200143047318235,-8.636901287227868,-0.2359409734108432,0.0053882412612438,-8.80435109138e-05,4.487090177224577,0.0031891763210296
2025-04-30 01:05:36.666345200,3.42834521484375,0.1386813344247706,0.0036725038662552,0.0633279021334773,0.0085552223026752,0.000210788097586,0.969701955871482,0.0340739161825949,left,0.0022891759872436,-0.4752453804708245,1.205412000697106,-8.636164205124974,-0.2359401995841901,-0.0102243050932884,-0.0019098296761512,4.487096899226308,0.0013425648212432
2025-04-30 01:05:36.706345200,3.46834521484375,0.1390481886819694,0.0037916819564998,0.0634825344170103,0.0057828053832054,0.0002265113536295,0.9696491126713294,0.0342216214422625,left,0.0007141232490539,-0.4755980964611668,1.2083606944348662,-8.634153449824453,-0.2361158285112529,-0.0100959334522485,-0.0009579136967658,4.490172361148893,0.0002656579017639
2025-04-30 01:05:36.746345200,3.50834521484375,0.1394346175315807,0.0055258003994822,0.0636358909466933,0.0104154162108898,0.0002802170965427,0.9695914926377424,0.0344551730395636,left,9.25660133361e-05,-0.4759857289880144,1.2114550802536308,-8.631961492738128,-0.2363111133251456,-0.0116538032889366,-0.0009777247905731,4.493551482193172,0.003384917974472
2025-04-30 01:05:36.786345200,3.54834521484375,0.140123870207878,0.0023552842903882,0.0639359192747283,0.0214350968599319,0.0002924851189397,0.9695175642470244,0.0346814290248511,left,-0.0008749365806579,-0.4764289226728591,1.21712611162737,-8.629151696014404,-0.2365331624208666,-0.0065489308908581,0.0003264993429183,4.497414295101166,0.0001771748065948
2025-04-30 01:05:36.826345200,3.58834521484375,0.1409999339006777,-0.0112849166616797,0.0643845530078826,0.0257443971931934,7.68168704205e-05,0.969474029003787,0.0344601537980917,left,0.0003908276557922,-0.476561311571025,1.2246017082050442,-8.627492238369584,-0.236590269631475,0.0031409440562129,0.000526525080204,4.498567849050462,-4.1902065277e-05
2025-04-30 01:05:36.866345200,3.62834521484375,0.1417203842694325,-0.0163378603756427,0.0648178478842605,0.0216765645891428,-0.0003455894090235,0.9694588824154192,0.0337592760944353,left,0.0038673281669616,-0.4764911030210286,1.2308616453826426,-8.62692057596147,-0.2365335822520185,0.0098419934511184,0.0001786053180694,4.497956146892905,-1.311302185e-06
2025-04-30 01:05:36.906345200,3.66834521484375,0.1419703251210625,-0.0109433848410844,0.0650376715205877,0.0085174804553389,-0.0007278566216472,0.9695091234434634,0.0329940820891451,left,0.0032675266265869,-0.4759910692602543,1.233335926541686,-8.628837807759641,-0.2362664186616813,0.0167296398431062,0.0003248006105422,4.493597951683402,0.001453697681427
2025-04-30 01:05:36.946345200,3.70834521484375,0.1420923850396502,0.0017788782715797,0.0651275459418419,-0.0028321351855993,-0.0008110781609769,0.9695698026243896,0.0328105733444623,left,0.0030152201652526,-0.4754376541249019,1.2347411171644926,-8.631147838267683,-0.235992270848256,0.0077355373650789,-0.0017051249742507,4.488773600266874,0.0024565458297729
2025-04-30 01:05:36.986345200,3.74834521484375,0.1420923850396502,0.006901872344315,0.0651275459418419,-0.0113580888137221,-0.0008110781609769,0.9695698026243896,0.0328105733444623,left,0.0006160140037536,-0.4754376541249019,1.2347411171644926,-8.631147838267683,-0.235992270848256,0.0014827540144324,-0.0016117393970489,4.488773600266874,-0.0010549128055572
2025-04-30 01:05:37.026345200,3.78834521484375,0.1416863895253864,0.0029831626452505,0.0648862611660908,-0.0063225273042917,-0.0005580525909074,0.9696084579161726,0.0332174439503014,left,-0.0018653273582458,-0.4752210527223254,1.2313741249494254,-8.63261089655757,-0.2359006839067221,0.0081203170120716,-0.0015830919146537,4.486885010041296,-0.0040543377399444
2025-04-30 01:05:37.066345200,3.82834521484375,0.1416863895253864,-0.0082217250019311,0.0648862611660908,0.0047564404085278,-0.0005580525909074,0.9696084579161726,0.0332174439503014,left,-0.0021073222160339,-0.4752210527223254,1.2313741249494254,-8.63261089655757,-0.2359006839067221,0.0058860229328274,-0.001054972410202,4.486885010041296,-0.003256469964981
2025-04-30 01:05:37.106345200,3.86834521484375,0.141623428262304,-0.0111578973010182,0.06492408721745,0.0097340662032365,-0.000805941457339,0.9696393675155432,0.0326721883744385,left,-0.0009706020355224,-0.4749723360075117,1.2309880482412874,-8.633792799818515,-0.2357624962986675,0.0010460154153406,-0.0028216764330863,4.484715849308669,-0.0019188523292541
2025-04-30 01:05:37.146345200,3.90834521484375,0.1418052866755865,-0.0044122370891273,0.065071332086888,0.0119040617719292,-0.0010530649701951,0.9696528204670009,0.0321940807455715,left,-0.000706136226654,-0.4748040484493513,1.2326647492818534,-8.634315946909785,-0.2356653442266029,0.0038702848833054,-0.0027805343270301,4.483248114843667,-0.0004309713840484
2025-04-30 01:05:37.186345200,3.94834521484375,0.1422079456438884,0.0025845440104603,0.0652765314740685,0.0099865160882473,-0.0011241353455068,0.9696595046403408,0.0321326062545683,left,-0.000417411327362,-0.4746343247119546,1.236249183639884,-8.634571967497468,-0.235580872841397,0.0002999808639287,-0.0018019750714302,4.481767813158035,-4.49419021606e-05
2025-04-30 01:05:37.226345200,3.98834521484375,0.1422079456438884,0.0043804864399135,0.0652765314740685,0.0113255232572555,-0.0011241353455068,0.9696595046403408,0.0321326062545683,left,-0.001167893409729,-0.4746343247119546,1.236249183639884,-8.634571967497468,-0.235580872841397,-0.0058491015806794,-0.0007012039422988,4.481767813158035,-0.0009974837303161
2025-04-30 01:05:37.266345200,4.02834521484375,0.1427800220159386,-0.007407343480736,0.065574023967497,0.0110680637881159,-0.001317261506721,0.9695918641385955,0.0319046708025233,left,0.0002769231796264,-0.4750512028095978,1.240922582278401,-8.63201293066442,-0.2357750933668869,-0.0101892426609992,2.36630439758e-05,4.485403831572831,-0.0008178353309631
2025-04-30 01:05:37.306345200,4.06834521484375,0.1433521679360985,-0.0191951729357242,0.0658715049541824,0.0108106043189764,-0.0015103497966891,0.9695242696638297,0.0316770414371002,left,0.0017212629318237,-0.4754683678251265,1.245593788959831,-8.629449217656255,-0.2359693044245663,-0.0145293846726417,0.0007487535476684,4.48904131129235,-0.0006383657455444
2025-04-30 01:05:37.346345200,4.10834521484375,0.1433236939970365,-0.0217690132558345,0.0659514063007735,0.0020919730886816,-0.0019420780119917,0.969466930004153,0.0308166093801962,left,0.0015361905097961,-0.4759596326711434,1.2450329402066769,-8.627300515189766,-0.2361790026522729,-0.0090864785015583,0.0007046610116958,4.493324103178083,0.0010998845100402
2025-04-30 01:05:37.386345200,4.14834521484375,0.1430209102930355,-0.005719419568777,0.0658686252816179,-0.0099456580355763,-0.0021939643035657,0.96944748329397,0.030241783185636,left,0.0035324692726135,-0.4762063594165746,1.2422625987105071,-8.626579799699783,-0.2362798923376474,-0.0011712647974491,-0.0021999850869178,4.4954745592102405,0.0025080740451812
2025-04-30 01:05:37.426345500,4.188345458984375,0.1429535879866653,0.0219900719821453,0.0657807394932079,-0.0052484646439552,-0.0019616620467741,0.9694475375410446,0.0307063483791231,left,-0.0033326745033264,-0.4762293516647849,1.2416671170353888,-8.626561094999312,-0.2363063796130546,-0.0060201059095561,-0.0012459307909011,4.495675050218403,0.0062073469161987
2025-04-30 01:05:37.466345200,4.22834521484375,0.143513072956568,0.0257303919643163,0.0658857350261033,-0.0028861362952739,-0.001378275354927,0.9693935996127186,0.0320699683812788,left,-0.000180959701538,-0.4765418108706062,1.2462924387484788,-8.624474351853133,-0.2365021839666728,-0.0131992250680923,-0.0019530653953552,4.498398045441508,-0.0003674328327178
2025-04-30 01:05:37.506345200,4.26834521484375,0.1439950714751056,0.0078875515609979,0.0660027735739665,0.0057424176484346,-0.0010137587774833,0.9693151247485976,0.032980645554204,left,-0.0009912848472595,-0.4770808332308674,1.2501011833816766,-8.621471662905812,-0.2367930160589965,-0.0140478499233722,-0.0003899186849594,4.503094386564195,-0.0022517442703247
2025-04-30 01:05:37.546345200,4.30834521484375,0.1444708351902315,-0.0011492986232042,0.0661948729081341,0.0094668231904506,-0.0009826745136764,0.9692210058085406,0.033212080353896,left,0.0012980103492736,-0.4777494406024849,1.2537690582394598,-8.61789438894093,-0.2371242854955287,-0.017761779949069,-0.000118464231491,4.508917978151143,2.9057264328e-05
2025-04-30 01:05:37.586345200,4.34834521484375,0.1447331209708318,-0.0019706413149833,0.0663220165428431,0.00311731826514,-0.0010743056020415,0.9691447266326464,0.0331312031318862,left,0.0027495622634887,-0.4783251145778894,1.2556547258555888,-8.614995744889974,-0.2374002565337122,-0.0087715648114681,-0.0001562386751174,4.51393054561615,0.0008003413677215
2025-04-30 01:05:37.626345200,4.38834521484375,0.1447331209708318,0.0041606100276112,0.0663220165428431,-0.0033302074298262,-0.0010743056020415,0.9691447266326464,0.0331312031318862,left,0.002612829208374,-0.4783251145778894,1.2556547258555888,-8.614995744889974,-0.2374002565337122,-0.0056181140244007,0.0006019473075866,4.51393054561615,0.001572161912918
2025-04-30 01:05:37.666345200,4.42834521484375,0.1445355053725398,0.0045962645672261,0.0661883752101697,-0.011278317309916,-0.0009367306261305,0.9691060152782413,0.0333962124426449,left,0.0032652616500854,-0.4787111303814369,1.2537012537002563,-8.613518658074737,-0.2375960745695316,-0.0031316007953137,0.0008744895458221,4.517290961959958,-0.0013280510902404
2025-04-30 01:05:37.706345200,4.46834521484375,0.1441871183324017,0.0028601861558854,0.0659943418084245,-0.0067008011974394,-0.0008023392184929,0.9691065875164188,0.0335953115621075,left,-0.000467300415039,-0.4788050528316969,1.2506393819116055,-8.613535024687648,-0.2376482836210582,0.0022806122433394,0.0005413442850112,4.5181084158226845,-0.0029399096965789
2025-04-30 01:05:37.746345200,4.50834521484375,0.1441871183324017,0.0007298558484762,0.0659943418084245,-0.006037054117769,-0.0008023392184929,0.9691065875164188,0.0335953115621075,left,-0.000920832157135,-0.4788050528316969,1.2506393819116055,-8.613535024687648,-0.2376482836210582,-0.0040434803813695,-0.0016348212957382,4.5181084158226845,-0.0004575252532958
2025-04-30 01:05:37.786345200,4.54834521484375,0.1439130396773665,0.0031267045997083,0.0658313417030629,-0.0052825538441538,-0.0006870345011219,0.9690704539725296,0.0337953459032756,left,-9.1552734375e-05,-0.4791894683513622,1.2480293455436826,-8.612157891115546,-0.2378411331094979,-0.0129221240058541,-0.0007304996252059,4.521453926858306,0.0001353323459625
2025-04-30 01:05:37.826345200,4.58834521484375,0.1439000916688184,0.0047108074650168,0.065780007820226,-0.0024236724711954,-0.000554504141433,0.9690121967450556,0.0341037363481267,left,0.0008201599121093,-0.4796886969823817,1.2475940228663385,-8.609939046022296,-0.2380930188241689,-0.0089022871106863,0.0002579391002655,4.525797801281511,-0.0008918941020965
2025-04-30 01:05:37.866345200,4.62834521484375,0.1439000916688184,-5.40143810212e-05,0.065780007820226,-0.0022584176622331,-0.000554504141433,0.9690121967450556,0.0341037363481267,left,-0.0004027485847473,-0.4796886969823817,1.2475940228663385,-8.609939046022296,-0.2380930188241689,-0.0010424610227346,0.0010443925857543,4.525797801281511,-0.00093474984169
2025-04-30 01:05:37.906345200,4.66834521484375,0.1439000916688184,-0.0033841759432107,0.065780007820226,-0.0036108130589127,-0.000554504141433,0.9690121967450556,0.0341037363481267,left,-0.0004043579101562,-0.4796886969823817,1.2475940228663385,-8.609939046022296,-0.2380930188241689,0.0003020629519596,-0.0009197741746902,4.525797801281511,0.0008183717727661
2025-04-30 01:05:37.946345200,4.70834521484375,0.1433334171723699,0.0025055536534637,0.0655297475476466,-0.0089090541005134,-0.0006009079325891,0.9690138682866208,0.0338795754414287,left,0.0001867413520812,-0.4798315501476012,1.2426223719336091,-8.61000451247394,-0.2381550023389506,0.0013499844353646,-0.0022133737802505,4.527040494818985,0.001735895872116
2025-04-30 01:05:37.986345200,4.74834521484375,0.1429510091140187,0.0092506948858499,0.0653235953100381,-0.0092874206602573,-0.0004663153150024,0.9690311018760956,0.0340603895465176,left,-0.0001497268676757,-0.4797920684622813,1.239355186831206,-8.610656254380942,-0.2381418964069034,-0.0002223158953711,-0.002486266195774,4.5266970882087945,0.0013136863708496
2025-04-30 01:05:38.026345200,4.78834521484375,0.1427238272281874,0.0068136942572891,0.0651655862327238,-0.006123833823949,-0.0002582678730112,0.9690227852517934,0.034444075881701,left,-0.0006957650184631,-0.4799258720705182,1.237312867348641,-8.610337689951061,-0.2382192502837103,-0.0042600305750966,-0.0010789334774017,4.527861163552105,-0.0009016990661621
2025-04-30 01:05:38.066345200,4.82834521484375,0.1427238272281874,-0.0030961236916482,0.0651655862327238,0.0082672052085399,-0.0002582678730112,0.9690227852517934,0.034444075881701,left,-0.0044564604759216,-0.4799258720705182,1.237312867348641,-8.610337689951061,-0.2382192502837103,0.0113481068983674,0.0017801970243453,4.527861163552105,-0.0053889751434326
2025-04-30 01:05:38.106345200,4.86834521484375,0.1430878524607109,-0.0195836685597896,0.0654146261569769,0.0196745656430721,-0.0005290115795372,0.9690875515234768,0.033925377078209,left,-0.0025185346603393,-0.4792742696642544,1.2408674910902977,-8.612804956847429,-0.237886723420739,0.0191775448620319,0.0008079260587692,4.522191885744035,-0.0029758214950561
2025-04-30 01:05:38.146345200,4.90834521484375,0.1434951249692061,-0.0201709866523742,0.0657497505173635,0.0221410784870386,-0.0010825032173414,0.9691375779152944,0.0328419112072734,left,0.0007939934730529,-0.4787320701359279,1.244725627823174,-8.61472452673316,-0.2375884596591023,0.0142719913274049,5.08576631546e-05,4.51747333278954,0.0001561641693115
2025-04-30 01:05:38.186345200,4.94834521484375,0.1438941536417115,-0.00993940141052,0.0660560706853096,0.0189634505659341,-0.0015265531325073,0.969196972754521,0.0319760975518715,left,-0.0019464492797851,-0.4781100121247605,1.2485657905079424,-8.617006500190495,-0.2372584102434211,0.0182547830045223,-0.0006111562252044,4.5120577374815936,0.0017839968204498
2025-04-30 01:05:38.226345200,4.98834521484375,0.144635819168579,0.003870541229844,0.0664339806638518,0.0138848088681697,-0.0016519835238404,0.9692157342645278,0.0318706658698977,left,0.0024970769882202,-0.4777411229629844,1.2551961684331296,-8.61772487759292,-0.2370756451496555,-0.0027794148772954,-0.0019983202219009,4.5088454974368215,0.0055332481861114
2025-04-30 01:05:38.266345200,5.02834521484375,0.144635819168579,0.0052051125094294,0.0664339806638518,-0.0027869828045368,-0.0016519835238404,0.9692157342645278,0.0318706658698977,left,0.0027790069580078,-0.4777411229629844,1.2551961684331296,-8.61772487759292,-0.2370756451496555,-0.0061826379969716,-0.001811921596527,4.5088454974368215,0.0003356039524078
2025-04-30 01:05:38.306345200,5.06834521484375,0.1446936850763004,0.004565586335957,0.0664025864485891,-0.0092380810528993,-0.0014458730656576,0.9691802975916876,0.0323321741220724,left,0.0025154948234558,-0.4780296517282577,1.255507280208915,-8.61636469515562,-0.2372306644611893,-0.0017306222580373,-0.0020552426576614,4.511358064779639,0.0020409822463989
2025-04-30 01:05:38.346345200,5.10834521484375,0.1444031559143314,0.0039912019856274,0.0662191870273985,-0.0138285923749208,-0.00126855876334,0.9691548923434224,0.0326498355250876,left,0.0026551485061645,-0.4783294701943664,1.2528092732965943,-8.615389712643623,-0.237386602602631,-0.0063836947083473,-0.0028062388300895,4.513968539538979,0.0027126371860504
2025-04-30 01:05:38.386345200,5.14834521484375,0.1439852655607535,0.0024292799644172,0.0659902160168895,-0.0090439300984144,-0.0011362393588971,0.9691401881552903,0.0328390589864055,left,-9.19103622436e-05,-0.4785728691189621,1.2490510898068548,-8.614825064498186,-0.237510987645152,-0.0007725553587079,-0.0013836771249771,4.516087431389093,0.0005905926227569
2025-04-30 01:05:38.426345500,5.188345458984375,0.1439852655607535,-0.006567811127752,0.0659902160168895,-0.0013625691644847,-0.0011362393588971,0.9691401881552903,0.0328390589864055,left,6.3180923461e-06,-0.4785728691189621,1.2490510898068548,-8.614825064498186,-0.237510987645152,0.0104735605418682,-0.0002245306968688,4.516087431389093,-0.0008220970630645
2025-04-30 01:05:38.466345200,5.22834521484375,0.143242029459314,-0.0209778230637311,0.0657478350814039,-0.0016662622801959,-0.001458748299006,0.969243919338435,0.0319400068840476,left,-0.0010397434234619,-0.4778935582444965,1.243085605531186,-8.618785200300811,-0.2371528575234467,0.0237634852528572,-0.0002839714288711,4.510172946648299,-0.0014566779136657
2025-04-30 01:05:38.506345200,5.26834521484375,0.1426244939072877,-0.0206007566303014,0.0656059903703545,0.0050754458643496,-0.0019414843914765,0.9693645538829722,0.0307278877633424,left,-0.0012517571449279,-0.4770295165097863,1.2383163453027606,-8.623405845838784,-0.236695054753094,0.0206973142921924,-0.0020791739225387,4.502647227318585,0.001043826341629
2025-04-30 01:05:38.546345200,5.30834521484375,0.1424676464104922,-0.0125969955697655,0.0655917542659968,0.0062577091157436,-0.0021608375126387,0.9693868041458442,0.0302257563142746,left,-0.0016448497772216,-0.4768793525152556,1.2370597693704068,-8.624269184669851,-0.2366059991989343,0.0124036371707916,-0.0009163469076156,4.501339067329466,-0.0004416108131408
2025-04-30 01:05:38.586345200,5.34834521484375,0.142310887377548,-0.0045932345092296,0.0655775066548945,0.0074399723671376,-0.0023801906338007,0.9694090544087166,0.029723686333913,left,-0.0020380616188049,-0.4767291564691772,1.235803777959943,-8.62513193897903,-0.2365169341769631,0.0041099600493907,0.0002464354038238,4.500030322818458,-0.0019269585609436
2025-04-30 01:05:38.626345200,5.38834521484375,0.1422636004024997,-0.01263377815485,0.065614488182037,0.0064714285545051,-0.0026097811887027,0.969422052114651,0.0292307359354138,left,-0.0005806684494018,-0.4766255376867239,1.2354619787849486,-8.62565157893896,-0.2364506466676259,0.0047265347093343,0.0001997351646423,4.4991275287598365,-0.0020839273929595
2025-04-30 01:05:38.666345200,5.42834521484375,0.1420211892696797,-0.0165934488177299,0.0655961496062158,0.0046665957197546,-0.0029807552038182,0.9694371431828216,0.0284010094741736,left,0.0004056096076965,-0.4765550959649672,1.2334158599101006,-8.626264742401242,-0.2363896309539172,0.0045870030298829,0.00021393597126,4.498513780775666,-0.0003292858600616
2025-04-30 01:05:38.706345200,5.46834521484375,0.1416745838151444,-0.0070888036862015,0.0655106805997221,-0.0011877873912453,-0.0032581546069149,0.9694714935509888,0.0277289275740828,left,0.0006551146507263,-0.4763493497673494,1.2305565249562262,-8.627607973703741,-0.2362684785418699,0.0083048371598124,-0.0011683404445648,4.496720759879052,0.0009990334510803
2025-04-30 01:05:38.746345200,5.50834521484375,0.1415116268842862,0.0057226149365305,0.0654486456100033,-0.0007018470205366,-0.0032715677945149,0.9695210466337628,0.0276334731488473,left,-0.0012134909629821,-0.4759711920045293,1.2293904037863017,-8.629491303232312,-0.2360823767401485,0.0088263815268874,-0.0012907907366752,4.493424933204055,0.0007335543632507
2025-04-30 01:05:38.786345200,5.54834521484375,0.1415914514006447,0.0093501480296254,0.0654513553174275,0.0013317249249666,-0.0030987849565309,0.9695601165735944,0.0279832587091685,left,-0.0023253560066223,-0.475620147394788,1.2303016734123229,-8.630954361522198,-0.2359235928722681,0.0059240194968879,-0.0009260773658752,4.4903646688506,-0.0013789236545562
2025-04-30 01:05:38.826345200,5.58834521484375,0.1415914514006447,0.0071751428768038,0.0654513553174275,0.0071154264733195,-0.0030987849565309,0.9695601165735944,0.0279832587091685,left,-0.0027669668197631,-0.475620147394788,1.2303016734123229,-8.630954361522198,-0.2359235928722681,0.0078140227124094,0.0004284530878067,4.4903646688506,-0.0045145452022552
2025-04-30 01:05:38.866345200,5.62834521484375,0.1420683359731246,0.000490266829729,0.0656518550149383,0.0053260712884366,-0.0029797930080753,0.9696032311793308,0.0283076137080541,left,-0.0006853342056274,-0.4751219812840869,1.2347341029018164,-8.632579916897416,-0.2356921100661614,0.0028888438828289,-0.0005550384521484,4.486021086688339,-0.0041855871677398
2025-04-30 01:05:38.906345200,5.66834521484375,0.1420683359731246,-0.0016042180359363,0.0656518550149383,0.0021748177241533,-0.0029797930080753,0.9696032311793308,0.0283076137080541,left,-0.0025306940078735,-0.4751219812840869,1.2347341029018164,-8.632579916897416,-0.2356921100661614,-0.001563370693475,-0.0007375329732894,4.486021086688339,-0.003472477197647
2025-04-30 01:05:38.946345200,5.70834521484375,0.1420683359731246,0.0016301369760185,0.0656518550149383,-0.0034478853922337,-0.0029797930080753,0.9696032311793308,0.0283076137080541,left,0.0010915994644165,-0.4751219812840869,1.2347341029018164,-8.632579916897416,-0.2356921100661614,-0.0048013031482696,-0.0018974319100379,4.486021086688339,-0.0037295520305633
2025-04-30 01:05:38.986345200,5.74834521484375,0.1420683359731246,0.005789740011096,0.0656518550149383,0.0009979039896279,-0.0029797930080753,0.9696032311793308,0.0283076137080541,left,-0.0037558078765869,-0.4751219812840869,1.2347341029018164,-8.632579916897416,-0.2356921100661614,-0.0149236731231212,-0.0007699579000473,4.486021086688339,0.0027393698692321
2025-04-30 01:05:39.026345200,5.78834521484375,0.1425777062913228,0.0072209252975881,0.0657856721126931,-0.0008375637698918,-0.0026664641583134,0.969479806187462,0.0291467729206141,left,0.0015884041786193,-0.476043185670539,1.2385434320569038,-8.62785522646308,-0.2361653447511258,-0.0253838114440441,-0.0033501014113426,4.494052417452633,0.000516802072525
2025-04-30 01:05:39.066345200,5.82834521484375,0.1427072696420727,0.0017526256851851,0.0657787952012599,-0.0008812433807179,-0.0024816920442522,0.9693759397782644,0.0296237659872526,left,0.0017412900924682,-0.4768994281972388,1.2391134870298206,-8.62388281570077,-0.2365956614906876,-0.0156170427799224,-0.0019548535346984,4.501513839374482,0.0014487206935882
2025-04-30 01:05:39.106345200,5.86834521484375,0.142855086377186,0.0008783195517025,0.0658126601803828,0.003506482578814,-0.0023920860880529,0.9693157965343664,0.0298803376697059,left,0.0011318922042846,-0.4773733451163036,1.24008437788859,-8.621587398239969,-0.2368334954611236,-0.0064623206853866,-0.0013754963874816,4.505642317481339,0.0012204647064208
2025-04-30 01:05:39.146345200,5.90834521484375,0.142855086377186,-0.004556487314403,0.0658126601803828,0.0058126989752054,-0.0023920860880529,0.9693157965343664,0.0298803376697059,left,0.0009340643882751,-0.4773733451163036,1.24008437788859,-8.621587398239969,-0.2368334954611236,0.0021230801939964,-0.0006895512342453,4.505642317481339,0.0003077089786529
2025-04-30 01:05:39.186345200,5.94834521484375,0.1431216822491322,-0.0061525022611021,0.0659781715383063,0.006929762661457,-0.0025689946753989,0.9693104560248212,0.0295780154927282,left,0.0016781687736511,-0.4773409500718369,1.242403614616394,-8.62140093575716,-0.2368075078651889,-7.04615376889e-05,-0.0010322481393814,4.505360285669565,0.0018403530120849
2025-04-30 01:05:39.226345200,5.98834521484375,0.1431216822491322,-0.0013358313590288,0.0659781715383063,0.0048299650661647,-0.0025689946753989,0.9693104560248212,0.0295780154927282,left,0.0029575228691101,-0.4773409500718369,1.242403614616394,-8.62140093575716,-0.2368075078651889,-0.0019619013182818,-0.0003951340913772,4.505360285669565,0.0017531514167785
2025-04-30 01:05:39.266345200,6.02834521484375,0.1431216822491322,0.002686230931431,0.0659781715383063,0.0039497707039117,-0.0025689946753989,0.9693104560248212,0.0295780154927282,left,0.0011876225471496,-0.4773409500718369,1.242403614616394,-8.62140093575716,-0.2368075078651889,0.0031338683329522,0.0001125335693359,4.505360285669565,0.0005271732807159
2025-04-30 01:05:39.306345200,6.06834521484375,0.1438231498563938,0.0049704965204,0.0662906443667804,0.0070231165736913,-0.0025290284310464,0.9692996472395886,0.0298240205350124,left,-8.51154327392e-05,-0.4772372624691295,1.248517859712988,-8.62098943234682,-0.236764545226215,-0.0004913008306175,0.0005976855754852,4.504457199349999,0.0015391111373901
2025-04-30 01:05:39.346345200,6.10834521484375,0.1438231498563938,0.0072547616437077,0.0662906443667804,0.0100964624434709,-0.0025290284310464,0.9692996472395886,0.0298240205350124,left,-0.001315951347351,-0.4772372624691295,1.248517859712988,-8.62098943234682,-0.236764545226215,-0.0041164699941873,0.0017063319683074,4.504457199349999,0.0024589300155639
2025-04-30 01:05:39.386345200,6.14834521484375,0.1446019572629887,0.0002082423307001,0.0666303883173921,-0.0070007313042879,-0.0024505855257402,0.9692929175288686,0.0301639386272825,left,0.003023624420166,-0.4770770973689726,1.25533557690382,-8.620727566540241,-0.2366973035909524,0.0080073550343513,0.0009753555059432,4.503061945599318,-0.0017722845077514
2025-04-30 01:05:39.426345500,6.188345458984375,0.1444975812218975,0.0037292803172022,0.0666038916070179,0.0004987283609807,-0.0024613396910444,0.9693835078362146,0.0300597108173392,left,0.0015260577201843,-0.4763331704590785,1.2549177898831665,-8.624171569514274,-0.236333579992906,0.0244919303804636,0.0007064044475555,4.496579890103638,-0.0002444982528686
2025-04-30 01:05:39.466345200,6.22834521484375,0.1442803278727994,-0.0078330524265766,0.0665564340925291,-0.0051923496648669,-0.0025665300365863,0.9695133612986584,0.0297099171090533,left,0.000686228275299,-0.4752810527103486,1.2537236116625368,-8.629120716354251,-0.2358124948663486,0.0287728179246187,-0.0003165900707244,4.487408157132566,-0.0006186962127685
2025-04-30 01:05:39.506345200,6.26834521484375,0.1435523928967595,-0.0115520181134343,0.066294853649929,-0.0139421708881855,-0.0027609016974731,0.969647587881273,0.0290602777544477,left,0.0033836960792541,-0.4743310332470457,1.2480511189840733,-8.634246388804913,-0.2353315659119627,0.0203057080507278,-0.0011718422174453,4.479122267085313,-0.0017855763435363
2025-04-30 01:05:39.546345200,6.30834521484375,0.1426962619075207,-0.0035743024200201,0.0659272083488827,-0.021005779504776,-0.0028201148518566,0.969716995088434,0.0287036382800608,left,9.12547111511e-05,-0.4739741949498859,1.2408859035298228,-8.636893688443303,-0.2351480501332017,-0.0020460449159145,-0.0039532780647277,4.476008811239898,0.0005764365196228
2025-04-30 01:05:39.586345200,6.34834521484375,0.1420456999076162,0.0069071957841515,0.0655878103995323,-0.0117796659469604,-0.0026929507638333,0.9696821414287669,0.0288442857791226,left,-0.0018061399459838,-0.4744586000326654,1.2349597283512352,-8.635551626184583,-0.2353883031015964,-0.0215488262474536,-0.0021186843514442,4.480234904502332,0.0021394789218902
2025-04-30 01:05:39.626345200,6.38834521484375,0.1417787187691094,0.0017661843448877,0.0654022142038065,-0.0055815316736698,-0.0025377010380033,0.9695652845721406,0.0291801021159179,left,-0.0010040998458862,-0.4755378754971704,1.2319701911464334,-8.631089386078715,-0.2359226214625142,-0.0270845238119363,-0.0019450113177299,4.489647460491955,-5.0663948059e-05
2025-04-30 01:05:39.666345200,6.42834521484375,0.1414501247016178,-0.0073169358074665,0.065242186206061,-0.0056680105626583,-0.002575006996023,0.969482514277856,0.0290824540241058,left,-1.78813934326e-05,-0.4763348505333521,1.2286292101554572,-8.62794816544354,-0.2363060227089087,-0.0051146578043699,-0.0008894130587577,4.49659450315088,-0.0025835931301116
2025-04-30 01:05:39.706345200,6.46834521484375,0.1411675850682884,-0.0097320908680558,0.0651647547139563,0.0009458386339247,-0.0027635926520302,0.9695175796033936,0.0286077846693349,left,-0.0020132660865783,-0.4761088261016642,1.2263343772165476,-8.629301333618164,-0.2361814106164438,0.0183164291083812,7.96020030975e-05,4.494624372121692,-0.0007865130901336
2025-04-30 01:05:39.746345200,6.50834521484375,0.1408523035533504,-0.0118342954665422,0.0651057328603405,0.0022930472623556,-0.0030266346352736,0.9696285736537006,0.0279241217941409,left,-0.0013767480850219,-0.4752397335342913,1.22416156322211,-8.633551976799964,-0.2357384761606582,0.0235563926398754,-0.000222235918045,4.487047799387574,-0.0013675987720489
2025-04-30 01:05:39.786345200,6.54834521484375,0.1405707635946696,-0.0033684764057397,0.0650307909885583,-0.0099336476996541,-0.0031542439660334,0.9697481597746536,0.0275223572441484,left,0.0004740953445434,-0.4742886906047605,1.222328137249872,-8.638117092758417,-0.2352649596223209,0.0303835980594158,-0.0046460703015327,4.478752849251031,-0.0106129348278045
2025-04-30 01:05:39.826345200,6.58834521484375,0.1405648551184629,0.0143931228667497,0.0650356309710859,0.0071491589769721,-0.0030686434452216,0.9698882179194194,0.0276090694102799,left,-0.0104572176933288,-0.4730895658514069,1.2230286136694253,-8.643435657432676,-0.2346865998088419,0.0169706288725137,-0.0014607086777687,4.468288153859973,-0.0004682838916778
2025-04-30 01:05:39.866345200,6.62834521484375,0.1409385151377148,0.009375911206007,0.0651277773993186,0.0018629129044711,-0.0028161957496517,0.96979211591769,0.0282740234685206,left,-0.0057865381240844,-0.4738190517297382,1.2258000511441378,-8.639749077874422,-0.2350612503379401,-0.009860498830676,-0.0023460537195205,4.474655058543384,-0.0022168159484863
2025-04-30 01:05:39.906345200,6.66834521484375,0.1413128310756108,0.004358697682619,0.0652199062040034,-0.0034233327023684,-0.0025637614581303,0.969695716194312,0.0289394975570129,left,-0.001116394996643,-0.4745482304914978,1.2285741189673542,-8.636056653097272,-0.2354358284755504,-0.036691628396511,-0.0032316595315933,4.481016994790733,-0.0039648711681365
2025-04-30 01:05:39.946345200,6.70834521484375,0.1412674315486773,0.0059788394719362,0.0651214821762757,-0.0041880840435624,-0.0023947455824904,0.9695204480058496,0.0293897539765778,left,0.0020219683647155,-0.4760651619999851,1.2272235811412333,-8.629373229810595,-0.2361855959567344,-0.0439498908817768,-0.0036289170384407,4.4942438483715055,0.0024939477443695
2025-04-30 01:05:39.986345200,6.74834521484375,0.141213202350777,0.0036725581157952,0.0650081069777747,-0.0049337889067828,-0.0022111324292378,0.969311324993512,0.0298893436009154,left,0.001232087612152,-0.4778683820219326,1.2256130041394382,-8.62140210480094,-0.2370754878320189,-0.0419538468122482,-0.0007684230804443,4.509953750939667,0.0017057955265045
2025-04-30 01:05:40.026345200,6.78834521484375,0.141274322481979,-0.0011004528496414,0.0649789398782129,0.0022252886556088,-0.0020807964402625,0.9691889550529604,0.0302495680951992,left,3.62396240234e-05,-0.4788942296702199,1.225487843389809,-8.616742296296358,-0.2375840451252353,-0.0083342865109443,-2.25752592086e-05,4.518884660892188,5.01275062561e-05
2025-04-30 01:05:40.066345200,6.82834521484375,0.141274322481979,-0.0028988057747483,0.0649789398782129,0.0001505990512669,-0.0020807964402625,0.9691889550529604,0.0302495680951992,left,0.002606987953186,-0.4788942296702199,1.225487843389809,-8.616742296296358,-0.2375840451252353,0.0164239034056663,-0.0012634545564651,4.518884660892188,-0.002465546131134
2025-04-30 01:05:40.106345200,6.86834521484375,0.1413554061893682,-0.0015376609517261,0.0650941764806561,0.0137144941836595,-0.0022583304387491,0.96935340165172,0.0297970700663277,left,-0.0024019479751586,-0.4774695994005017,1.2270922098465262,-8.623007786431907,-0.2368791598508327,0.039657637476921,0.0012483596801757,4.506480814132094,-0.0005073845386505
2025-04-30 01:05:40.146345200,6.90834521484375,0.1419133943454934,0.000333655741997,0.0653974404064516,0.0045641800388693,-0.0023219893256525,0.9694955497581208,0.0296998692661993,left,0.0002745985984802,-0.4761007477360148,1.2327749316580592,-8.628419874608516,-0.236212199562136,0.0228027291595935,-0.0020355582237243,4.494553937233984,-2.75373458862e-05
2025-04-30 01:05:40.186345200,6.94834521484375,0.1419133943454934,0.0039536547847092,0.0653974404064516,-0.000902587082237,-0.0023219893256525,0.9694955497581208,0.0296998692661993,left,0.0004466772079467,-0.4761007477360148,1.2327749316580592,-8.628419874608516,-0.236212199562136,-0.0002081524580717,-0.0004053711891174,4.494553937233984,-0.0010158419609069
2025-04-30 01:05:40.226345200,6.98834521484375,0.1419133943454934,0.0035930038429796,0.0653974404064516,-0.0012901102891191,-0.0023219893256525,0.9694955497581208,0.0296998692661993,left,0.0010662674903869,-0.4761007477360148,1.2327749316580592,-8.628419874608516,-0.236212199562136,-0.0130582693964242,-0.0014915838837623,4.494553937233984,-0.0011606216430664
2025-04-30 01:05:40.266345200,7.02834521484375,0.1419308719780068,-0.0030475920066237,0.0653658864956669,2.804910764e-06,-0.0022353725863371,0.9694069138126912,0.0299391086123234,left,-0.0009692907333374,-0.476854375606108,1.232446284225583,-8.625043091651797,-0.2365851232746408,-0.0300123617053031,0.0019001811742782,4.501121332925558,-0.0006973445415496
2025-04-30 01:05:40.306345200,7.06834521484375,0.1419265590444803,-0.0105538452044129,0.0653704442698962,0.0010042046196758,-0.0023755446751977,0.9692737039402236,0.0297335299441533,left,-3.93986701965e-05,-0.4779881274548122,1.2316864057689905,-8.619990484437347,-0.2371276238933472,-0.0251223165541887,7.73221254348e-05,4.510996537990867,-2.84314155578e-05
2025-04-30 01:05:40.346345200,7.10834521484375,0.1415359471689197,-0.0145982215180993,0.0652208301726517,-0.007157661486417,-0.0025917351254445,0.9691671501374916,0.0292670219123448,left,0.0032635331153869,-0.4789976041560937,1.2276762933447956,-8.615958452442287,-0.2376018178962737,-0.0170379988849163,-0.0002887174487113,4.519784240080416,0.0007888078689575
2025-04-30 01:05:40.386345200,7.14834521484375,0.1415359471689197,-0.0013613123446702,0.0652208301726517,-0.0103147281333804,-0.0025917351254445,0.9691671501374916,0.0292670219123448,left,0.0008754730224609,-0.4789976041560937,1.2276762933447956,-8.615958452442287,-0.2376018178962737,2.43950635194e-05,-0.0007251948118209,4.519784240080416,-0.000294953584671
2025-04-30 01:05:40.426345500,7.188345458984375,0.1408534028279962,0.0089245168492197,0.0648966363374984,-0.009913982823491,-0.0025494194872464,0.9691748630042032,0.0291960366007449,left,3.98755073547e-05,-0.4791193238589914,1.2217178963970392,-8.616249544343352,-0.2376593540480378,0.0032822319772094,-3.29986214637e-05,4.520843686005473,-1.34408473968e-05
2025-04-30 01:05:40.466345200,7.22834521484375,0.140409342122625,0.0043734600767493,0.0646553739667633,-0.0168740227818489,-0.0023654286023003,0.9692192993748922,0.0294482000360039,left,-0.0032556056976318,-0.4788673327327179,1.218051117517799,-8.617919523382186,-0.2375459993315908,0.0118926456198096,-0.0017934218049049,4.518650559875369,-0.0070289969444274
2025-04-30 01:05:40.506345200,7.26834521484375,0.1397526361188586,-0.0001199995167553,0.0643798138313768,-0.0042458120733499,-0.0023731887845973,0.9693461744240996,0.0292050421228659,left,-0.0032623410224914,-0.4779672326779581,1.2129574476405978,-8.622741828972101,-0.2371029100051595,0.0233031120151281,-0.0010061413049697,4.510814459422231,-0.0076490342617034
2025-04-30 01:05:40.546345200,7.30834521484375,0.139097289600809,0.0027619956526905,0.0641068128952734,-0.0067809829488396,-0.0024115779317211,0.9694466126150196,0.0289158446332806,left,-0.0085282325744628,-0.4772879105365258,1.207730872098729,-8.62656694021821,-0.2367653192508058,0.0084116179496049,-0.0031619518995285,4.504898221115767,-0.0021002888679504
2025-04-30 01:05:40.586345200,7.34834521484375,0.1394823945180301,0.0211664326488971,0.0642185115683154,0.0090628778561949,-0.0021588834626185,0.9694246392725528,0.0295376767204598,left,-0.0057068467140197,-0.4773758010238097,1.2109979110706597,-8.62570944660604,-0.2368274117843066,-0.0237323995679616,-0.0044261664152145,4.505663944791257,-0.0007504522800445
2025-04-30 01:05:40.626345200,7.38834521484375,0.1401129563338169,0.0088253300637006,0.0643838190700739,0.0002642646431922,-0.0017934609436355,0.9692475450538904,0.0305448144170868,left,0.0039126276969909,-0.4787184971956352,1.215590718753636,-8.618945943820476,-0.2375095881403305,-0.0460877269506454,-0.0041091293096542,4.517354967106878,-0.0035776793956756
2025-04-30 01:05:40.666345200,7.42834521484375,0.1401974258585121,0.0008479179814457,0.0643414296400275,0.0049202814698219,-0.0016607328929155,0.9690134460749036,0.0309847174278642,left,-0.0013678669929504,-0.4806829775497056,1.2150763394907116,-8.610038999265432,-0.2384751003342079,-0.0502351708710193,-0.0017562359571456,4.53444551037848,0.0003163516521453
2025-04-30 01:05:40.706345200,7.46834521484375,0.1406294827766358,-0.001851902808994,0.0644791817624521,0.0093994047492742,-0.001624448875474,0.9687612909533496,0.0313154630112657,left,0.0028344392776489,-0.4826968167054624,1.2175137957707047,-8.60045459384024,-0.2394604709198925,-0.0467049926519393,-0.0012894421815872,4.55194755706042,0.0038318932056427
2025-04-30 01:05:40.746345200,7.50834521484375,0.140954642682637,-0.0028196088969707,0.0645940502845332,0.0061014969833195,-0.0016625785116262,0.9685489056257552,0.0314436798661694,left,0.0024447441101074,-0.4843970180414364,1.2192212572757155,-8.592383515587448,-0.2402873224213202,-0.0358024612069129,-0.0013684183359146,4.566709072862565,0.0033951997756958
2025-04-30 01:05:40.786345200,7.54834521484375,0.141267975167234,-0.0041773105040192,0.0647363001392568,0.0129366545006632,-0.0017537772271188,0.9684302806094964,0.0314009727978111,left,0.0003018975257873,-0.4853067802212951,1.221327947231382,-8.587883866080642,-0.2407259879830166,-0.0071609336882829,0.0011796802282333,4.574602748721838,0.0011557638645172
2025-04-30 01:05:40.826345200,7.58834521484375,0.1416283938279168,-0.0082978550344705,0.0649611365510336,0.0170583929866552,-0.0019887024594747,0.9684310723668657,0.0309973114616141,left,-0.0012538433074951,-0.4851986448736556,1.2244929140683265,-8.587932965919375,-0.2406602405422042,0.0121685843914747,0.0006809309124946,4.573664591088891,0.0012365579605102
2025-04-30 01:05:40.866345200,7.62834521484375,0.1422627531905347,-0.0082637760788202,0.0653341382869894,0.0240933485329151,-0.0022716832632812,0.9684792776461272,0.0305269475579309,left,-0.0016466975212097,-0.4846177062216536,1.230317017111927,-8.589783562222122,-0.2403630585957437,0.0175742283463478,-0.0014667883515357,4.568624258834124,0.0005886256694793
2025-04-30 01:05:40.906345200,7.66834521484375,0.1422627531905347,-0.0071973106823861,0.0653341382869894,0.0079968925565481,-0.0022716832632812,0.9684792776461272,0.0305269475579309,left,0.0023636817932128,-0.4846177062216536,1.230317017111927,-8.589783562222122,-0.2403630585957437,0.0025037555024027,-0.0034124478697776,4.568624258834124,0.0016157329082489
2025-04-30 01:05:40.946345200,7.70834521484375,0.1431042007502378,0.0056707500480115,0.0657895697579254,0.0110894227400422,-0.0025470329095952,0.968473810748313,0.030152842723531,left,0.0006550550460815,-0.4844278681100074,1.237668110527098,-8.5896035294801,-0.2402579144935025,-0.0070618819445371,-0.0009826719760894,4.566976783888042,0.0010376274585723
2025-04-30 01:05:40.986345200,7.74834521484375,0.1431042007502378,0.0002434710040688,0.0657895697579254,0.0170723423361778,-0.0025470329095952,0.968473810748313,0.030152842723531,left,-0.0010135173797607,-0.4844278681100074,1.237668110527098,-8.5896035294801,-0.2402579144935025,-0.0047260588034987,0.0002519339323043,4.566976783888042,-0.000960350036621
2025-04-30 01:05:41.026345200,7.78834521484375,0.1444937702545749,-0.0142188994213938,0.0664660476648269,0.0245563313364982,-0.0028056400882954,0.9683366253222012,0.0300215775353556,left,7.03930854797e-05,-0.4851912881589009,1.2491003357760608,-8.584422327449918,-0.2406211884165769,-0.0094762118533253,0.0008661150932312,4.573600878202915,-0.0003530085086822
2025-04-30 01:05:41.066345200,7.82834521484375,0.1451814972683202,-0.024033635854721,0.0668952046588073,0.0206621438264846,-0.0033004666524974,0.9682828066614996,0.0291894107584064,left,0.0018954873085021,-0.4854399977359877,1.2548391716890035,-8.582435537546873,-0.2407127314927567,0.0075596133247017,-0.0008327662944793,4.575758056236803,-0.0017505884170532
2025-04-30 01:05:41.106345200,7.86834521484375,0.1452305499009223,-0.0129750808700919,0.0670434881113258,0.0078078228980302,-0.0037762286152099,0.9683168873765294,0.0281950222595578,left,0.0016064643859863,-0.4851266771391498,1.2554676788508892,-8.583792212852835,-0.2405277067845289,0.0141880782321095,-0.0018786936998367,4.573040321710706,0.0038326680660247
2025-04-30 01:05:41.146345200,7.90834521484375,0.1452305499009223,0.0055706119164824,0.0670434881113258,0.0039820661768317,-0.0037762286152099,0.9683168873765294,0.0281950222595578,left,0.0013972520828247,-0.4851266771391498,1.2554676788508892,-8.583792212852835,-0.2405277067845289,0.0030334778130054,-0.0018789768218994,4.573040321710706,0.0038837492465972
2025-04-30 01:05:41.186345200,7.94834521484375,0.1452305499009223,0.0054662306793034,0.0670434881113258,0.0029785591177642,-0.0037762286152099,0.9683168873765294,0.0281950222595578,left,0.0004087090492248,-0.4851266771391498,1.2554676788508892,-8.583792212852835,-0.2405277067845289,0.0002744295634329,-0.0009036213159561,4.573040321710706,-0.0004372000694274
2025-04-30 01:05:41.226345200,7.98834521484375,0.1452305499009223,-0.0140192620456218,0.0670434881113258,0.0007772142998874,-0.0037762286152099,0.9683168873765294,0.0281950222595578,left,-0.0030897259712219,-0.4851266771391498,1.2554676788508892,-8.583792212852835,-0.2405277067845289,0.0064962697215378,0.0014419108629226,4.573040321710706,-0.0043722987174987
2025-04-30 01:05:41.266345200,8.02834521484375,0.1453420737820934,-0.0205970332026481,0.0672165238298307,0.0003499152371659,-0.0041916234733211,0.968404729158283,0.0273050483337952,left,0.0039747953414916,-0.4843427273018278,1.2569437427528205,-8.58719646833837,-0.2401182477614857,0.0077671660110354,-0.0027956962585449,4.566237948219478,-0.004069447517395
2025-04-30 01:05:41.306345200,8.06834521484375,0.1453420737820934,-0.002674002200365,0.0672165238298307,0.0150073673576116,-0.0041916234733211,0.968404729158283,0.0273050483337952,left,-0.0087281465530395,-0.4843427273018278,1.2569437427528205,-8.58719646833837,-0.2401182477614857,0.0077237198129296,-0.0013500154018402,4.566237948219478,0.0055928528308868
2025-04-30 01:05:41.346345200,8.10834521484375,0.1463610656557473,0.0065167173743247,0.0677426823367194,0.0140133900567889,-0.004408968451473,0.9684145980108864,0.027080034890234,left,0.0036715865135192,-0.4839670108336203,1.2659434801578522,-8.587607971748708,-0.23992662930285,-0.0095873335376381,-0.0038263201713562,4.562976900596916,0.0030419826507568
2025-04-30 01:05:41.386345200,8.14834521484375,0.1463610656557473,-0.0013491669669747,0.0677426823367194,0.0023751575499773,-0.004408968451473,0.9684145980108864,0.027080034890234,left,0.0030847787857055,-0.4839670108336203,1.2659434801578522,-8.587607971748708,-0.23992662930285,0.0036827260628342,-0.0004315823316574,4.562976900596916,-0.0020923912525177
2025-04-30 01:05:41.426345500,8.188345458984376,0.1463610656557473,-0.0005963365547358,0.0677426823367194,0.0129055865108966,-0.004408968451473,0.9684145980108864,0.027080034890234,left,-0.0004360675811767,-0.4839670108336203,1.2659434801578522,-8.587607971748708,-0.23992662930285,0.0179497599601745,0.0008019506931304,4.562976900596916,5.96940517425e-05
2025-04-30 01:05:41.466345200,8.22834521484375,0.1474443278503631,-0.0025311140343546,0.0682894464570178,0.0034256959334015,-0.0045510545019607,0.9684705289284732,0.0269946299747516,left,0.0041608214378356,-0.4831850468231193,1.2757691469930112,-8.589758427780867,-0.2395428446288873,0.0027975402772426,-0.0012271404266357,4.556187678848207,0.0010953545570373
2025-04-30 01:05:41.506345200,8.26834521484375,0.1474443278503631,-0.0009037422714754,0.0682894464570178,0.0003338295500725,-0.0045510545019607,0.9684705289284732,0.0269946299747516,left,-0.0021429657936096,-0.4831850468231193,1.2757691469930112,-8.589758427780867,-0.2395428446288873,0.0041658445261418,-0.0002146363258361,4.556187678848207,-0.0012779235839843
2025-04-30 01:05:41.546345200,8.30834521484375,0.1474443278503631,-0.0013188531156629,0.0682894464570178,0.0011572642251849,-0.0045510545019607,0.9684705289284732,0.0269946299747516,left,0.0013471245765686,-0.4831850468231193,1.2757691469930112,-8.589758427780867,-0.2395428446288873,0.000975172035396,-0.0006846189498901,4.556187678848207,0.0017549395561218
2025-04-30 01:05:41.586345200,8.34834521484375,0.1470659497747886,-0.0021319915540516,0.0681743626472835,0.0001670073252171,-0.0047297239742376,0.9685442880682318,0.0264919176644082,left,-0.0017253756523132,-0.4826629506123203,1.272867288071662,-8.592592774423956,-0.2392738633585888,0.0117791453376412,-0.0003740936517715,4.551653250288963,-0.0017042160034179
2025-04-30 01:05:41.626345200,8.38834521484375,0.1473216516484339,-0.0029757337179034,0.0683334227015603,0.0037425435148179,-0.0048174255050251,0.9686379847152335,0.02630721599043,left,-0.0009253621101379,-0.4817960272920061,1.2756431825257837,-8.59616712577939,-0.2388472896713389,0.0254655219614505,-0.001360073685646,4.544121101218462,-0.001694917678833
2025-04-30 01:05:41.666345200,8.42834521484375,0.1471200031370934,-0.0026840046048164,0.0682838359879676,-0.0048347092233598,-0.004903606782143,0.9687460995882372,0.0260133193123915,left,0.0017547607421875,-0.4809343578108248,1.2744831988357006,-8.600293850320577,-0.2384206091341789,0.0180984698235988,-0.0002194643020629,4.536631329984963,0.0005165934562683
2025-04-30 01:05:41.706345200,8.46834521484375,0.1471200031370934,0.0038689845241606,0.0682838359879676,-0.003657610155642,-0.004903606782143,0.9687460995882372,0.0260133193123915,left,-0.0008483529090881,-0.4809343578108248,1.2744831988357006,-8.600293850320577,-0.2384206091341789,0.0113068390637636,-0.0018147677183151,4.536631329984963,-0.0031340718269348
2025-04-30 01:05:41.746345200,8.50834521484375,0.146830764729123,-0.0025487351231276,0.0681586371644935,-0.0021007845643907,-0.0048252279603812,0.9688816022697048,0.0260223666415906,left,-0.0019311904907226,-0.4798709833733002,1.2727006993331014,-8.605429459643364,-0.2379067636345906,0.0141895357519388,-0.0016690641641616,4.527383609168231,-0.005707710981369
2025-04-30 01:05:41.786345200,8.54834521484375,0.146830764729123,-0.0077936286106705,0.0681586371644935,-0.0036623619962483,-0.0048252279603812,0.9688816022697048,0.0260223666415906,left,-0.0007621645927429,-0.4798709833733002,1.2727006993331014,-8.605429459643364,-0.2379067636345906,-0.0078135356307029,-0.0029279142618179,4.527383609168231,4.91738319396e-05
2025-04-30 01:05:41.826345200,8.58834521484375,0.146830764729123,-0.000423215329647,0.0681586371644935,-0.0069017182104289,-0.0048252279603812,0.9688816022697048,0.0260223666415906,left,0.0007901787757873,-0.4798709833733002,1.2727006993331014,-8.605429459643364,-0.2379067636345906,-0.0086590256541967,-0.0039045810699462,4.527383609168231,-6.7353248596e-06
2025-04-30 01:05:41.866345200,8.62834521484375,0.1460553754437269,0.0050149546004831,0.067815442510663,-0.0044435691088438,-0.0048940612312486,0.9688722432300798,0.0257125014768329,left,-0.0015614628791809,-0.4801674068309342,1.2658324209988117,-8.605085760772228,-0.2380416383305838,0.0063423058018088,-0.0034597218036651,4.529961935223639,-0.0015891194343566
2025-04-30 01:05:41.906345200,8.66834521484375,0.1460553754437269,0.0036257528699934,0.067815442510663,-0.0027092485688626,-0.0048940612312486,0.9688722432300798,0.0257125014768329,left,-0.001099407672882,-0.4801674068309342,1.2658324209988117,-8.605085760772228,-0.2380416383305838,-0.0043405769392848,-0.0022326707839965,4.529961935223639,-0.0002880990505218
2025-04-30 01:05:41.946345200,8.70834521484375,0.1460553754437269,-0.0027760104276239,0.067815442510663,0.0046384981833398,-0.0048940612312486,0.9688722432300798,0.0257125014768329,left,-0.0011944770812988,-0.4801674068309342,1.2658324209988117,-8.605085760772228,-0.2380416383305838,-0.0113225206732749,-0.0004461854696273,4.529961935223639,-0.0009901523590087
2025-04-30 01:05:41.986345200,8.74834521484375,0.1460553754437269,-0.0042241867631673,0.067815442510663,0.0020325789228081,-0.0048940612312486,0.9688722432300798,0.0257125014768329,left,-0.0003142356872558,-0.4801674068309342,1.2658324209988117,-8.605085760772228,-0.2380416383305838,-0.0019053602591156,-0.0004002749919891,4.529961935223639,-0.0039783120155334
2025-04-30 01:05:42.026345200,8.78834521484375,0.1460553754437269,0.0055999187752604,0.067815442510663,-0.005307822022587,-0.0048940612312486,0.9688722432300798,0.0257125014768329,left,0.005147099494934,-0.4801674068309342,1.2658324209988117,-8.605085760772228,-0.2380416383305838,-0.0030866083689033,-0.0010505765676498,4.529961935223639,-0.0007758736610412
2025-04-30 01:05:42.066345200,8.82834521484375,0.14600408508538,0.0169248208403587,0.0676986733467139,-0.0067125768400728,-0.0045696885525166,0.9688085827062408,0.0264128399097444,left,-0.0051596760749816,-0.4807353188433001,1.2650165745712816,-8.60260388082862,-0.2383404520052535,-0.0014526320155709,-0.0007107853889465,4.534900852930545,0.0007670819759368
2025-04-30 01:05:42.106345200,8.86834521484375,0.1464711867736104,0.0320863053202629,0.0677667303259843,0.002263696398586,-0.0040151540516299,0.968756540414149,0.0276977948149289,left,-0.0001136064529418,-0.4810642028456957,1.2688169897675514,-8.600535842382907,-0.238542218499071,-0.0209551844745874,-0.0011784732341766,4.537760334014893,-0.0001941621303558
2025-04-30 01:05:42.146345200,8.90834521484375,0.1468458387861333,0.0140626560896635,0.0677867608560179,-0.007503927219659,-0.0034902683494622,0.9686457622183192,0.0289391164837321,left,0.002533733844757,-0.4819130661137592,1.271475103060901,-8.596246620756387,-0.2389945011422795,-0.0178376920521259,-0.0016312152147293,4.545138169306516,-0.0059774518013
2025-04-30 01:05:42.186345200,8.94834521484375,0.1467905090689078,0.004607742652297,0.0676862556435125,-0.0050538876093924,-0.0032773886277733,0.9685406900116554,0.0294351067776684,left,-0.0010507106781005,-0.4828220195718797,1.2703946143478155,-8.592226279199123,-0.239451365827879,-0.0242622457444667,-0.000425100326538,4.553035060036182,0.0006807148456573
2025-04-30 01:05:42.226345200,8.98834521484375,0.1467905090689078,0.0046204859390854,0.0676862556435125,-0.0069296499714255,-0.0032773886277733,0.9685406900116554,0.0294351067776684,left,0.0013492107391357,-0.4828220195718797,1.2703946143478155,-8.592226279199123,-0.239451365827879,-0.0185380056500434,-0.001188114285469,4.553035060036182,0.0012124776840209
2025-04-30 01:05:42.266345200,9.02834521484375,0.1466056212327492,0.006550058722496,0.0675005983230728,-0.0062954220920801,-0.002996488392222,0.968396708628526,0.0300675312088706,left,2.19941139221e-05,-0.484093930505928,1.267959057763964,-8.586725343695283,-0.2400886215035849,-0.005037629045546,-0.0009466707706451,4.564078724358976,0.0004122555255889
2025-04-30 01:05:42.306345200,9.06834521484375,0.1466056212327492,0.0070608840323984,0.0675005983230728,0.0001638503745198,-0.002996488392222,0.968396708628526,0.0300675312088706,left,4.27365303039e-05,-0.484093930505928,1.267959057763964,-8.586725343695283,-0.2400886215035849,0.0004723640158772,-0.0001981705427169,4.564078724358976,0.0001483559608459
2025-04-30 01:05:42.346345200,9.10834521484375,0.146361452474853,0.0027683246880769,0.0673454748334739,-0.003737969789654,-0.0027973470442886,0.9684299141154572,0.0304024415105141,left,-0.0017953515052795,-0.4838884936602036,1.2659991558678447,-8.58796219201386,-0.2400008331751684,0.0113138016313314,-0.0003242194652557,4.562295348073542,-0.0017996728420257
2025-04-30 01:05:42.386345200,9.14834521484375,0.146361452474853,0.0018098185537382,0.0673454748334739,0.0002172496169805,-0.0027973470442886,0.9684299141154572,0.0304024415105141,left,-0.0012347698211669,-0.4838884936602036,1.2659991558678447,-8.58796219201386,-0.2400008331751684,0.0031872596591711,-0.0016821771860122,4.562295348073542,-0.0005756318569183
2025-04-30 01:05:42.426345500,9.188345458984376,0.146361452474853,0.0003132035490125,0.0673454748334739,-0.0081075159832835,-0.0027973470442886,0.9684299141154572,0.0304024415105141,left,0.0001342296600341,-0.4838884936602036,1.2659991558678447,-8.58796219201386,-0.2400008331751684,-0.0096494080498814,-0.0025980472564697,4.562295348073542,-0.0012620091438293
2025-04-30 01:05:42.466345200,9.22834521484375,0.146361452474853,0.0076680472120642,0.0673454748334739,-0.0036755190230906,-0.0027973470442886,0.9684299141154572,0.0304024415105141,left,0.0017059445381164,-0.4838884936602036,1.2659991558678447,-8.58796219201386,-0.2400008331751684,-0.0161690600216388,-0.0030438005924224,4.562295348073542,-0.0008511841297149
2025-04-30 01:05:42.506345200,9.26834521484375,0.1462242853107724,0.001172000542283,0.0671782743111286,0.0016329060308635,-0.0024857584881178,0.9683065316780616,0.0310953580968367,left,-0.0009788870811462,-0.4849710341267246,1.2641007749006152,-8.583244515842198,-0.240548184226409,-0.015955239534378,-0.0009650886058807,4.571690076145529,-0.0024561882019042
2025-04-30 01:05:42.546345200,9.30834521484375,0.1461086916243869,-0.0127258216962218,0.0671285590888949,0.0050785583443939,-0.0025719275386615,0.9682232883082512,0.0309448045042801,left,-0.0007204413414001,-0.485700261731099,1.2626228113025426,-8.58008985120356,-0.2408961110295431,-0.0127756316214799,-0.0002224892377853,4.5780154797747725,-0.0009146332740783
2025-04-30 01:05:42.586345200,9.34834521484375,0.1461086916243869,-0.0119614601135253,0.0671285590888949,-0.0027875951491296,-0.0025719275386615,0.9682232883082512,0.0309448045042801,left,0.0011568665504455,-0.485700261731099,1.2626228113025426,-8.58008985120356,-0.2408961110295431,-0.0064909760840237,-0.0008866041898727,4.5780154797747725,0.0017873644828796
2025-04-30 01:05:42.626345200,9.38834521484375,0.1454209326003728,-0.0012947833165526,0.0668916108488561,-0.0054515940137207,-0.002937735640745,0.9681712980949588,0.0300654149780035,left,0.0007428526878356,-0.4863186973071778,1.2563109978072344,-8.578153330183028,-0.241166802509346,-0.0007758643478155,-0.000396728515625,4.5833778835907575,-0.0003071725368499
2025-04-30 01:05:42.666345200,9.42834521484375,0.1454209326003728,0.0015522688627243,0.0668916108488561,-0.0028568194247782,-0.002937735640745,0.9681712980949588,0.0300654149780035,left,-0.0011482238769531,-0.4863186973071778,1.2563109978072344,-8.578153330183028,-0.241166802509346,0.0025126631371676,-2.65538692474e-05,4.5833778835907575,-0.0001733005046844
2025-04-30 01:05:42.706345200,9.46834521484375,0.1454209326003728,-0.0015259541105479,0.0668916108488561,-0.007330815307796,-0.002937735640745,0.9681712980949588,0.0300654149780035,left,0.0008668303489685,-0.4863186973071778,1.2563109978072344,-8.578153330183028,-0.241166802509346,-0.0053074457682669,-0.0016633570194244,4.5833778835907575,-0.000799685716629
2025-04-30 01:05:42.746345200,9.50834521484375,0.1445726731638222,-0.0072983670979738,0.0664993656384518,-0.0104103721678256,-0.0029362074491967,0.9681673391345562,0.0298776160418467,left,-2.12788581848e-05,-0.4865859083462385,1.2488576130613684,-8.57800369257927,-0.2412910739773348,-0.0026525068096816,-0.0017717480659484,4.585694343839585,-0.0021112859249114
2025-04-30 01:05:42.786345200,9.54834521484375,0.1445726731638222,-0.0019109761342406,0.0664993656384518,-0.0099253673106431,-0.0029362074491967,0.9681673391345562,0.0298776160418467,left,0.0025301575660705,-0.4865859083462385,1.2488576130613684,-8.57800369257927,-0.2412910739773348,-0.001242454862222,-0.0039712786674499,4.585694343839585,-0.0009669661521911
2025-04-30 01:05:42.826345200,9.58834521484375,0.1445726731638222,0.0049764472059905,0.0664993656384518,0.0045736981555819,-0.0029362074491967,0.9681673391345562,0.0298776160418467,left,-0.0082507133483886,-0.4865859083462385,1.2488576130613684,-8.57800369257927,-0.2412910739773348,0.0045145284384489,-0.0003137290477752,4.585694343839585,0.0032993257045745
2025-04-30 01:05:42.866345200,9.62834521484375,0.1445726731638222,0.0053928811103105,0.0664993656384518,0.0053806514479219,-0.0029362074491967,0.9681673391345562,0.0298776160418467,left,0.0027077794075012,-0.4865859083462385,1.2488576130613684,-8.57800369257927,-0.2412910739773348,0.0014161607250571,-0.0027979463338851,4.585694343839585,-0.0031909942626953
2025-04-30 01:05:42.906345200,9.66834521484375,0.1445726731638222,0.0001292834058403,0.0664993656384518,0.0007800417952239,-0.0029362074491967,0.9681673391345562,0.0298776160418467,left,0.0018544793128967,-0.4865859083462385,1.2488576130613684,-8.57800369257927,-0.2412910739773348,0.0038952692411839,-0.001910001039505,4.585694343839585,-0.0020954012870788
2025-04-30 01:05:42.946345200,9.70834521484375,0.1445726731638222,2.15498876059e-05,0.0664993656384518,0.0023570372723042,-0.0029362074491967,0.9681673391345562,0.0298776160418467,left,-0.000241994857788,-0.4865859083462385,1.2488576130613684,-8.57800369257927,-0.2412910739773348,0.0013061161153018,-0.0017067790031433,4.585694343839585,-0.0002630352973937
2025-04-30 01:05:42.986345200,9.74834521484375,0.1445726731638222,-0.0060008107684552,0.0664993656384518,-0.0017640995793044,-0.0029362074491967,0.9681673391345562,0.0298776160418467,left,0.0009596347808837,-0.4865859083462385,1.2488576130613684,-8.57800369257927,-0.2412910739773348,-0.0084150042384862,-0.0006969571113586,4.585694343839585,-0.0014476776123046
2025-04-30 01:05:43.026345200,9.78834521484375,0.1445726731638222,-0.0081317042931914,0.0664993656384518,-0.0023222542367875,-0.0029362074491967,0.9681673391345562,0.0298776160418467,left,-0.0016552209854125,-0.4865859083462385,1.2488576130613684,-8.57800369257927,-0.2412910739773348,-0.0024626869708299,-0.0006603598594665,4.585694343839585,-0.001989871263504
2025-04-30 01:05:43.066345200,9.82834521484375,0.1441447149262193,-0.0193578340113163,0.0664067769899468,0.0056045674718916,-0.0033173898645278,0.9682125194617026,0.028963020331542,left,0.0016281008720397,-0.4863151179009445,1.2453648025095465,-8.579766026076674,-0.2411303324890616,0.0153866857290267,-0.0008895844221115,4.583346903930604,-0.0043769180774688
2025-04-30 01:05:43.106345200,9.86834521484375,0.1438049488317844,-0.0177844632416963,0.0663957995641008,0.0108091095462441,-0.0038189403800057,0.9683115073527324,0.0277856208230312,left,-0.0026055574417114,-0.4855628117994199,1.2429434205815195,-8.58359873610735,-0.2407278362102166,0.017032865434885,-0.0017738565802574,4.576823347380757,0.0036205947399139
2025-04-30 01:05:43.146345200,9.90834521484375,0.1442451360027618,0.0021608956158161,0.0666570981181352,0.018131922930479,-0.0040000255424758,0.968376139102842,0.0274704034689454,left,0.0003701448440551,-0.4848935038447073,1.2471617689289152,-8.586080031529068,-0.2403925826619253,0.016109125688672,-0.0031475946307182,4.5710172914505005,0.0002651810646057
2025-04-30 01:05:43.186345200,9.94834521484375,0.1448087205076874,0.004343538545072,0.0669352215623093,0.0141103956848382,-0.004033396021405,0.9684245143594824,0.0274986248690168,left,-0.0005233883857727,-0.4843301789185645,1.2523719047926365,-8.587922444525361,-0.2401197623400669,0.0090881679207086,-0.0005726218223571,4.5661292271479965,-0.0005448162555694
2025-04-30 01:05:43.226345200,9.98834521484375,0.1448087205076874,-0.0044772140681743,0.0669352215623093,0.0096185449510812,-0.004033396021405,0.9684245143594824,0.0274986248690168,left,0.0004744529724121,-0.4843301789185645,1.2523719047926365,-8.587922444525361,-0.2401197623400669,0.0012186579406261,-0.0002387166023254,4.5661292271479965,-0.0018948018550872
2025-04-30 01:05:43.266345200,10.02834521484375,0.1455980123934799,-0.0099055124446749,0.0673549287936568,0.0098879374563694,-0.0042547110953331,0.9684273066866614,0.027218098421578,left,-0.0009503364562988,-0.48407891708833,1.259316317103058,-8.588066236910224,-0.2399871152365404,0.0045626694336533,0.0005442947149276,4.563948375977575,-0.0017158985137939
2025-04-30 01:05:43.306345200,10.06834521484375,0.1456898325505385,-0.0102198747918009,0.0674650928793881,0.0044711409136652,-0.0045050720914889,0.9684544612920256,0.0267037471604669,left,0.0024664998054504,-0.483815976657622,1.260279024655372,-8.589137665534018,-0.2398422979424298,0.0066897924989461,-0.0024562776088714,4.56166581799835,-0.0012671947479248
2025-04-30 01:05:43.346345200,10.10834521484375,0.1456898325505385,-0.0086102671921253,0.0674650928793881,-0.0094951521605253,-0.0045050720914889,0.9684544612920256,0.0267037471604669,left,0.0004252195358276,-0.483815976657622,1.260279024655372,-8.589137665534018,-0.2398422979424298,0.0058735338971018,-0.003237172961235,4.56166581799835,-0.0001430213451385
2025-04-30 01:05:43.386345200,10.14834521484375,0.1450148978321395,0.0004716338589787,0.0672179513165298,-0.0073048546910285,-0.0046918859197198,0.9685418685446068,0.0261086892600744,left,-0.001031756401062,-0.4832605744058574,1.2548475011259317,-8.59249223665893,-0.2395549876817127,0.010972143150866,-0.0036873221397399,4.55684380466938,0.0004253685474395
2025-04-30 01:05:43.426345500,10.188345458984376,0.1450148978321395,0.0045711528509855,0.0672179513165298,0.0046647815033793,-0.0046918859197198,0.9685418685446068,0.0261086892600744,left,-0.0027149319648742,-0.4832605744058574,1.2548475011259317,-8.59249223665893,-0.2395549876817127,0.0099421329796314,-0.0009737312793731,4.55684380466938,-0.0027297735214233
2025-04-30 01:05:43.466345200,10.22834521484375,0.1452171127496548,-0.006381775252521,0.0673390772236601,0.0097168050706386,-0.0047386103758511,0.9686217634458864,0.0260066002627057,left,-0.0015833973884582,-0.4825279236999775,1.257067807523906,-8.595539349269867,-0.2391964455848101,0.0040506394580006,-0.000714361667633,4.550480407117307,-0.0026949048042297
2025-04-30 01:05:43.506345200,10.26834521484375,0.1454490726002938,-0.0170093216001987,0.0675251321102058,0.0161471590399742,-0.0050328261703394,0.9686518113268996,0.025431248453822,left,-0.0008299946784973,-0.4821970758081047,1.2592797844849526,-8.596736450099945,-0.2390163135015449,0.0082398299127817,-0.000577375292778,4.547606020724773,-0.0021118521690368
2025-04-30 01:05:43.546345200,10.30834521484375,0.1454490726002938,-0.0082161203026771,0.0675251321102058,0.0051295338198542,-0.0050328261703394,0.9686518113268996,0.025431248453822,left,0.0025489926338195,-0.4821970758081047,1.2592797844849526,-8.596736450099945,-0.2390163135015449,0.004848463460803,-0.0023352652788162,4.547606020724773,-0.0039117038249969
2025-04-30 01:05:43.586345200,10.34834521484375,0.1461652059688632,0.0145528260618448,0.0679036227656343,0.0216661095619201,-0.0052272233916955,0.9686508261600738,0.0251912446939791,left,-0.0062269568443298,-0.4819962402992074,1.265568801626563,-8.596735865578054,-0.2389091104741542,-0.0106402691453695,0.0002937018871307,4.545860930623114,0.0058286190032958
2025-04-30 01:05:43.626345200,10.38834521484375,0.1472717313806259,0.0089157186448574,0.0683377750986079,0.0091401813551783,-0.0050035586871715,0.9685467600140274,0.0259703361005888,left,0.0023744702339172,-0.482572559681835,1.2746959648035463,-8.59273715133071,-0.2392118002731348,-0.0184175986796617,-0.0015687644481658,4.550868237391114,-0.0021415054798126
2025-04-30 01:05:43.666345200,10.42834521484375,0.1472717313806259,0.0037674880586564,0.0683377750986079,0.00600559823215,-0.0050035586871715,0.9685467600140274,0.0259703361005888,left,0.0007407069206237,-0.482572559681835,1.2746959648035463,-8.59273715133071,-0.2392118002731348,-0.0019720140844583,8.02874565124e-05,4.550868237391114,-0.0024713575839996
2025-04-30 01:05:43.706345200,10.46834521484375,0.1472717313806259,0.0065603386610746,0.0683377750986079,-0.000301971565932,-0.0050035586871715,0.9685467600140274,0.0259703361005888,left,0.0024568438529968,-0.482572559681835,1.2746959648035463,-8.59273715133071,-0.2392118002731348,-4.54006949439e-05,0.0001464933156967,4.550868237391114,0.0023452639579772
2025-04-30 01:05:43.746345200,10.50834521484375,0.1472717313806259,0.0067660538479685,0.0683377750986079,-0.0052069090306758,-0.0050035586871715,0.9685467600140274,0.0259703361005888,left,0.0005240440368652,-0.482572559681835,1.2746959648035463,-8.59273715133071,-0.2392118002731348,-0.0026906058192253,-0.0003099143505096,4.550868237391114,0.0009779930114746
2025-04-30 01:05:43.786345200,10.54834521484375,0.1476675526902896,0.0011520804837346,0.0684022367161837,-0.0052346484735608,-0.0045773062702411,0.9684861855741568,0.0269804903255711,left,0.0006554722785949,-0.4829891831830416,1.2778178962163629,-8.590355809152125,-0.239447041056046,-0.0019094384042546,4.13060188293e-05,4.554486720149219,0.0007384121417999
2025-04-30 01:05:43.826345200,10.58834521484375,0.1476675526902896,-0.009547715075314,0.0684022367161837,-0.011001830920577,-0.0045773062702411,0.9684861855741568,0.0269804903255711,left,0.0042744278907775,-0.4829891831830416,1.2778178962163629,-8.590355809152125,-0.239447041056046,0.008314486593008,-0.0005278140306472,4.554486720149219,-0.0013527870178222
2025-04-30 01:05:43.866345200,10.62834521484375,0.1465163465363692,-0.0093583548441529,0.0679329189727463,-0.015179768204689,-0.0047169140186017,0.9686194262648342,0.0263458955080262,left,-0.0006890892982482,-0.4821838786498907,1.268462769502401,-8.595446994811295,-0.239038306509559,0.0448565520346164,0.0018594861030578,4.547491454434395,-0.0002825856208801
2025-04-30 01:05:43.906345200,10.66834521484375,0.145632508267408,0.0060498360544443,0.0675817219684833,-0.0199249666184186,-0.0047249602757739,0.9688886391626133,0.0259566852376447,left,0.0007976293563842,-0.4801544072226529,1.2622021016724407,-8.60567846596837,-0.2380446358386601,0.052388772368431,-0.0039145871996879,4.5298488302379845,0.0031638145446777
2025-04-30 01:05:43.946345200,10.70834521484375,0.1449136941073209,0.0221564061939716,0.0672183980060025,-0.0154520077630877,-0.0043875200577957,0.9691435863034902,0.0263287830034209,left,-0.0022336244583129,-0.4782038077671792,1.2572893413200974,-8.615310217666625,-0.2371141802118969,0.0377513766288757,-0.0018204897642135,4.512874606822431,-0.0014571249485015
2025-04-30 01:05:43.986345200,10.74834521484375,0.1449105483040355,0.0180599465966224,0.0671263884884284,-0.0088819786906242,-0.0038964439056249,0.9692895653610596,0.0272484960497327,left,-0.001527190208435,-0.4769792162161544,1.2580594489097594,-8.620776666378974,-0.236551883365702,0.0142814945429563,-0.0023074448108673,4.5022091281622645,-0.0067748129367828
2025-04-30 01:05:44.026345200,10.78834521484375,0.1449105483040355,-0.0026001501828432,0.0671263884884284,0.001851262524724,-0.0038964439056249,0.9692895653610596,0.0272484960497327,left,-0.0046500563621521,-0.4769792162161544,1.2580594489097594,-8.620776666378974,-0.236551883365702,0.0029988307505846,-0.0007691085338592,4.5022091281622645,-0.00973641872406
2025-04-30 01:05:44.066345200,10.82834521484375,0.1449105483040355,-0.0177916046231985,0.0671263884884284,0.0061852522194385,-0.0038964439056249,0.9692895653610596,0.0272484960497327,left,-0.000963270664215,-0.4769792162161544,1.2580594489097594,-8.620776666378974,-0.236551883365702,-0.0133495330810546,-0.0010232478380203,4.5022091281622645,-0.0014632642269134
2025-04-30 01:05:44.106345200,10.86834521484375,0.1446688096221974,-0.0083726746961474,0.0671265370183605,0.0012410064227879,-0.0044159472543699,0.9692142923875868,0.0261697965312905,left,-0.0005514621734619,-0.477669565017623,1.2555270078226923,-8.618002525490521,-0.2368506059927236,-0.0134608978405594,-0.0010004639625549,4.508222397102415,0.0047680139541625
2025-04-30 01:05:44.146345200,10.90834521484375,0.1446688096221974,-0.0028469613753259,0.0671265370183605,-0.0071364096365869,-0.0044159472543699,0.9692142923875868,0.0261697965312905,left,0.003003180027008,-0.477669565017623,1.2555270078226923,-8.618002525490521,-0.2368506059927236,0.0089201861992478,-0.0012644380331039,4.508222397102415,0.0048165917396545
2025-04-30 01:05:44.186345200,10.94834521484375,0.1438764588066509,0.0018707038834691,0.0668023163948096,-0.0213878247886896,-0.0044854471644702,0.969338553369396,0.0257696232130964,left,0.0030837059020996,-0.4768298279627208,1.249240474899113,-8.622738321840762,-0.2364321810987497,0.0404518544673919,-0.0012605786323547,4.500907690174877,0.0041962265968322
2025-04-30 01:05:44.226345200,10.98834521484375,0.1427748502031603,0.0023641823790967,0.0663366635257571,-0.0257909428328275,-0.0044098884281787,0.9696494311527908,0.0254816586962851,left,0.0013040304183959,-0.4744814369048832,1.2412414389692246,-8.634547417578101,-0.2352871780733979,0.0729036331176757,-0.0026381686329841,4.480434226466715,0.0015810132026672
2025-04-30 01:05:44.266345200,11.02834521484375,0.1419823413022984,0.0070060729049146,0.0660227971952553,-0.0083767138421535,-0.0043126335596255,0.9700337702252536,0.0252614895899199,left,-0.0059289336204528,-0.4714004358443686,1.2363456297516822,-8.649152866035699,-0.2337882322836394,0.0774620398879051,-0.0037148147821426,4.453536574929952,0.0001951158046722
2025-04-30 01:05:44.306345200,11.06834521484375,0.141994406851717,0.0047515160404145,0.0660828937800049,0.0019770469516515,-0.0042633917761714,0.970367073602151,0.0251519534097131,left,0.0034731030464172,-0.4685138386286603,1.238264176724106,-8.661828223213552,-0.2323848928486891,0.0676754862070083,-0.0059961825609207,4.428297504255175,-0.0058823227882385
2025-04-30 01:05:44.346345200,11.10834521484375,0.1422583000304042,0.0068428358063101,0.0662880408093178,0.0239361580461263,-0.0043739823759126,0.9706491847648168,0.0247990902502283,left,-0.0081284642219543,-0.4659783052942796,1.242137803287059,-8.672588102158903,-0.2311427952992457,0.0518064089119434,-0.0026525557041168,4.406097655145824,-9.8645687103e-06
2025-04-30 01:05:44.386345200,11.14834521484375,0.143836534413933,0.0115302298218011,0.0670444997409213,0.0374275259673595,-0.0043720850807468,0.9707681907463408,0.0250667986992142,left,-0.0009546875953674,-0.4644843229989567,1.2567657558374106,-8.677121653935313,-0.2304234802752713,0.0208133868873119,-0.0039886832237243,4.393003780294954,-1.89840793609e-05
2025-04-30 01:05:44.426345500,11.188345458984376,0.1452069787904058,0.0106162661686539,0.0676805235255011,0.0273547023534774,-0.004326872158796,0.9708166675799432,0.0254231064813589,left,0.0028145313262939,-0.4636636875168274,1.2691773475125432,-8.67895529910326,-0.2300343110463857,0.0210944041609764,-0.001301035284996,4.385807439050078,-0.0051212310791015
2025-04-30 01:05:44.466345200,11.22834521484375,0.1463445255661749,0.0034959493204951,0.0682251778865596,0.0225031785666942,-0.0043144640510301,0.9709072651756016,0.0256319657223384,left,0.0032917261123657,-0.4625333907466549,1.2797712222412228,-8.6824045627743,-0.2294905171833049,0.0264023598283529,-0.001202568411827,4.375890440669656,-0.0024392008781433
2025-04-30 01:05:44.506345200,11.26834521484375,0.1468497754552368,0.0008406951092183,0.0684800273559921,0.0050358306616544,-0.0043301304983832,0.9709852247950632,0.0256550812533557,left,0.0028340816497802,-0.4616970231233667,1.2846930426828562,-8.685374518495797,-0.2290843477909171,0.0137310232967138,-0.0012751817703247,4.368548845735192,-0.0024755299091339
2025-04-30 01:05:44.546345200,11.30834521484375,0.1468497754552368,0.0016662428388372,0.0684800273559921,-0.0019577024504542,-0.0043301304983832,0.9709852247950632,0.0256550812533557,left,-0.0007519721984863,-0.4616970231233667,1.2846930426828562,-8.685374518495797,-0.2290843477909171,0.0115142930299043,-0.0004295110702514,4.368548845735192,-0.0020123422145843
2025-04-30 01:05:44.586345200,11.34834521484375,0.1466290962979864,0.0015136033762246,0.0684014906822134,-0.0035126574803143,-0.0043475591409205,0.9710826190904835,0.0255064012002033,left,-0.0019354820251464,-0.4609025543865723,1.2832828836239871,-8.689088570582866,-0.2286941885082824,0.0175447314977645,-0.0004917234182357,4.361571992459893,-0.0026499927043914
2025-04-30 01:05:44.626345200,11.38834521484375,0.1464086222767295,0.001360963913612,0.0683229404627546,-0.0050676125101745,-0.004365017498971,0.9711798834607022,0.0253579095012685,left,-0.0031195878982543,-0.4601080954005824,1.2818722861737013,-8.692796777451038,-0.2283039987832769,0.0235751681029796,-0.0005538612604141,4.35459250883609,-0.0032874047756195
2025-04-30 01:05:44.666345500,11.428345458984374,0.1464287754805929,0.0057909935712814,0.0683354967538237,-0.002101240446791,-0.0042846942170017,0.9712875424252402,0.0254551264432106,left,-0.0011212825775146,-0.4591523506763441,1.2826540842011571,-8.696884339025615,-0.2278433504623641,0.0184284895658493,-0.0030378401279449,4.34619263702035,0.0003202855587005
2025-04-30 01:05:44.706345200,11.46834521484375,0.1464287754805929,0.0086917644366621,0.0683354967538237,-0.0041410294361412,-0.0042846942170017,0.9712875424252402,0.0254551264432106,left,-0.000997245311737,-0.4591523506763441,1.2826540842011571,-8.696884339025615,-0.2278433504623641,0.0078488625586032,-0.0006146878004074,4.34619263702035,-0.000965267419815
2025-04-30 01:05:44.746345200,11.50834521484375,0.1466623781414426,0.0085973748937249,0.0683766893162969,-0.0013109985738992,-0.0039024140116899,0.971395293817578,0.0262197267300091,left,0.0005853772163391,-0.4581411990781491,1.2853272489331662,-8.700927476936577,-0.2273781293132673,0.0169034898281097,3.07708978652e-05,4.337301474556327,-0.0043128430843353
2025-04-30 01:05:44.786345200,11.54834521484375,0.1466326160722617,0.0009728465229272,0.0683458622643421,-0.0042484924197196,-0.0037396562280091,0.9714974156591274,0.0264795148290876,left,-0.0007230639457702,-0.4572480000150577,1.2856338306643067,-8.704794673758744,-0.2269534150742,0.0188556145876646,0.0005854070186614,4.32944374679327,-0.0045486092567443
2025-04-30 01:05:44.826345200,11.58834521484375,0.1466326160722617,-0.0056590968742966,0.0683458622643421,-0.0056888284161686,-0.0037396562280091,0.9714974156591274,0.0264795148290876,left,-0.0010404586791992,-0.4572480000150577,1.2856338306643067,-8.704794673758744,-0.2269534150742,0.0148599185049533,-0.0005492269992828,4.32944374679327,-0.0031534433364868
2025-04-30 01:05:44.866345200,11.62834521484375,0.1457333862078158,-0.004532930906862,0.0679907288889599,-0.02205091714859,-0.0039046223115747,0.971620569075887,0.0258664992028828,left,0.0023679137229919,-0.4564142785802342,1.278329499000311,-8.709515272539853,-0.2265294308229757,0.0032885391265153,-0.0014282763004302,4.322106243512034,-0.0007925331592559
2025-04-30 01:05:44.906345200,11.66834521484375,0.144673950415656,0.0015983236953616,0.0674927591317259,-0.0250762570649385,-0.0038402577913428,0.9716745916946586,0.0257396529945425,left,0.0016936063766479,-0.456250779982719,1.2692033587366345,-8.711564021763206,-0.2264477847012467,0.0033251892309635,-8.34017992019e-05,4.320666858358681,-0.001391053199768
2025-04-30 01:05:44.946345200,11.70834521484375,0.1436405839775899,0.0007081400253809,0.0669828915240225,-0.0258097369223833,-0.0036657879523644,0.9717368192486427,0.0258396691423105,left,-0.0004811882972717,-0.4560069238854947,1.2603512131087482,-8.713913215237856,-0.2263346785294319,0.0036642046179622,0.0012501925230026,4.318519909457862,-0.0018640458583831
2025-04-30 01:05:44.986345200,11.74834521484375,0.1423308122573137,-0.0003247408312745,0.0663551210534705,-0.0276487730443477,-0.0035304879345883,0.9718081968413652,0.0257947064065023,left,-0.0004333853721618,-0.4557596917813776,1.2490883530773222,-8.716613121846319,-0.2262154496985997,0.005115813575685,0.0010695159435272,4.3163431499406695,-0.0027706921100616
2025-04-30 01:05:45.026345200,11.78834521484375,0.1410211136950973,-0.0013576219789683,0.0657272943612674,-0.0294878091663122,-0.0033952228806411,0.9718790628890144,0.0257500099168537,left,-0.0003870129585266,-0.4555122682030481,1.237821255262196,-8.719298415407538,-0.2260960781237274,0.0065674223005771,0.0008892565965652,4.314164052335918,-0.0036771297454833
2025-04-30 01:05:45.066345200,11.82834521484375,0.139453826356546,-0.0008595763938501,0.0649708003854211,-0.0457649156451225,-0.0032120663995162,0.971963011214806,0.0257410511559695,left,-0.0006237030029296,-0.4552203209030341,1.2243291018087417,-8.722474707356096,-0.2259565552913287,0.0063759535551071,-0.0009336248040199,4.311593032804131,-0.0044193267822265
2025-04-30 01:05:45.106345200,11.86834521484375,0.1381419436841404,0.020499212667346,0.0642829430291159,-0.0278698243200778,-0.0028387726742425,0.9720164066337852,0.0261975769696134,left,-0.0057320594787597,-0.4551290362219872,1.2129394005272536,-8.724463250824808,-0.2259289277601984,-0.0131204817444086,0.0009039267897605,4.310788730683923,0.0044208168983459
2025-04-30 01:05:45.146345200,11.90834521484375,0.1373413453250757,0.0220676641911268,0.0637480777742787,-0.0380675792694091,-0.0021727763446752,0.9719838803620512,0.0274200467108554,left,0.0019741058349609,-0.4556606541369087,1.2056402564950286,-8.723160351532696,-0.2262273305024553,-0.0198095459491014,-0.0020148307085037,4.315471043281257,-0.0040341615676879
2025-04-30 01:05:45.186345200,11.94834521484375,0.1361228056824689,0.0191097948700189,0.0630345415574449,-0.0382734313607215,-0.0015573388506702,0.9719731169553492,0.0284347648451921,left,-0.0017142295837402,-0.4561087565072641,1.194747325754538,-8.72270617802441,-0.2264783131737263,-0.0134806670248508,-0.0007920563220977,4.319416566036641,-0.0030319392681121
2025-04-30 01:05:45.226345200,11.98834521484375,0.1349025383808094,0.0146231884136796,0.0623312471778271,-0.0412321835756301,-0.0010026233935341,0.9719470924075126,0.0293328539463941,left,0.0004489421844482,-0.4566873544712691,1.183766132208705,-8.721679757586122,-0.2267882614952935,-0.0238637588918209,-0.0024518817663192,4.324509797522426,-0.0021784007549285
2025-04-30 01:05:45.266345200,12.02834521484375,0.1334833714480256,0.0110350809991359,0.0615457147600674,-0.0389772914350032,-0.0005215400238302,0.9718870206868108,0.0300567349151156,left,-0.0015022754669189,-0.4576132659050946,1.170853970600292,-8.719378494906424,-0.2272609876277276,-0.0279637575149536,-0.000802144408226,4.332657448142767,-0.0020913183689117
2025-04-30 01:05:45.306345200,12.06834521484375,0.1322984358093778,-0.0002142433077096,0.0609102733317305,-0.02406907081604,-0.0002169526979175,0.9718252055840676,0.0304671913789497,left,-0.0028760433197021,-0.4584839472677488,1.1600232183758168,-8.71701702647209,-0.2276966591425033,-0.0141239715740084,-0.000929869711399,4.340315853941441,-0.0064538419246673
2025-04-30 01:05:45.346345200,12.10834521484375,0.1309849400970607,-0.0245916154235601,0.0603529747238445,-0.0186960604041814,-0.000439653157811,0.971833537539462,0.0297203235209977,left,-0.0050115585327148,-0.4587615112481803,1.1484150520380585,-8.717338513511418,-0.2278090485554685,0.0030939253047108,-0.0016276761889457,4.3427565250918265,-0.0054822862148284
2025-04-30 01:05:45.386345200,12.14834521484375,0.1299647531027365,-0.0131288608536124,0.0599798012742457,-0.0071014827117323,-0.0008451883247945,0.971865256012082,0.0286458001254464,left,-0.0047294497489929,-0.4587492839823778,1.1395279812272638,-8.718558410695195,-0.2277711141643714,-0.0006166626699268,-0.0047963932156562,4.342648973064124,0.0031002163887023
2025-04-30 01:05:45.426345500,12.188345458984376,0.1295574074880776,0.0072523420676589,0.0597893664195104,-0.0134250922128558,-0.0008558983661417,0.971847361371431,0.0285464410113476,left,-2.16960906982e-05,-0.459015449365421,1.1358270808827131,-8.71787510460615,-0.2278975862102135,-0.015546141192317,-0.007110558450222,4.344989106449485,0.004967451095581
2025-04-30 01:05:45.466345200,12.22834521484375,0.1295507092143987,0.0244049541652202,0.0596774653003495,-0.0070006260648369,-0.0004466167188827,0.9717827658561728,0.0294264693226043,left,-0.0018364191055297,-0.4595913508647737,1.1354452419582757,-8.715400238925218,-0.2282035700287754,-0.0119305308908224,-0.0036170706152915,4.35005165053606,-0.0010327398777008
2025-04-30 01:05:45.506345200,12.26834521484375,0.1297150405162001,0.0137026263400912,0.0596446826604994,-0.0047428868710994,-2.08360493694e-05,0.97173662772769,0.030366339196451,left,-0.0021234154701232,-0.4599561720225915,1.1366720803394914,-8.713639074471592,-0.2284087767121899,-0.0067570013925433,-0.0024651661515235,4.353257753100991,-0.0036272406578063
2025-04-30 01:05:45.546345200,12.30834521484375,0.1297150405162001,0.0022340547293424,0.0596446826604994,0.0037693278864026,-2.08360493694e-05,0.97173662772769,0.030366339196451,left,-0.0025240778923034,-0.4599561720225915,1.1366720803394914,-8.713639074471592,-0.2284087767121899,-0.0126716047525405,-0.001433216035366,4.353257753100991,-0.0023871958255767
2025-04-30 01:05:45.586345200,12.34834521484375,0.1300961028747425,-0.0077294828370213,0.0597779657711206,0.0063390471041202,7.82638520898e-05,0.9716337068054328,0.0307153468489198,left,-0.0001717805862426,-0.4607633140696307,1.1395362375989555,-8.709718686157464,-0.2288111769065854,-0.01254019793123,-0.0019572153687477,4.360348880405724,-0.0028110444545745
2025-04-30 01:05:45.626345200,12.38834521484375,0.1301956291866363,-0.0090291518718004,0.059859864717793,0.0090811606496572,-0.0001159009137012,0.971583284661099,0.0303678906596213,left,-0.0001606941223144,-0.4611819998011027,1.1401659868698566,-8.707794440096617,-0.2290040709154448,-0.0055205882526934,-0.0014901906251907,4.364026399874687,-0.0014182031154632
2025-04-30 01:05:45.666345500,12.428345458984374,0.1303696714930852,-0.0080379899591207,0.059984775891372,0.0082811713218688,-0.0003330961235688,0.9715471808314804,0.0299804817399004,left,-0.0002766251564025,-0.4614533696008552,1.1415274844814092,-8.706421398177742,-0.2291242157288099,-0.0030060394201427,-0.0017510876059532,4.366409495618939,0.0001438558101654
2025-04-30 01:05:45.706345200,12.46834521484375,0.1303696714930852,-0.0073290327563881,0.059984775891372,0.009173103608191,-0.0003330961235688,0.9715471808314804,0.0299804817399004,left,0.0010765790939331,-0.4614533696008552,1.1415274844814092,-8.706421398177742,-0.2291242157288099,0.0010556064080446,-0.0007615089416503,4.366409495618939,-0.0007716715335845
2025-04-30 01:05:45.746345200,12.50834521484375,0.1306524094510898,0.0013489611446857,0.0601814088350639,0.0023723067715764,-0.0006164504901944,0.9715391149384848,0.0294635314960405,left,-0.0009200572967529,-0.461448754153662,1.1439916826378551,-8.706118031316995,-0.2291063714406385,0.0062108729034662,-0.0017247200012207,4.366368871347606,-0.0030142962932586
2025-04-30 01:05:45.786345200,12.54834521484375,0.1313772287882028,0.0170037411153316,0.0605051508738206,0.0237794108688831,-0.0005730048479438,0.9715247485963808,0.0297193800111117,left,-0.0059146285057067,-0.4613835135028006,1.1503390789031982,-8.70556916526258,-0.2290821945454871,-0.0080255875363945,-0.0017342567443847,4.365796039895713,0.0019799768924713
2025-04-30 01:05:45.826345200,12.58834521484375,0.1325337859552713,0.0027492577210068,0.060996479693717,0.018241599202156,-0.0004653601763037,0.9714210491795574,0.0302559424770379,left,0.0017362833023071,-0.461987659529319,1.1600579974282532,-8.701616628244519,-0.2293915217386344,-0.0197943206876516,-0.0025601163506507,4.371100283783674,-0.0043932199478149
2025-04-30 01:05:45.866345200,12.62834521484375,0.1332718773263424,-0.0042767776176333,0.0613499661664714,0.0198082346469163,-0.0006064962780009,0.971307775028414,0.0301956545628299,left,-0.00087171792984,-0.4627845931830138,1.1660170519631354,-8.697302856698633,-0.2297763482719192,-0.017779778689146,-0.0021753758192062,4.378094964976609,-0.0016223490238189
2025-04-30 01:05:45.906345200,12.66834521484375,0.1341729842333964,-0.0010536210611462,0.0617890526450639,0.0209862776100635,-0.0007795146915764,0.9712062225366704,0.0300983473204881,left,0.0007166862487792,-0.46343208260129,1.1734743091665207,-8.693437413442135,-0.230087323949852,-0.0130904614925384,-0.0010394677519798,4.383775640961527,0.0009002685546875
2025-04-30 01:05:45.946345200,12.70834521484375,0.1349985316231136,9.15639102458e-05,0.0621773641140288,0.0174235142767429,-0.0008655321961406,0.9711292610355476,0.0301487846879581,left,-0.001389741897583,-0.4638817054280346,1.180385330663994,-8.690511296862363,-0.2303067935343421,-0.003792998380959,-0.0005076676607131,4.387719410151243,-0.0013608634471893
2025-04-30 01:05:45.986345200,12.74834521484375,0.1355252970048907,-0.0051526874303817,0.0624551279457929,0.0128792654722929,-0.0010126838000811,0.9711201226044824,0.0299661068391847,left,-0.0002152323722839,-0.4638181144423828,1.1850007885701954,-8.690165259903669,-0.2302699679981837,0.0028820065781474,0.0002418383955955,4.387161776268482,-0.0015545487403869
2025-04-30 01:05:46.026345200,12.78834521484375,0.1355252970048907,-0.0077712098136544,0.0624551279457929,0.0063215768896043,-0.0010126838000811,0.9711201226044824,0.0299661068391847,left,-0.0019441843032836,-0.4638181144423828,1.1850007885701954,-8.690165259903669,-0.2302699679981837,0.0076318690553307,-0.0014924630522727,4.387161776268482,-0.0017067492008209
2025-04-30 01:05:46.066345200,12.82834521484375,0.1358423112896061,0.0007675802335143,0.0626904147159262,0.0155218858271837,-0.0013506890716079,0.9711584903382772,0.0293146739232881,left,-0.0023753643035888,-0.4633916298602927,1.188008884344995,-8.691642346718908,-0.2300424081527663,0.0029035629704594,-0.0023684948682785,4.383420836174488,-0.0002923309803009
2025-04-30 01:05:46.106345200,12.86834521484375,0.1358423112896061,-0.0004348903894424,0.0626904147159262,0.0040825325995683,-0.0013506890716079,0.9711584903382772,0.0293146739232881,left,0.0008137822151184,-0.4633916298602927,1.188008884344995,-8.691642346718908,-0.2300424081527663,-0.010137902572751,-0.0022587850689888,4.383420836174488,-0.0009784400463104
2025-04-30 01:05:46.146345200,12.90834521484375,0.1358423112896061,0.002524634823203,0.0626904147159262,0.0090059582144021,-0.0013506890716079,0.9711584903382772,0.0293146739232881,left,-0.0016608834266662,-0.4633916298602927,1.188008884344995,-8.691642346718908,-0.2300424081527663,-0.0034017162397503,-0.0006320551037788,4.383420836174488,-0.0030661225318908
2025-04-30 01:05:46.186345200,12.94834521484375,0.136985896592375,-0.0057771755382418,0.063238058689777,0.0122498860582709,-0.0014716056778841,0.971097276478494,0.0293524463264529,left,-0.0015563368797302,-0.4636122775865582,1.1978156272839755,-8.689319456729292,-0.2301498941958371,0.0020322939381003,-0.0013470351696014,4.3853564804121845,-0.0025503933429718
2025-04-30 01:05:46.226345200,12.98834521484375,0.1374061602588699,-0.0126291904598474,0.0634956867270242,0.0102700162678956,-0.0017600577096218,0.9710671611695548,0.0288683336157307,left,0.0004082918167114,-0.4637558252367231,1.2013810646805911,-8.688191329482198,-0.230203888133083,-0.0014591270592063,-0.0021974444389343,4.38661554056257,-0.0011042058467864
2025-04-30 01:05:46.266345200,13.02834521484375,0.1376444671103353,-0.0066675078123807,0.0636612333215467,0.0062644109129905,-0.0020147308106186,0.971039355558296,0.0284128785975407,left,-1.60932540893e-05,-0.4639299333413979,1.203346738730371,-8.687148542430997,-0.2302736615072227,-0.001654521911405,-0.0012319386005401,4.388142603999376,-4.3511390686e-05
2025-04-30 01:05:46.306345200,13.06834521484375,0.1376444671103353,-0.0070839575491845,0.0636612333215467,0.0136567670851945,-0.0020147308106186,0.971039355558296,0.0284128785975407,left,-0.0018431544303894,-0.4639299333413979,1.203346738730371,-8.687148542430997,-0.2302736615072227,0.0092534879222512,0.0007234215736389,4.388142603999376,-0.003654271364212
2025-04-30 01:05:46.346345200,13.10834521484375,0.138457279010545,-0.0166187155991792,0.0641489468376191,0.022371582686901,-0.0024480741134054,0.9710744262157176,0.0276736454710735,left,-0.0035794973373413,-0.4633866248138102,1.2107361183293164,-8.688527429568767,-0.2299854955027567,0.0142974760383367,0.0019994676113128,4.383376997032761,-0.0064305365085601
2025-04-30 01:05:46.386345200,13.14834521484375,0.1389855011486592,-0.0238741487264633,0.0645516002966258,0.020887304097414,-0.0030512524228374,0.9711446487800396,0.0264997929266508,left,-0.001015305519104,-0.4626077095276386,1.215798077894002,-8.691265330100059,-0.2295689491792354,0.0167271587997674,-0.0005110502243041,4.376542767098546,-0.0023652613162994
2025-04-30 01:05:46.426345500,13.188345458984376,0.1389601813342775,-0.002171091735363,0.0646386738696492,0.002000369131565,-0.003436640326237,0.9711825603172604,0.0256756624332343,left,-0.0018552541732788,-0.4622707628975339,1.2157822958029807,-8.692756445440649,-0.2293788119053038,0.0009103007614612,-0.0027388781309127,4.373585378597676,0.0024555325508117
2025-04-30 01:05:46.466345200,13.22834521484375,0.1394914984646656,0.0361201800405979,0.0648009174980572,0.0042914887890219,-0.0030831438051979,0.9711773729385296,0.0265223126542966,left,-0.0011668801307678,-0.4621772081227279,1.2204575941376388,-8.69251386885643,-0.2293599384161725,-0.0047466913238167,-0.0047917440533638,4.372764125342667,0.001989334821701
2025-04-30 01:05:46.506345200,13.26834521484375,0.1399797983070196,0.0304480399936437,0.064837061913956,-0.0161212906241416,-0.00231998435956,0.9711271907414356,0.0282328850035419,left,0.0038097500801086,-0.4624987525943227,1.2245057004846631,-8.690524156343937,-0.2295707990144105,-0.024574052542448,-0.006115585565567,4.375586489287018,-0.0027532577514648
2025-04-30 01:05:46.546345200,13.30834521484375,0.1397886185498122,0.0087352003902196,0.0645913636470995,-0.0133212879300117,-0.0017876747070458,0.9709788115253466,0.029384304123815,left,-0.0011771917343139,-0.4638649534836197,1.2220101573418825,-8.6848303286165,-0.2302712694389974,-0.043686281889677,-0.0025805458426475,4.387572695156932,-0.0025281310081481
2025-04-30 01:05:46.586345200,13.34834521484375,0.139524703124753,-0.0135556813329458,0.06442045173625,-0.001708404161036,-0.001762434933316,0.9707744918762832,0.029510268871639,left,-0.0015939474105834,-0.4657269796112579,1.2185797445017843,-8.677047419655322,-0.2311790240648409,-0.0389627628028392,0.000119999051094,4.403895761187374,-0.0036139488220214
2025-04-30 01:05:46.626345200,13.38834521484375,0.1390528292992377,-0.0280790813267231,0.0642769313141668,0.0010381173342466,-0.002197884781157,0.970636079864676,0.0285979721059776,left,0.0016178488731384,-0.4670580210678403,1.2136716603245583,-8.671808349958061,-0.2317958382551187,-0.0208380799740552,0.0003688484430313,4.415554634799063,0.0011166930198669
2025-04-30 01:05:46.666345500,13.428345458984374,0.1386796440627029,-0.0092203598469495,0.0641869712212318,-0.0020651977974921,-0.0025705798331547,0.9706065831743916,0.0277665491692393,left,0.0013151168823242,-0.4674103626223654,1.2102202046964317,-8.670719385677575,-0.2319404912125549,0.0080911181867122,-0.0004140213131904,4.418639449071884,0.0015368163585662
2025-04-30 01:05:46.706345200,13.46834521484375,0.1383862377918512,0.0128588546067476,0.0640593198992255,-0.0090897418558597,-0.0025231231652137,0.9707051611521916,0.0277379176901223,left,0.000110924243927,-0.4666347543517746,1.20814851298891,-8.674466170990467,-0.2315636813242157,0.0244476329535245,-0.0014617592096328,4.411847889235616,0.0008508563041687
2025-04-30 01:05:46.746345200,13.50834521484375,0.1384517957492108,0.0296214520931243,0.0639969562286208,-0.0013510705903172,-0.0020362912324519,0.9708207469979704,0.0286826397996036,left,-0.0065227150917053,-0.4656176593847159,1.209335823077336,-8.678826704287529,-0.2311004176915466,0.0161200203001499,0.0007864385843276,4.402937729810178,0.0003792643547058
2025-04-30 01:05:46.786345200,13.54834521484375,0.1387052314538459,0.0170319899916648,0.0639982962289691,-0.0071233604103326,-0.0015165762819111,0.9708572520397584,0.0297858285840945,left,-0.0037294626235961,-0.4652364071320429,1.2117673610731958,-8.680181626027823,-0.230950521905921,0.0019192555919289,-0.001743771135807,4.39959660268873,-0.0067718625068664
2025-04-30 01:05:46.826345200,13.58834521484375,0.1387052314538459,0.0020948993042111,0.0639982962289691,0.0017445422708988,-0.0015165762819111,0.9708572520397584,0.0297858285840945,left,-0.002351701259613,-0.4652364071320429,1.2117673610731958,-8.680181626027823,-0.230950521905921,-0.0071092369034886,-0.0013059377670288,4.39959660268873,-0.0073405802249908
2025-04-30 01:05:46.866345200,13.62834521484375,0.1385828498823098,-0.0107057206332683,0.0638992564961799,-0.0090786004438996,-0.0014128751513802,0.9707727752512262,0.0300267468931573,left,0.0010406374931335,-0.4660097054907409,1.2102346716132015,-8.67695740328431,-0.2313334888231343,-0.0246399119496345,-0.0033158212900161,4.406372672694921,-0.0030914843082427
2025-04-30 01:05:46.906345200,13.66834521484375,0.1379403881909701,-0.0090762404724955,0.0635850197910346,-0.0184214860200881,-0.0014541522173318,0.970647654509764,0.0298806465387008,left,-0.0001815557479858,-0.4672772747012682,1.203890855544433,-8.672194134405254,-0.2319442011128854,-0.0322768166661262,-0.0035672858357429,4.417474496945738,7.84397125244e-05
2025-04-30 01:05:46.946345200,13.70834521484375,0.1371865963678077,-0.0004932908341288,0.0631880781946598,-0.0198995452374219,-0.0013574901786156,0.9705306072714528,0.0299881707140753,left,-5.1259994506e-06,-0.4685018371473314,1.1966128273654728,-8.667734232386946,-0.2325421297206308,-0.0276977270841598,-0.0038709864020347,4.428192582575977,0.0004611909389495
2025-04-30 01:05:46.986345200,13.74834521484375,0.1366234083230094,0.0021727189887315,0.0628773064525998,-0.0105435336008667,-0.0012110701592946,0.9704601496874484,0.0302100701542635,left,-0.0033427476882934,-0.4692671781906019,1.191269128249958,-8.665046600738167,-0.2329206952143516,-0.0141203878447413,-0.0029044523835182,4.434887988561392,-0.0003153085708618
2025-04-30 01:05:47.026345200,13.78834521484375,0.1364004178626271,-0.0016411563847213,0.062756084830779,-0.0024791965261101,-0.0011722788490935,0.970418737908652,0.0302667123510264,left,-0.0020118951797485,-0.4696875267817968,1.1890833086434751,-8.663464299982786,-0.2331264428049085,-0.0048176487907767,-0.0022543594241142,4.438564046725631,-0.002787560224533
2025-04-30 01:05:47.066345200,13.82834521484375,0.1364004178626271,-0.0028843898326158,0.062756084830779,0.0039558131247758,-0.0011722788490935,0.970418737908652,0.0302667123510264,left,0.0001775622367858,-0.4696875267817968,1.1890833086434751,-8.663464299982786,-0.2331264428049085,-0.002386387437582,-0.0027746632695198,4.438564046725631,9.59932804107e-05
2025-04-30 01:05:47.106345200,13.86834521484375,0.1364004178626271,0.0042009046301245,0.062756084830779,0.0060970275662839,-0.0011722788490935,0.970418737908652,0.0302667123510264,left,-0.0034382343292236,-0.4696875267817968,1.1890833086434751,-8.663464299982786,-0.2331264428049085,0.0001855490263551,-0.0009491220116615,4.438564046725631,-0.0002132952213287
2025-04-30 01:05:47.146345200,13.90834521484375,0.1373341089504926,0.0117184435948729,0.063181449842329,0.0182819031178951,-0.0011829997789573,0.9703695912107226,0.0304813709578058,left,-0.0004369020462036,-0.4698593982383759,1.1970672931347042,-8.661594414457678,-0.2332160043184762,-0.0053176200017333,-0.0004930943250656,4.440067144764959,-0.0005104839801788
