time,seconds_elapsed,roll,rotationRateZ,quaternionY,rotationRateY,quaternionZ,quaternionW,yaw,devicelocation,accelerationZ,pitch,gravityX,gravityZ,quaternionX,rotationRateX,accelerationX,gravityY,accelerationY
1746229660875538000,0.214537841796875,-0.9876896449472377,-0.11890916526317596,-0.43754557344472234,-0.1217256486415863,-3.338586962288967e-17,0.8659879400226446,0.2355533338700781,right,-0.3963487446308136,0.43271123237500814,-7.4316598207920785,-4.902054249411821,0.2421128893580551,-0.16644050180912018,0.5022181272506714,-4.112258793461322,0.07363727688789368
1746229660915538000,0.254537841796875,-0.592475889834074,-0.06593593955039978,-0.27898689573422203,-0.04953271895647049,-0.02510827489616656,0.9385154400683181,0.07125445462319233,right,-0.14004123210906982,0.40367485183779456,-5.036040110531449,-7.481332490977644,0.2018031309928345,-0.15836967527866364,0.2585716247558594,-3.8520568284407255,0.05862054228782654
1746229660955538000,0.294537841796875,-0.45368103549955835,-0.08000744134187698,-0.21940161705498198,-0.10630336403846741,-0.036393434508774726,0.9565715852342196,0.014099452576769604,right,-0.09000635147094727,0.3859935001920921,-3.9818025677725672,-8.166071827694774,0.188438677498142,-0.29064327478408813,0.1441251039505005,-3.6920047981724142,0.04429829120635986
1746229660995537700,0.33453759765625,-0.31733499469467985,-0.09407894313335419,-0.15889871589444654,-0.16307401657104492,-0.04752640415896503,0.9706269744284814,-0.039427411891586994,right,-0.05375182628631592,0.3612431044052806,-2.8625258588701485,-8.715670872560143,0.17428611504900138,-0.42291688919067383,0.023046493530273438,-3.4660365266650914,0.023254424333572388
1746229661035538000,0.374537841796875,-0.2889787357588698,-0.006176508963108063,-0.14632286394973945,-0.006337463855743408,-0.05040219594597312,0.9742405075445844,-0.05329733052083652,right,-0.006027400493621826,0.34091712733813984,-2.6337995208263396,-8.859034802877902,0.1640260223473642,-0.20888565480709076,0.005851924419403076,-3.278868818195164,0.03653272986412048
1746229661075538000,0.414537841796875,-0.2787813345914351,0.042800866067409515,-0.14179173987908938,-0.012598659843206406,-0.05130862963294721,0.9763155845352445,-0.05929043161329397,right,-0.004081130027770996,0.3230859430173244,-2.5590087759971616,-8.94022547787726,0.15514658867904813,-0.09863821417093277,-0.010801196098327637,-3.1135557986587283,0.02452412247657776
1746229661115538000,0.454537841796875,-0.27959292348044446,0.049523502588272095,-0.1418913246193251,-0.013816295191645622,-0.04925295848998853,0.976752952991528,-0.05562862596394111,right,-0.002457857131958008,0.3181109272700869,-2.5705066138282415,-8.95292363140881,0.15295356400076726,-0.07610693573951721,-0.00020006299018859863,-3.0672534816890953,0.02079424262046814
1746229661155538000,0.494537841796875,-0.2803839806291991,0.05624614283442497,-0.1419895872087076,-0.015033930540084839,-0.047196820877878756,0.9771811633018194,-0.05197697534491801,right,-0.0008522868156433105,0.3131330934945532,-2.5817811642974613,-8.965448181939125,0.1507591331285374,-0.05357566475868225,0.010378330945968628,-3.020849165649712,0.017053991556167603
1746229661195538000,0.534537841796875,-0.2803503743692254,0.038601815700531006,-0.14192916211424705,0.11047317087650299,-0.04660963158292075,0.9776179125249612,-0.05152272179414971,right,-0.002216041088104248,0.307721443303477,-2.585965464244783,-8.981112784060835,0.14814446664620118,-0.035224854946136475,-0.0031083226203918457,-2.9703154947206376,0.007966578006744385
1746229661235537700,0.57453759765625,-0.2768729273527469,0.1448754072189331,-0.13982078793815206,0.09604339301586151,-0.04343874237254738,0.9782651333528442,-0.04605694818780449,right,-0.0019454360008239746,0.30409870543729145,-2.557643040601909,-9.000342969709635,0.14683446650553025,-0.05133817717432976,0.002959132194519043,-2.9364380672991275,0.007613867521286011
1746229661275538000,0.614537841796875,-0.27504416356496975,0.13810114562511444,-0.13824139316744852,0.09668273478746414,-0.03846248879058085,0.978876442696363,-0.03668234937179355,right,-0.008795499801635742,0.3002500403175398,-2.544230016799271,-9.015815264129639,0.14563883732066257,-0.00396345928311348,0.007657855749130249,-2.9004055076703428,0.02909553050994873
1746229661315538000,0.654537841796875,-0.27172125178121703,-0.009736105799674988,-0.13625833679115995,0.06387411803007126,-0.03572008654925744,0.979294918161765,-0.031752311203109146,right,-0.014459848403930664,0.29893128436142336,-2.515281570212543,-9.02789616254568,0.14539273644607015,0.0419963076710701,0.01223096251487732,-2.888049007183313,0.036523133516311646
1746229661355538000,0.694537841796875,-0.271109877484794,-0.007997370325028896,-0.13599654598292993,-0.04092567414045334,-0.035881407827445595,0.9793717729492971,-0.032251718450023524,right,-0.014245390892028809,0.29834039897800696,-2.510218149343133,-9.031075377103686,0.14508016046279118,0.01846254989504814,0.00812181830406189,-2.8825109545394776,0.018947124481201172
1746229661395538000,0.734537841796875,-0.27295250723951986,0.04863376542925835,-0.13673309327787211,-0.03129534795880318,-0.0347544220205574,0.9794128437090256,-0.02990435289686096,right,-0.006314754486083984,0.2966586323280147,-2.5281580029204487,-9.031089990150928,0.14438358400137882,0.07718388736248016,0.006620585918426514,-2.8667428920432925,0.021710366010665894
1746229661435538000,0.774537841796875,-0.27203380458585136,-0.033589478582143784,-0.13611738258784395,0.044570792466402054,-0.03360769432618035,0.9794775919904993,-0.0276315193257255,right,0.0012980103492736816,0.2971540419934203,-2.5194784373804926,-9.03203983822167,0.14479707630328353,0.07118657976388931,0.008826494216918945,-2.8713886720225212,0.03079041838645935
1746229661475537700,0.81453759765625,-0.2694336933481397,-0.056371740996837616,-0.13495754926620132,0.06405987590551376,-0.03420674702923014,0.9796109667837848,-0.029209955464854952,right,0.008078992366790771,0.29737106316829215,-2.495819621634483,-9.037959291398524,0.14484053424446025,-0.00032824277877807617,0.007315009832382202,-2.873423684981465,0.019497722387313843
1746229661515538000,0.854537841796875,-0.265732122292934,-0.13587895035743713,-0.13342603390512467,0.07880841940641403,-0.03563447854656989,0.9799992244235999,-0.03303788021164341,right,0.0067629218101501465,0.29457940860197557,-2.464444824683666,-9.054840283572673,0.1432798416493622,-0.08644614368677139,0.007634326815605164,-2.847237104323506,0.009196370840072632
1746229661555538000,0.894537841796875,-0.2590684734112904,-0.2927623391151428,-0.13103369446082205,0.034930940717458725,-0.04089128378476418,0.9805746820811024,-0.04537879001383945,right,-0.004399299621582031,0.2895243167941962,-2.4077087919831275,-9.084858405217528,0.140111765733758,-0.2041051983833313,0.015122249722480774,-2.7997628209650514,0.0066252052783966064
1746229661595538000,0.934537841796875,-0.25605981209664036,-0.3335888683795929,-0.13035393045372082,-0.033623386174440384,-0.04614212036874051,0.980836242780672,-0.05706588700292275,right,-0.01044774055480957,0.2851273159523315,-2.3834596091285345,-9.103882254639267,0.13725533580973,-0.23037481307983398,0.013287261128425598,-2.758410819879174,-0.005911767482757568
1746229661635538000,0.974537841796875,-0.2550205426953202,-0.29414233565330505,-0.13076779561977425,-0.09708750247955322,-0.05269061174787726,0.9807842189516925,-0.07094711438407511,right,-0.012281358242034912,0.28203072522976497,-2.3761402260258793,-9.114576082611084,0.13485445703402177,-0.10318543016910553,0.007068529725074768,-2.729256621587276,-0.0055882930755615234
1746229661675538000,1.014537841796875,-0.25630113553367434,-0.159437358379364,-0.13228737118608183,-0.10986003279685974,-0.059216389143902856,0.980143563819065,-0.08374500296630305,right,-0.010531306266784668,0.28477027079306255,-2.3859059793673456,-9.104259271258115,0.13532192142963317,0.10769295692443848,0.0012408643960952759,-2.7550506957963106,0.008694827556610107
1746229661715537700,1.05453759765625,-0.2593974717195053,0.09999546408653259,-0.13403237403652277,-0.021268002688884735,-0.060848251116721576,0.9791625639354864,-0.08543537637205939,right,-0.001937568187713623,0.2945314383918451,-2.4070716631233693,-9.0704020098418,0.1399053826496956,0.31819605827331543,-0.0056639164686203,-2.8467870224684475,0.014799565076828003
1746229661755538000,1.094537841796875,-0.26112791483836206,0.12116550654172897,-0.13448709614604862,0.0491507351398468,-0.05817528527927815,0.9785031983480695,-0.0784994586977791,right,0.008214473724365234,0.30432763752921677,-2.4154478618025776,-9.038846595627069,0.14512171579865643,0.318031907081604,-0.0026396214962005615,-2.938580047763884,0.011828720569610596
1746229661795538000,1.134537841796875,-0.25980562896715975,0.1137731745839119,-0.13327372604173449,0.12288457900285721,-0.05438038879956882,0.9781611734872153,-0.06986640338254199,right,0.00691300630569458,0.3129037636998511,-2.3969313773810863,-9.017344373393058,0.14993834961861977,0.24708452820777893,-0.005292624235153198,-3.018709523272514,0.0020842552185058594
1746229661835538000,1.174537841796875,-0.25709182279239107,0.019324250519275665,-0.1316587978416841,0.09891742467880249,-0.052402835491350115,0.9780825762104244,-0.06566470796919706,right,0.01628434658050537,0.3175389342698974,-2.368868043065816,-9.010186318331955,0.15255914898563006,0.11963820457458496,-0.007567927241325378,-3.0619252724036574,-0.012013614177703857
1746229661875538000,1.214537841796875,-0.2530220384048467,0.035291023552417755,-0.12952950065096996,0.1626456379890442,-0.051268174345735995,0.9781837415425582,-0.0636521083205613,right,0.019678175449371338,0.32022394368656465,-2.3301124882139264,-9.011760435780882,0.15411094723644425,0.055909447371959686,-0.013162687420845032,-3.0869287807568906,-0.016165971755981445
1746229661915538000,1.254537841796875,-0.24767657058236112,0.06120966374874115,-0.12672259918567913,0.18647447228431702,-0.049637670843194474,0.9785916945697958,-0.061165962859617826,right,0.018529176712036133,0.3201897153654032,-2.2819332714565097,-9.024189709243178,0.15438829689720435,-0.05043959617614746,-0.005033031105995178,-3.0866102163270113,-0.01907438039779663
1746229661955538000,1.294537841796875,-0.24226356747161298,0.11070646345615387,-0.12390484238654997,0.18294265866279602,-0.04802837169002142,0.9793582726690436,-0.059288376308592385,right,0.006680011749267578,0.3154390490543921,-2.2365447083309293,-9.050542878639698,0.15230993614972893,-0.1641833633184433,-0.005099475383758545,-3.0423551872760055,-0.02257409691810608
1746229661995537700,1.33453759765625,-0.23702448556939118,0.05259254574775696,-0.12114141926513108,0.1909766048192978,-0.0462267073212068,0.980146698205125,-0.057026248091501974,right,-0.0019989013671875,0.3101974538802924,-2.1928120957188306,-9.077512718629837,0.15000139016276226,-0.09137241542339325,0.00913284718990326,-2.9934473639830945,-0.010625600814819336
1746229662035538000,1.374537841796875,-0.23194279650020688,0.14487674832344055,-0.11837557408542214,0.10426577180624008,-0.04406305401043773,0.9804983457884977,-0.05333912003429462,right,-0.0380551815032959,0.31065535653491505,-2.1463395367488265,-9.08720350703895,0.15056155451784228,0.07110659778118134,-0.009006276726722717,-2.997723141606152,0.021234124898910522
1746229662075538000,1.414537841796875,-0.23580762703812572,0.24074037373065948,-0.11968446075108403,-0.03625830262899399,-0.04061785130489,0.9803002279487261,-0.04552148247532431,right,-0.019271254539489746,0.3123585261711603,-2.18024794383049,-9.073862963950633,0.1517806636163147,0.1506153643131256,0.002349346876144409,-3.013621552483737,0.022609353065490723
1746229662115538000,1.454537841796875,-0.24404638955032212,0.2481565624475479,-0.12290635437508247,-0.13752034306526184,-0.03615996167349204,0.9797935475168007,-0.03482402511637002,right,0.004000186920166016,0.31505541300167356,-2.2529585213847456,-9.047672876161336,0.15359387692886717,0.16825275123119354,-0.002251923084259033,-3.0387782055720685,0.010350257158279419
1746229662155538000,1.494537841796875,-0.2570288162352914,-0.025716885924339294,-0.12881766104769296,-0.25141599774360657,-0.034045765501011814,0.9793388100613025,-0.028887957120208713,right,0.026695072650909424,0.3117637516575475,-2.372755990415066,-9.027287675258517,0.1521263357337991,-0.0720939189195633,0.027767255902290344,-3.0080706403583286,0.017940402030944824
1746229662195538000,1.534537841796875,-0.26040975492700824,-0.16655468940734863,-0.1309334351832122,-0.047228142619132996,-0.03697763353684925,0.9793275119742272,-0.034872507391265135,right,0.017641842365264893,0.30770500029246645,-2.406386895729601,-9.030937429937719,0.14968894928909968,-0.15663278102874756,0.01077239215373993,-2.97016176546365,-0.0034664571285247803
1746229662235537700,1.57453759765625,-0.2569470750873262,-0.12452571094036102,-0.12980546574359386,0.014648158103227615,-0.040127223743944014,0.9798218839554576,-0.0425179143796398,right,0.010803461074829102,0.30226814442390587,-2.3791698029801247,-9.054699998319148,0.14659236773317638,-0.23283988237380981,0.005320221185684204,-2.9193051461905237,-0.015575408935546875
1746229662275538000,1.614537841796875,-0.2528317008549698,0.02416326105594635,-0.12813153990824994,0.09876410663127899,-0.041656285771800944,0.9807496718584374,-0.047517703351778524,right,0.015544891357421875,0.2920474991942057,-2.349227523050457,-9.092828945705294,0.14134017465138143,-0.3222249150276184,-0.0035127252340316772,-2.823468106201291,-0.023674964904785156
1746229662315538000,1.654537841796875,-0.2487889172145216,0.052450843155384064,-0.12626094031406376,0.09672301262617111,-0.04169057221525303,0.9818734174996542,-0.04970829956264016,right,0.01205521821975708,0.2793962936172837,-2.321058244142681,-9.136143186774849,0.13507220814258275,-0.3124690055847168,0.0017607510089874268,-2.7044328537151214,-0.0208490788936615
1746229662355538000,1.694537841796875,-0.2458403526374378,0.0386328399181366,-0.12484593643339995,0.07940040528774261,-0.041516645255098766,0.9825363971836788,-0.05061540337795052,right,-0.020620346069335938,0.2722722904485315,-2.298740321611613,-9.161402131193876,0.1315749449238858,-0.10937483608722687,0.0032172948122024536,-2.6372113750964403,0.025217294692993164
1746229662395538000,1.734537841796875,-0.24490885572929938,0.26113802194595337,-0.12401404626096431,0.06983572244644165,-0.03867160201196923,0.9826956900575596,-0.04492731662372471,right,-0.017940402030944824,0.2724580069968285,-2.290086767295748,-9.163064511448145,0.1320388107352982,0.13944245874881744,-0.0005822926759719849,-2.6389652330264446,0.0367136150598526
1746229662435538000,1.774537841796875,-0.24173713231665267,0.03766702115535736,-0.1219255895236234,0.10549943894147873,-0.034851053422783516,0.982611773326023,-0.03684722956214577,right,-0.027629494667053223,0.27861914851431585,-2.257077354880422,-9.154321817544103,0.1356231664694167,0.21289971470832825,0.023377105593681335,-2.6971064563497897,0.041003406047821045
1746229662475537700,1.81453759765625,-0.24013333817198404,0.03088981658220291,-0.12086333416438051,0.03776940703392029,-0.03314550958338238,0.9823238957901108,-0.03283929499088105,right,-0.010931253433227539,0.2850276244197139,-2.238236022418737,-9.14095321740508,0.13904365395841276,0.20903190970420837,0.010711491107940674,-2.757472662246227,0.01808398962020874
1746229662515538000,1.854537841796875,-0.2393207479237576,0.011566398665308952,-0.12027395140910514,0.025520481169223785,-0.032079267463056484,0.9820520482178937,-0.0301869980615185,right,0.0007491111755371094,0.2900810633485468,-2.227475851212442,-9.129114895573258,0.14169987355321728,0.16249632835388184,0.0067266374826431274,-2.804995168660581,0.010123014450073242
1746229662555538000,1.894537841796875,-0.23796407105154713,0.02181808464229107,-0.11947615856293015,0.04810310900211334,-0.03131545055031703,0.9819036011273576,-0.028412655820593734,right,0.005766808986663818,0.29361106401119763,-2.212740785025805,-9.122449007943272,0.14356181879127983,0.0883098840713501,0.005006760358810425,-2.8381486657217145,-0.002558678388595581
1746229662595538000,1.934537841796875,-0.2365450138519026,0.027678996324539185,-0.11868540257524127,-0.02038876712322235,-0.030638086731545024,0.9819380213009082,-0.027129420312779307,right,-0.007323503494262695,0.29456233009945265,-2.19915956504941,-9.122951112246513,0.14412746290314818,-0.024637095630168915,0.001975700259208679,-2.847076945325732,-0.009752541780471802
1746229662635538000,1.974537841796875,-0.23611488279461096,0.054757677018642426,-0.1184435434223458,0.05656440556049347,-0.030218892301091285,0.9821553506509226,-0.026631905427203586,right,0.007242083549499512,0.2920500680062614,-2.1969015569895505,-9.130821699491143,0.14292933515683917,-0.08318926393985748,-0.005838453769683838,-2.823492363859713,-0.014414489269256592
1746229662675538000,2.014537841796875,-0.23348179081933887,0.02612401358783245,-0.11715008230265675,0.09070342779159546,-0.029767407844402603,0.982583803676145,-0.0265280299287632,right,0.004809558391571045,0.2883043654937142,-2.175283307160437,-9.146799605345725,0.14113425940147384,-0.07369409501552582,-0.003291204571723938,-2.7882950860112903,-0.005775779485702515
1746229662715537700,2.05453759765625,-0.2311020410402415,-0.003934737294912338,-0.11599371275475263,0.039401330053806305,-0.029586836870256573,0.98282848995981,-0.026674023668724622,right,-0.011735200881958008,0.28680070003715025,-2.1544680442772806,-9.156021022677422,0.14042189762045806,-0.02546963095664978,-0.000528186559677124,-2.7741546247169375,0.012473076581954956
1746229662755538000,2.094537841796875,-0.23014363155409578,-0.017667997628450394,-0.11557923752881762,0.015215517953038216,-0.02990722211365659,0.9828806462219262,-0.02747652146185902,right,-0.007079601287841797,0.2866807291988968,-2.1457677282102403,-9.158405287465452,0.1403307095251811,-0.009359609335660934,0.0063403695821762085,-2.7730262052088976,0.014563053846359253
1746229662795538000,2.134537841796875,-0.22962167682672524,0.005382033064961433,-0.11535831551286274,-0.01231401227414608,-0.030116206636752723,0.9829072916043529,-0.027982754860343514,right,-0.010650336742401123,0.2866236165720267,-2.1410231640316546,-9.15967837614119,0.1402812326303264,0.022015128284692764,0.00004680454730987549,-2.7724890295922755,-0.003498762845993042
1746229662835538000,2.174537841796875,-0.23047566127025168,0.04122675955295563,-0.11566975285368557,-0.009336366318166256,-0.029468258663654764,0.9828272763225671,-0.026457842901283116,right,0.0040898919105529785,0.2873660592304872,-2.1483738190554083,-9.155840405413509,0.14072162666122848,0.042596109211444855,0.0025524497032165527,-2.7794720203474164,0.004358261823654175
1746229662875538000,2.214537841796875,-0.2302094733902778,0.022372854873538017,-0.11541759615402125,0.03145768120884895,-0.028662565770993034,0.9828062646338809,-0.024759802750237207,right,0.0013005733489990234,0.28821512323844384,-2.1453972874626515,-9.154110805141926,0.141241007716945,0.023317065089941025,0.000608980655670166,-2.787456004838645,0.005998015403747559
1746229662915538000,2.254537841796875,-0.23022742193488116,0.01602786034345627,-0.11534729264570821,-0.007823269814252853,-0.028135915553744766,0.9827986547952304,-0.023650259057040837,right,0.001278698444366455,0.28852442725770155,-2.1453647003673018,-9.153232268741727,0.1414568238589319,0.011266367509961128,0.002998650074005127,-2.790364001239836,0.005176723003387451
1746229662955538000,2.294537841796875,-0.2303578672815145,0.00424723606556654,-0.11536043125200497,0.01012766920030117,-0.027738913526893495,0.9828521824643537,-0.022903786719052684,right,0.0017833113670349121,0.28782121705463865,-2.147006183964014,-9.154860746726394,0.1411523530795447,-0.023044617846608162,0.0038364678621292114,-2.7837521818846462,0.004506915807723999
1746229662995537700,2.33453759765625,-0.23012192688481842,0.003226157743483782,-0.11525011429538538,0.006701778620481491,-0.027725819862132094,0.9828994926682155,-0.022965910292661235,right,0.003344595432281494,0.28733947137845733,-2.1451517882689832,-9.156671595540642,0.14091520804629265,0.01968841813504696,0.00012414157390594482,-2.779222137239575,-0.0018708109855651855
1746229663035538000,2.374537841796875,-0.23013023715770822,0.026470478624105453,-0.11517422887084144,0.008880805224180222,-0.027249124567101518,0.9828381154120276,-0.02187420434742057,right,-0.002270817756652832,0.2883969107028578,-2.144556306593865,-9.153786980015038,0.14149782637036903,0.03965898975729942,0.0012597590684890747,-2.789165146844089,0.005918622016906738
1746229663075538000,2.414537841796875,-0.23018369902495447,0.028751909732818604,-0.11509127260179834,0.010272190906107426,-0.026585524005067345,0.9827716621426563,-0.02038406810943619,right,-0.00029981136322021484,0.2895540856686508,-2.144307884790748,-9.150524178826808,0.1421517271989934,0.04070848599076271,0.0012731999158859253,-2.8000428069502115,0.003452301025390625
1746229663115538000,2.454537841796875,-0.2300609245260242,0.019793903455138206,-0.11491053904974298,0.034685682505369186,-0.025870620297314805,0.9826881119677187,-0.01877071309662385,right,0.006334960460662842,0.2910978348312457,-2.142196153333783,-9.14656755015552,0.14300490094744536,0.05460178852081299,0.004523292183876038,-2.8145483021646736,0.0055252015590667725
1746229663155538000,2.494537841796875,-0.229604164800845,0.029571715742349625,-0.11458574218420231,0.011911949142813683,-0.025247347869305888,0.9826456091399427,-0.01743412347955373,right,0.0007342696189880371,0.29227809886254413,-2.137260596627742,-9.144304281398654,0.143667503664583,0.029599981382489204,-0.00032167136669158936,-2.82563375980258,0.003089696168899536
1746229663195538000,2.534537841796875,-0.22920422414233554,0.014435699209570885,-0.1142988559425024,0.02922816388309002,-0.024616864633002652,0.9826701872740005,-0.016187745502468976,right,-0.000683903694152832,0.2924681609767799,-2.133481224219501,-9.144635120788216,0.1438372185252378,-0.004568068310618401,0.006674975156784058,-2.8274185973927377,0.007912874221801758
1746229663235537700,2.57453759765625,-0.22758744389315158,0.009846195578575134,-0.11349278113385722,0.03893040120601654,-0.02437564147109607,0.9828033112549591,-0.015993630360879547,right,-0.001117110252380371,0.2919364978793804,-2.1190324276283383,-9.149535752311348,0.14360676398659528,-0.010611062869429588,-0.0014003515243530273,-2.822425611411035,-0.0006073415279388428
1746229663275538000,2.614537841796875,-0.2263582529144885,0.017034117132425308,-0.11285764842437192,0.04034505411982536,-0.02403896384474806,0.9829087800888072,-0.015535211263606992,right,0.002936720848083496,0.2915182937609278,-2.1080489690601825,-9.15328253762424,0.14344201339167867,-0.005758470389991999,0.004663243889808655,-2.818497624312341,0.0025908350944519043
1746229663315538000,2.654537841796875,-0.22458863206198848,0.0032676616683602333,-0.11197595740437069,0.059107474982738495,-0.023731991466620087,0.9830948957244542,-0.015298118406063236,right,0.003651738166809082,0.29036109711377384,-2.0925728752478956,-9.160172297137976,0.14290756764330703,-0.03638745844364166,0.0072989314794540405,-2.807626393947005,0.006999969482421875
1746229663355538000,2.694537841796875,-0.22222009766527065,-0.005133595317602158,-0.11085465975380848,0.04035273194313049,-0.02375267593674621,0.983313260135612,-0.015826337883843175,right,-0.0015956759452819824,0.2890765930105761,-2.0716639427319166,-9.168613377746938,0.14227463207829832,-0.018873825669288635,-0.0005929023027420044,-2.795554847881198,-0.0011382699012756348
1746229663395538000,2.734537841796875,-0.22078540931018317,-0.006165637169033289,-0.1101776309919884,0.02009952999651432,-0.023856192397778534,0.9833793494849353,-0.016231676117288294,right,-0.0012215971946716309,0.2891930653200133,-2.0584363584987817,-9.17125833929777,0.14232658764728195,0.023265007883310318,0.004230916500091553,-2.7966496573805806,0.0022349655628204346
1746229663435538000,2.774537841796875,-0.2199174839680992,-0.03000766783952713,-0.10979368240259291,0.016507960855960846,-0.024177765201316873,0.9833399698605048,-0.016891466242777552,right,-0.0024230480194091797,0.2902904680109862,-2.0498048698842526,-9.170040780201553,0.14284043621391906,0.026726115494966507,0.009968072175979614,-2.806962669341266,0.005150794982910156
1746229663475537700,2.81453759765625,-0.21929347965066415,-0.028385760262608528,-0.10958286698681013,-0.006345320492982864,-0.024865707803433904,0.9832898889623539,-0.018280355174846736,right,-0.002971172332763672,0.29121827465610106,-2.0435149759598077,-9.168771783179045,0.14322821219871873,0.01642516627907753,0.0007392615079879761,-2.815679644282162,-0.0078032612800598145
1746229663515538000,2.854537841796875,-0.21932926224127067,0.019709134474396706,-0.10961346644855872,-0.005006211809813976,-0.024992738520536177,0.9832521242237617,-0.018483730003332404,right,-0.0004208087921142578,0.2916760757842251,-2.043562322232872,-9.167439657792448,0.14344176010167434,0.0009921090677380562,0.0033436864614486694,-2.8199796795636414,-0.00903540849685669
1746229663555538000,2.894537841796875,-0.2196360704351741,0.035817280411720276,-0.10967775027790626,-0.06578050553798676,-0.02435637473319085,0.983310690934776,-0.017234548612655373,right,0.0014376044273376465,0.29085060527198925,-2.046881383652985,-9.169080995258689,0.14310050052066747,-0.08431001007556915,0.001224905252456665,-2.812225704436004,-0.01402994990348816
1746229663595538000,2.934537841796875,-0.2234243203414742,0.0404050387442112,-0.11154466258927266,-0.1648140549659729,-0.02425802809258816,0.9834600345448625,-0.017033666784310786,right,-0.020357191562652588,0.28588987641429464,-2.0846667782984674,-9.174752611154318,0.14062575158032753,-0.2150292843580246,0.003507271409034729,-2.7655861183360217,-0.01704499125480652
1746229663635538000,2.974537841796875,-0.23555668751584116,-0.0006557628512382507,-0.11780422207324728,-0.32275843620300293,-0.02622174315509338,0.9835642173617584,-0.020712587718574857,right,0.0069915056228637695,0.27376621434268383,-2.2034857576854527,-9.1807159034729,0.13429791131244845,-0.29727470874786377,-0.007371261715888977,-2.6513191031649708,-0.014314770698547363
1746229663675538000,3.014537841796875,-0.2411608882073569,0.061842501163482666,-0.12049873756559049,-0.08305603265762329,-0.02574825758299191,0.9835726878615324,-0.019563614740334134,right,0.001973867416381836,0.2689328214281297,-2.2579355791449545,-9.180559836128353,0.13191577373234775,-0.06912778317928314,-0.0029269158840179443,-2.605653915055096,0.007969409227371216
1746229663715537700,3.05453759765625,-0.2398578286516895,0.13848251104354858,-0.11954496912119568,0.2522253692150116,-0.023452162449333097,0.9836194558281193,-0.014912373497315072,right,0.036669909954071045,0.2702517377820908,-2.245152523808926,-9.180147748196125,0.13285974985662216,0.1719922125339508,-0.005701467394828796,-2.6181208901792763,0.005783885717391968
1746229663755538000,3.094537841796875,-0.23448251879490836,0.08064574748277664,-0.11650972499345963,0.06259115040302277,-0.020668037969778962,0.9836790918483914,-0.009430077601282715,right,-0.0032044053077697754,0.2749413655649614,-2.192897435914725,-9.180040780690312,0.1355495164030084,0.11577488481998444,-0.0012092739343643188,-2.6624121595874426,0.0027809441089630127
1746229663795538000,3.134537841796875,-0.23494058098623738,-0.07673745602369308,-0.11677718035866547,-0.08345545828342438,-0.021209098739387047,0.9835013159427547,-0.01022283886357005,right,-0.0014896392822265625,0.27702339867802284,-2.1958070397511125,-9.173624483907222,0.13652257896030717,0.017048686742782593,0.00009459257125854492,-2.682057355777919,0.0014386773109436035
1746229663835538000,3.174537841796875,-0.23479040645016627,-0.11356868594884872,-0.1169954808943164,-0.002031862735748291,-0.023460601101644083,0.9833418493208916,-0.014620806582017419,right,0.013313710689544678,0.27874677465414144,-2.193350732640177,-9.169445152395964,0.13711480112292573,0.03925219550728798,0.0050520747900009155,-2.69830969465971,0.0036347806453704834
1746229663875538000,3.214537841796875,-0.23135816177681107,-0.0027748122811317444,-0.11556222163756193,0.13346272706985474,-0.025232838861943475,0.9833398871707929,-0.01844800442829739,right,0.01416712999343872,0.28096812316583764,-2.160486427783966,-9.171062524464725,0.13802654435699296,0.08848223090171814,-0.001074284315109253,-2.719246099704504,-0.008756637573242188
1746229663915538000,3.254537841796875,-0.22642473182603143,0.0006082949694246054,-0.11288358388832545,0.03702828288078308,-0.02327077560273346,0.9835194480043218,-0.014918616577471863,right,-0.027417123317718506,0.28303148989795834,-2.1139514711022374,-9.176122145941854,0.13930280055309344,-0.01699608564376831,0.009305372834205627,-2.7386814525365826,0.011283785104751587
1746229663955538000,3.294537841796875,-0.22743519550107894,-0.12357848882675171,-0.1136308734646423,-0.10421021282672882,-0.024833292068996538,0.9836641819682284,-0.018344895856168057,right,-0.009302794933319092,0.2795627762728714,-2.12535169377774,-9.183181416803597,0.13739026668819207,-0.15108497440814972,0.008641228079795837,-2.706002002727985,0.00675278902053833
1746229663995537700,3.33453759765625,-0.22877925894791945,0.06550094485282898,-0.1147003815373625,-0.10622710734605789,-0.02756438044353362,0.9837990796263307,-0.024181393571841882,right,-0.006523311138153076,0.27540601281318544,-2.1402249993912874,-9.191192289301753,0.1349942214415552,-0.13465873897075653,-0.024989470839500427,-2.6667975350648163,-0.016647905111312866
1746229664035538000,3.374537841796875,-0.2316853769402185,0.11981430649757385,-0.11580129323241425,-0.04836731031537056,-0.02507057027241065,0.9839536704892788,-0.019142922443581754,right,-0.00416254997253418,0.2716631587358574,-2.169203402724862,-9.194583685305714,0.13340443253965115,-0.05813779681921005,0.0007451772689819336,-2.6314573416143654,0.017733007669448853
1746229664075538000,3.414537841796875,-0.23230955383886073,-0.05347199738025665,-0.1159560321730038,0.05338786169886589,-0.023870854817858656,0.9840414689810234,-0.016782222715564846,right,0.0038992762565612793,0.2702566098787043,-2.1757919873349367,-9.196821235099435,0.13284135377404033,-0.0030691325664520264,0.004129484295845032,-2.6181670674085615,0.011550545692443848
1746229664115538000,3.454537841796875,-0.2267064979371656,-0.19168893992900848,-0.11368261336072863,0.17168375849723816,-0.027153987238970244,0.984203697444139,-0.024099736514546888,right,0.017875313758850098,0.27123456192703965,-2.1236513196006417,-9.206368231123685,0.13297409681956746,-0.01605178788304329,0.008760437369346619,-2.6274080662235617,0.004768848419189453
1746229664155538000,3.494537841796875,-0.2191837745627547,-0.03843274712562561,-0.11042051022981164,0.08384917676448822,-0.029794765382482557,0.9846924828295709,-0.03073874424322556,right,-0.007199704647064209,0.2688419282891083,-2.0556958276189863,-9.228193109440802,0.13153103146015308,-0.16219060122966766,-0.00994063913822174,-2.6047946678772567,-0.0032801032066345215
1746229664195538000,3.534537841796875,-0.21054595865439618,0.05751226097345352,-0.10592500592367818,0.38047242164611816,-0.026948389171690887,0.9857993262269547,-0.02703459415923692,right,0.015494346618652344,0.25998489337325087,-1.9806528615944086,-9.267803235295414,0.12748889643031133,-0.19999928772449493,-0.012707993388175964,-2.5209558164566754,0.017520099878311157
1746229664235537700,3.57453759765625,-0.1947694806883972,-0.14656507968902588,-0.09831375309636198,0.4243164658546448,-0.026957958872690226,0.9870425006561686,-0.029802290440769864,right,0.0032502412796020508,0.25259605101465854,-1.8377540645703672,-9.315917570123077,0.1239145185897308,-0.2053244709968567,0.005115911364555359,-2.4508628740549088,0.013692870736122131
1746229664275538000,3.614537841796875,-0.17675883442462464,-0.10276813805103302,-0.08987416056525295,0.43649011850357056,-0.029373182630451494,0.988162437339165,-0.03747730498664318,right,-0.004189848899841309,0.24652763620804297,-1.6722639349013566,-9.361972634333371,0.12080922569366769,-0.18923863768577576,-0.01649777591228485,-2.3931956979840994,0.004206851124763489
1746229664315538000,3.654537841796875,-0.16160443603324032,0.07581274211406708,-0.08239045229306778,0.2898709774017334,-0.028495701659100713,0.9891909161608679,-0.03804902865871414,right,-0.016177117824554443,0.24025739591674575,-1.5325865841418504,-9.400864382785558,0.11790296780511915,-0.16981881856918335,-0.0012592971324920654,-2.3335182050041854,0.0029411613941192627
1746229664355538000,3.694537841796875,-0.1559892724448035,-0.11319802701473236,-0.07969811560995696,0.04036678373813629,-0.028925920943514594,0.9897799387589794,-0.04008420815811732,right,-0.01575106382369995,0.23371127761296392,-1.4821167722292243,-9.424210187059641,0.11466124935011267,-0.1922110617160797,0.008766964077949524,-2.271116986148804,0.005471184849739075
1746229664395538000,3.734537841796875,-0.15637340460197546,-0.08743671327829361,-0.08026777580233081,-0.08767667412757874,-0.03236278244127918,0.9899647662265676,-0.047389834269350666,right,-0.0003933906555175781,0.22835643678046857,-1.4876095244266092,-9.435518347537517,0.11171183282378819,-0.09575813263654709,-0.006293922662734985,-2.2199992317214607,0.00378967821598053
1746229664435538000,3.774537841796875,-0.16028600256571482,0.16373109817504883,-0.08205876214110781,-0.12855267524719238,-0.03128503277565826,0.9898280103380916,-0.044743658740959695,right,-0.0017418265342712402,0.22870459624676295,-1.5243918795093894,-9.428862396779655,0.11192935391995242,0.09576746076345444,0.0037228763103485107,-2.22332472288236,-0.0031852424144744873
1746229664475537700,3.81453759765625,-0.16964041007187766,0.007706746459007263,-0.08641453242440435,-0.2850240468978882,-0.02939137991044878,0.9894549383733491,-0.0397808211515821,right,-0.00984269380569458,0.22964419709378806,-1.6121720159016548,-9.41212695055604,0.11246161014685462,0.0009672269225120544,0.012454196810722351,-2.232298156802356,0.0131264328956604
1746229664515538000,3.854537841796875,-0.17667569321683183,-0.035737305879592896,-0.08979363945219813,-0.13012515008449554,-0.02890299335716382,0.9891214716471076,-0.03791832476626344,right,0.006671726703643799,0.23051830406072019,-1.6780049627713858,-9.398627417513728,0.11287366850708375,0.03839084506034851,0.00793410837650299,-2.240644398734718,-0.003922194242477417
1746229664555538000,3.894537841796875,-0.17879987429963246,-0.15733109414577484,-0.09100818761054427,-0.07947426289319992,-0.03046148295273799,0.9889423496198392,-0.04076631520974843,right,-0.009128034114837646,0.23121994885585187,-1.6976855225361882,-9.393492392712831,0.11306052783235575,-0.043888479471206665,0.01172591745853424,-2.2473425811991095,-0.004165232181549072
1746229664595538000,3.934537841796875,-0.1792692317074455,-0.012902095913887024,-0.09133444442024155,0.021492555737495422,-0.0313125367303093,0.9889027738963388,-0.042445469206022414,right,0.007657825946807861,0.23108711139408275,-1.7021474703811108,-9.392988534843921,0.11291102222030608,0.018551286309957504,-0.0005001872777938843,-2.246074607089907,-0.010251343250274658
1746229664635538000,3.974537841796875,-0.17735296733706296,0.00934666395187378,-0.09030439226613804,0.022607315331697464,-0.03048071793170494,0.9889075291747464,-0.04082345693332884,right,-0.00472259521484375,0.232920602783919,-1.6834154435127973,-9.392163189935683,0.11392124536285943,0.04184728115797043,0.0031926631927490234,-2.2635732927709817,-0.010104387998580933
1746229664675538000,4.014537841796875,-0.17825468871539865,-0.019252613186836243,-0.09090942792601554,-0.05538594350218773,-0.0319054635084898,0.9887233624841862,-0.043450623406429696,right,-0.0009095668792724609,0.23465494977786738,-1.6911852007314563,-9.386763961240648,0.1146460168233116,0.04271871969103813,-0.00633549690246582,-2.2801186232499777,-0.020234376192092896
1746229664715537700,4.05453759765625,-0.18028705688285465,0.09225492179393768,-0.09183744774437988,-0.04056831821799278,-0.03136285953566701,0.9883798335191409,-0.041708307879522274,right,-0.010338246822357178,0.23930715532395977,-1.7083385801061988,-9.372770507201551,0.11699399628225296,0.16421519219875336,0.001437351107597351,-2.3244661528900266,0.009251341223716736
1746229664755538000,4.094537841796875,-0.18247901800356353,0.025762036442756653,-0.09269980936008643,-0.025691650807857513,-0.029711935158992578,0.9879227560547662,-0.03749498379400347,right,-0.005045652389526367,0.24617844995978358,-1.725939995509386,-9.353075042128562,0.1205513444656886,0.18905483186244965,0.017210811376571655,-2.389874736867845,0.019062146544456482
1746229664795538000,4.134537841796875,-0.1832659339268865,-0.3635035753250122,-0.0933734198928176,-0.12520244717597961,-0.03212166861130929,0.9875408185822592,-0.04188164047753309,right,-0.01885676383972168,0.25061443024600777,-1.7313504762507974,-9.34119814185202,0.12252689557672433,-0.034733355045318604,0.034537866711616516,-2.432041707598418,0.02876552939414978
1746229664835538000,4.174537841796875,-0.18256845644592493,-0.5299344062805176,-0.09417151882704582,-0.10660220682621002,-0.04138009474026694,0.98734403963596,-0.0608877675096915,right,0.008059859275817871,0.24871607746391525,-1.7256698002658784,-9.346927040892838,0.1207107577877787,-0.17791223526000977,0.01923675835132599,-2.4140024852998554,0.007114201784133911
1746229664875538000,4.214537841796875,-0.18073090814252285,-0.4755689203739166,-0.0945009440593784,-0.13240249454975128,-0.05189133967987602,0.9872817817848623,-0.08290561140595666,right,0.013348639011383057,0.24289671541637206,-1.7109876333102583,-9.363742566615343,0.11683987184942018,-0.20038779079914093,0.009505867958068848,-2.3586494313903152,-0.0031767189502716064
1746229664915538000,4.254537841796875,-0.18080857845483203,-0.2962009608745575,-0.0954081402187927,-0.049624793231487274,-0.0596481098612858,0.9870338182294205,-0.09888886633886255,right,0.01562577486038208,0.23964322724639148,-1.7130859207637608,-9.371109295991063,0.11447137359934097,-0.11014213413000107,0.010137781500816345,-2.327667725410312,-0.0016061365604400635
1746229664955538000,4.294537841796875,-0.17591907169650836,-0.24507272243499756,-0.0936299115868945,0.12399446219205856,-0.06499615494526693,0.9869669549205513,-0.11037147747483057,right,0.008168816566467285,0.2386722748977939,-1.6676402206234633,-9.381593865126371,0.11360136115836944,-0.05469740927219391,0.005232691764831543,-2.31841693585366,-0.01589544117450714
1746229664995537700,4.33453759765625,-0.16899430446699729,-0.19015660881996155,-0.09066839932956863,0.09014052152633667,-0.06871906191361724,0.9870591586410195,-0.11878038222308061,right,-0.005490124225616455,0.2377904068948349,-1.6029786556206642,-9.39492856299579,0.11300968618067221,-0.0882323831319809,-0.006225317716598511,-2.3100131185151636,-0.013544425368309021
1746229665035538000,4.374537841796875,-0.16647361182861556,-0.19376179575920105,-0.08982267986534434,-0.05704258382320404,-0.07272632681067875,0.9870751137290311,-0.12744824666330526,right,-0.01304018497467041,0.23437524341191285,-1.5805898598104715,-9.406664593496918,0.11102012662373098,-0.17150253057479858,-0.014075785875320435,-2.2774507192149755,-0.010241284966468811
1746229665075538000,4.414537841796875,-0.16971503401517696,-0.24306350946426392,-0.09183020345491005,-0.21038104593753815,-0.07800901234030057,0.9869132361591079,-0.13829688671582982,right,-0.0025475621223449707,0.22781479486966622,-1.61356142443344,-9.416015774688123,0.10716350000081218,-0.24997538328170776,-0.012913048267364502,-2.2148251900844276,-0.007040292024612427
1746229665115538000,4.454537841796875,-0.1770605205449208,-0.2257956564426422,-0.09579781143614953,-0.26123595237731934,-0.08366956903604846,0.9865863797058734,-0.14963102175681983,right,0.004640340805053711,0.21969004350165888,-1.6857964934304355,-9.421312712052464,0.10232069274656905,-0.2477114200592041,-0.012274578213691711,-2.1371349244214595,0.0015401244163513184
1746229665155538000,4.494537841796875,-0.18394325226648264,-0.024358198046684265,-0.09934959362444748,-0.12992314994335175,-0.08720905680454412,0.9862869879616546,-0.15658545963347306,right,0.01237952709197998,0.21385387198643413,-1.752851967832446,-9.421588606384397,0.09880449710654114,-0.08955588936805725,-0.022192686796188354,-2.081241187763959,-0.00765565037727356
1746229665195538000,4.534537841796875,-0.18639361863537054,0.14898572862148285,-0.10041714049162224,0.01909288763999939,-0.08598429534947599,0.9862936487034452,-0.15387405348341393,right,0.010102987289428711,0.2136461544968587,-1.7760130631893871,-9.417689845380186,0.0987312268554872,0.0685073733329773,-0.024211466312408447,-2.0792505984686316,-0.016145169734954834
1746229665235537700,4.57453759765625,-0.18649628425866932,0.2684537470340729,-0.10011179889778746,0.08446674793958664,-0.08166293559614701,0.986500165117718,-0.14485098680465094,right,0.0124245285987854,0.2165801225371309,-1.775841067623347,-9.41147228603959,0.10062849657014582,0.15015900135040283,-0.019267618656158447,-2.107359817752242,-0.010479286313056946
1746229665275538000,4.614537841796875,-0.18582598074308632,0.3982510566711426,-0.09910756508130569,0.1458190530538559,-0.07408327752706932,0.9868915263786452,-0.12917926840481891,right,0.012461483478546143,0.2209754682727174,-1.767803745509684,-9.403466089716552,0.10360664983856885,0.1851031333208084,-0.011819198727607727,-2.1494358953289687,-0.003244727849960327
1746229665315538000,4.654537841796875,-0.18285946372633716,0.48504912853240967,-0.09676112672023231,0.258148193359375,-0.06483825638815333,0.9874386230394294,-0.11039495203474337,right,0.014772415161132812,0.22529068827970317,-1.7381977117970584,-9.399460945728421,0.10676211337025587,0.20991601049900055,-0.013557523488998413,-2.1907046020455656,-0.015246272087097168
1746229665355538000,4.694537841796875,-0.17786597088739092,0.39803528785705566,-0.09335401839073643,0.1989213526248932,-0.055637613257605086,0.9880970040194392,-0.09212366019875641,right,-0.0014278292655944824,0.22750231590136474,-1.6903787066541611,-9.40323169643879,0.10887438857911992,0.06373469531536102,-0.002699330449104309,-2.2118398906633256,-0.010774493217468262
1746229665395538000,4.734537841796875,-0.17529081399067312,0.26880502700805664,-0.09129626171857837,0.12129189819097519,-0.0486134263800807,0.9887169222603438,-0.07840035215881976,right,0.00008887052536010742,0.2250319006883443,-1.6671061137467622,-9.412905533713102,0.10835306122592267,-0.05848166346549988,0.004780799150466919,-2.188230905408412,-0.003060087561607361
1746229665435538000,4.774537841796875,-0.1766448100504162,0.19174273312091827,-0.0914757253947647,-0.04564734548330307,-0.04460568606011751,0.989136489355599,-0.07059113357769727,right,-0.010272204875946045,0.21976570963068737,-1.6818512629359958,-9.421853394800424,0.10607246876422692,-0.1028975397348404,0.003661826252937317,-2.137859147042781,0.008640825748443604
1746229665475537700,4.81453759765625,-0.17937377867552187,0.26451700925827026,-0.09230772123861582,-0.013590950518846512,-0.04004612044747604,0.9893298226016033,-0.06126744366112382,right,-0.00974273681640625,0.21759043436274966,-1.70838271150887,-9.421782083129882,0.10536646417965323,0.04203927516937256,0.0035742968320846558,-2.1170349702008067,0.01988331973552704
1746229665515538000,4.854537841796875,-0.18249271218926275,0.19463381171226501,-0.09329618051149983,-0.02592010423541069,-0.034973453164382814,0.9892986191592391,-0.05053994803089548,right,-0.002018868923187256,0.2191701877547645,-1.7371511253535747,-9.413107193765043,0.1065876132351389,0.12973150610923767,0.013086661696434021,-2.1321591818355023,0.032588064670562744
1746229665555538000,4.894537841796875,-0.1846655278238663,0.3253094553947449,-0.09375902640106537,0.03206650912761688,-0.029437795861655878,0.9891307567254259,-0.03869987345359465,right,0.0008867979049682617,0.22375680824233107,-1.7557858293272555,-9.399598308372497,0.10937594165701402,0.20569927990436554,0.00488831102848053,-2.1760399707466362,0.015703007578849792
1746229665595538000,4.934537841796875,-0.18578600892571392,0.23824605345726013,-0.09361615414145866,0.028282422572374344,-0.02334890849211304,0.989022694521408,-0.02590248114859965,right,0.00015020370483398438,0.22770813762316586,-1.7647146934531628,-9.389101464277505,0.11191540323743979,0.13271339237689972,0.01063886284828186,-2.2138062223002315,0.0179578959941864
1746229665635538000,4.974537841796875,-0.18415487233471228,0.015907973051071167,-0.09245625284795984,0.09558182954788208,-0.02025705733903902,0.9890290897906426,-0.019615998175649317,right,-0.004024505615234375,0.23011358429019238,-1.748417200255394,-9.38670550905168,0.1134154365912528,0.04890798032283783,0.012559369206428528,-2.236780270652473,0.012325659394264221
1746229665675538000,5.014537841796875,-0.18022669564398544,-0.09310212731361389,-0.09059197259143555,0.0704028308391571,-0.020706410210045597,0.9892103689012491,-0.02099924289974491,right,-0.004071474075317383,0.22984136169015038,-1.7116402520000933,-9.394099710956215,0.11325770423958162,-0.04328790307044983,0.005155041813850403,-2.2341809018090366,-0.0005146712064743042
1746229665715537700,5.05453759765625,-0.17904040049902373,-0.14847424626350403,-0.09031035470751882,-0.09070189297199249,-0.023186994197373943,0.9894266326098596,-0.026494560680497162,right,-0.006330728530883789,0.22594015632276357,-1.702034219264984,-9.40462870375514,0.11109195146572877,-0.18272055685520172,0.0034410953521728516,-2.1969123706445095,0.0004258453845977783
1746229665755538000,5.094537841796875,-0.18551201507435897,-0.23982031643390656,-0.09405385292147134,-0.2909512519836426,-0.028308931131872276,0.989483156692503,-0.03692329307567927,right,-0.001343846321105957,0.2171686591477361,-1.766347847612947,-9.41199484860897,0.10618701502292613,-0.2783762812614441,0.003360435366630554,-2.1129962162040172,-0.002053886651992798
1746229665795538000,5.134537841796875,-0.19316014403726914,-0.2746215760707855,-0.09851350621169323,-0.21181461215019226,-0.03521643944605308,0.9893048364587403,-0.05078616787937318,right,0.005162954330444336,0.2095773248473864,-1.8413057657025753,-9.413681778782605,0.10164101832291116,-0.19126926362514496,0.005213797092437744,-2.0402390230290592,0.006522759795188904
1746229665835538000,5.174537841796875,-0.19729468741484,-0.2464398741722107,-0.10115506526899443,-0.1337435394525528,-0.0414824135490382,0.9890713771519634,-0.06342235384015149,right,0.0005467534065246582,0.2055083452030831,-1.8818227772690355,-9.414051196616887,0.09891729078201847,-0.11457249522209167,0.0034416615962982178,-2.0011923762761055,0.011004731059074402
1746229665875538000,5.214537841796875,-0.20033183495774495,-0.14242082834243774,-0.1030656738156299,-0.11309216171503067,-0.04584809094666245,0.9888044976377199,-0.0720915173818643,right,0.004848182201385498,0.20403312923412606,-1.910991442477703,-9.41117534891963,0.09767841425954248,-0.022624388337135315,0.00035221874713897705,-1.9870276573233305,0.006295323371887207
1746229665915538000,5.254537841796875,-0.20256724604942322,-0.07772113382816315,-0.10439749862063698,-0.05444732680916786,-0.04813068731721211,0.9885160320885025,-0.07635401766882832,right,0.00514531135559082,0.20540772546249725,-1.9314730894923209,-9.404195573034881,0.09808484538719,0.05553126335144043,0.0024541467428207397,-2.000226307722926,-0.001017346978187561
1746229665955538000,5.294537841796875,-0.20373495782714302,0.010132372379302979,-0.10506183698775284,-0.01226220652461052,-0.048767988040099096,0.988259052872138,-0.0772047361160001,right,0.010160744190216064,0.20869484859732731,-1.9411124399751423,-9.395443526780605,0.09963780996955461,0.10328872501850128,-0.000947803258895874,-2.031773538631201,-0.00530494749546051
1746229665995537700,5.33453759765625,-0.2036950856191856,0.07189922034740448,-0.10496252317109028,0.04808938130736351,-0.04769275482321733,0.9881333653482928,-0.07469063305345736,right,0.009874939918518066,0.21217623488956314,-1.9392951614201068,-9.388536816132069,0.10149233534682807,0.09263812750577927,-0.003821834921836853,-2.065160990578681,-0.008763313293457031
1746229666035538000,5.374537841796875,-0.20200025967530819,-0.06936958432197571,-0.10411164327329035,-0.0027817189693450928,-0.0474420656125733,0.9882077010983047,-0.0743160014248513,right,-0.009225070476531982,0.21260096596873307,-1.923204296710342,-9.390950307014585,0.1017622479261401,-0.11008202284574509,0.0005483180284500122,-2.0692326239317653,-0.0086001455783844
1746229666075538000,5.414537841796875,-0.203894021056845,-0.20645613968372345,-0.10541351224821988,-0.20962315797805786,-0.052159441008032756,0.988392068623522,-0.08466164416022236,right,-0.021000564098358154,0.20248198695591624,-1.9451253288783132,-9.407315166360139,0.09616862332290795,-0.48684966564178467,-0.003658398985862732,-1.9721292172685265,-0.031663939356803894
1746229666115538000,5.454537841796875,-0.21252948258594384,-0.015023976564407349,-0.10978748159157059,-0.24302829802036285,-0.05592620552679992,0.988540611845322,-0.09315585962283739,right,0.011786997318267822,0.1857764745730655,-2.0329544189788398,-9.42106019859612,0.0872142764896915,-0.3683655858039856,-0.0031046271324157715,-1.811383359517157,-0.02869594097137451
1746229666155538000,5.494537841796875,-0.21746073110802372,0.3464219868183136,-0.11186563180387364,0.01582561433315277,-0.05285765224864875,0.9887061329005948,-0.08711644154370124,right,0.01215207576751709,0.18002901524945267,-2.081598915160447,-9.42093043473661,0.0845712416090132,0.0843132734298706,-0.007688045501708984,-1.7559601629808543,-0.004239305853843689
1746229666195538000,5.534537841796875,-0.21952880954292814,0.48375648260116577,-0.11211021160269732,0.059131138026714325,-0.043585662603043834,0.9888778922761825,-0.06778077810381682,right,-0.003347337245941162,0.18381188108259422,-2.099616071757674,-9.4100548204571,0.08747579678627906,0.22585922479629517,-0.008560478687286377,-1.792445288682729,0.018710985779762268
1746229666235537700,5.57453759765625,-0.22129515499385266,0.33534324169158936,-0.11219327854364144,0.04094059392809868,-0.034655043747747624,0.9889077260617057,-0.049022225845490076,right,-0.0033799409866333008,0.18879034335869452,-2.114249431135505,-9.397509227138757,0.09095628361094694,0.20903988182544708,-0.0030498504638671875,-1.8404224069967865,0.024107813835144043
1746229666275538000,5.614537841796875,-0.22023514624837695,0.09154196083545685,-0.11128459133247634,0.06924295425415039,-0.030456380516384676,0.9888427522171318,-0.04002597073591639,right,-0.0034799575805664062,0.19434337312432676,-2.102021671594679,-9.389626949456334,0.09422310010070772,0.17950186133384705,-0.003241211175918579,-1.8938827790275214,0.01565617322921753
1746229666315538000,5.654537841796875,-0.22075183829192965,-0.019174285233020782,-0.11142283471415987,-0.1163744330406189,-0.02930032246528947,0.9886802318531664,-0.037254153936561694,right,-0.006786048412322998,0.1978694302831126,-2.105397577768564,-9.381965621048211,0.09611364989096552,0.02289004623889923,0.002513974905014038,-1.927798784893751,0.014239072799682617
1746229666355538000,5.694537841796875,-0.2297649010781997,-0.06941348314285278,-0.11604430662901942,-0.28518736362457275,-0.03142033629875639,0.9883018961396562,-0.04110883010263215,right,0.0074599385261535645,0.19399109885614513,-2.191557565613091,-9.369818671658635,0.09383992626316943,-0.13729049265384674,-0.001990020275115967,-1.890493136589229,0.0020076334476470947
1746229666395538000,5.734537841796875,-0.23716057907497162,-0.023324742913246155,-0.11978736148965703,-0.05153465270996094,-0.03269140211586568,0.9880209694219795,-0.04344182236706013,right,0.02493351697921753,0.1900478387591873,-2.262526998588443,-9.360527696222066,0.09163461334465432,-0.024520166218280792,0.002172514796257019,-1.8525337005510925,0.0035194307565689087
1746229666435538000,5.774537841796875,-0.23382974162587586,0.0509655699133873,-0.11808244998524262,0.23019054532051086,-0.03191025954776284,0.9881500171486732,-0.041948511132176035,right,0.01934903860092163,0.191965034519906,-2.230509081428498,-9.364539269950985,0.0927248468830428,0.14676034450531006,-0.002556934952735901,-1.8709930479578674,-0.001808851957321167
1746229666475537700,5.81453759765625,-0.22601555310114863,0.18301784992218018,-0.11391124906881324,0.244937926530838,-0.028362072990260688,0.9884723765019561,-0.034968777796044036,right,0.007199108600616455,0.19675308441111697,-2.15523318343088,-9.372844741481542,0.09561449661026696,0.15879373252391815,-0.006195366382598877,-1.9170636019982397,-0.002885282039642334
1746229666515538000,5.854537841796875,-0.2219201242332358,0.11555438488721848,-0.11150485176650136,0.058935970067977905,-0.024277159196447896,0.9887488275354381,-0.026970441778228563,right,-0.011944472789764404,0.19794987516070298,-2.116322876408696,-9.379348132026195,0.09671091811264143,-0.04296015202999115,-0.000490233302116394,-1.9285722534842789,0.009065210819244385
1746229666555538000,5.894537841796875,-0.22295678255344986,-0.22478747367858887,-0.112112335206619,0.004048775881528854,-0.0250792135636736,0.9889620996996097,-0.029162729646643865,right,-0.004185795783996582,0.19187837302608143,-2.1285947673521934,-9.388395946356654,0.09357272267830087,-0.21903114020824432,0.007694453001022339,-1.870158789090812,0.016219571232795715
1746229666595538000,5.934537841796875,-0.2187895453732623,-0.3541160821914673,-0.1107222096015498,0.0247500017285347,-0.03204255322083592,0.9892259582236425,-0.0441906877425223,right,-0.002472400665283203,0.18674367010359294,-2.0915094838000834,-9.406434291872381,0.09025467008178589,-0.19227205216884613,-0.0003147721290588379,-1.8207041455700992,0.008004054427146912
1746229666635538000,5.974537841796875,-0.21683033871148205,-0.26605600118637085,-0.1103626736053721,-0.07925961911678314,-0.038889847302133136,0.9892821564344563,-0.05867411770028607,right,-0.009831845760345459,0.18240401170881085,-2.0747566480502484,-9.418141680800915,0.08734123495605606,-0.1556718647480011,-0.008962303400039673,-1.7788696216642856,0.00034871697425842285
1746229666675538000,6.014537841796875,-0.21923646883893771,-0.11661458015441895,-0.11188610826956397,-0.11136241257190704,-0.04294360746199081,0.9890765494672593,-0.06687876029868532,right,-0.0030601024627685547,0.18034970360818486,-2.0982022594369947,-9.416669270160794,0.0858194595881156,-0.036140307784080505,-0.002033412456512451,-1.759054183473438,0.007102295756340027
1746229666715537700,6.05453759765625,-0.22215783416896662,-0.08989949524402618,-0.11352085512905866,-0.07372191548347473,-0.045180114229040114,0.9887770459469913,-0.07104897267076477,right,-0.005742549896240234,0.1812701031295301,-2.125345117906481,-9.40891617181599,0.08597551992833517,0.0391383171081543,-0.00043320655822753906,-1.7679330709777772,0.013445690274238586
1746229666755538000,6.094537841796875,-0.2242037383156903,0.009833060204982758,-0.11462112534634299,-0.040667373687028885,-0.045956851474049154,0.9884661731241908,-0.07204685080348569,right,0.001955747604370117,0.184889325564588,-2.143153746319562,-9.398248647329211,0.08766232934036865,0.13103973865509033,-0.0016617923974990845,-1.8028323887929318,0.011301517486572266
1746229666795538000,6.134537841796875,-0.22616546724972525,0.0654575526714325,-0.11550262355587684,-0.020783105865120888,-0.044680082703797495,0.9881964013145295,-0.06876185834729553,right,0.0024226903915405273,0.18966885746262396,-2.1596295186936856,-9.385521267703176,0.09017052049096112,0.16282010078430176,-0.002609565854072571,-1.8488839458718895,0.0028564035892486572
1746229666835538000,6.174537841796875,-0.22762253618470035,0.060576003044843674,-0.11608921002556907,-0.011442389339208603,-0.043004109666452225,0.987970608135546,-0.06471961061835853,right,0.0021491050720214844,0.1943190384482365,-2.171338953448832,-9.373887528532743,0.09267168810443535,0.1273881494998932,-0.0034361183643341064,-1.893648678010702,0.0011175423860549927
1746229666875538000,6.214537841796875,-0.22794977048553677,0.010517623275518417,-0.11616616991145565,0.045898307114839554,-0.04197946738807983,0.9878640602206149,-0.06230718034784774,right,0.010768532752990723,0.19707834993594434,-2.173217168410867,-9.368050492942332,0.09416877026607438,0.06572863459587097,0.0007757097482681274,-1.9201918170213699,0.0015205293893814087
1746229666915538000,6.254537841796875,-0.22524715184837013,-0.00928276777267456,-0.11482606498068593,0.09006255120038986,-0.041726849331494856,0.9879525161437714,-0.06188788828416868,right,0.006192803382873535,0.19858290641109563,-2.1472433537207545,-9.371063118761777,0.09499324250092468,0.014069434255361557,-0.0015777796506881714,-1.9346585876606404,-0.004762724041938782
1746229666955538000,6.294537841796875,-0.22253794415482264,-0.0101022245362401,-0.11351029463172828,0.056763093918561935,-0.041897429264134,0.9881563718221161,-0.06263220598561271,right,-0.0006119012832641602,0.19730815260999346,-2.1223899213626978,-9.37924408712983,0.09437719108903683,-0.0699751079082489,0.00048847496509552,-1.92240160202533,-0.002282857894897461
1746229666995537700,6.33453759765625,-0.22090707063443463,0.0045773303136229515,-0.11269748453354948,0.02115115523338318,-0.04195987775580194,0.9884298962491309,-0.0633358217726752,right,-0.0021611452102661133,0.1934002576161155,-2.1087207308419047,-9.38995135910511,0.09243919042595397,-0.14303767681121826,0.0005197376012802124,-1.8848073460377752,0.0011679530143737793
1746229667035538000,6.374537841796875,-0.21904466095813618,-0.23109689354896545,-0.11190718798213457,0.1388401985168457,-0.04368631187887508,0.9887330740219589,-0.06763632971334246,right,0.018132567405700684,0.18747007105571056,-2.0936212152570484,-9.404607076445222,0.08930431898066711,-0.14819177985191345,0.019459694623947144,-1.8277035029381512,0.020351409912109375
1746229667075538000,6.414537841796875,-0.213643956499429,-0.1416444331407547,-0.10955390846931941,0.07522885501384735,-0.047459899107322095,0.9890666824399172,-0.07625702476623145,right,-0.005611121654510498,0.1826397772320845,-2.0446473409906027,-9.424294942733646,0.08656000801943872,-0.16513751447200775,0.004321455955505371,-1.781143265684694,0.017178460955619812
1746229667115538000,6.454537841796875,-0.2123455849361842,-0.0022153109312057495,-0.10899366114290542,-0.04426494985818863,-0.048864159145624586,0.9892603035470324,-0.07966045777854665,right,-0.010850608348846436,0.17826839073505968,-2.03403096216917,-9.434462701004742,0.0842416830083091,-0.07010798901319504,0.00563792884349823,-1.738970741996169,0.009440615773200989
1746229667155538000,6.494537841796875,-0.21451093648831543,0.18476678431034088,-0.10991262449510655,-0.017631307244300842,-0.04715980065318613,0.989224506026612,-0.07601959250008541,right,-0.003666818141937256,0.17836934324513865,-2.0544176243767143,-9.429864267298578,0.08443892605333134,0.12646269798278809,-0.002526208758354187,-1.739944993855804,0.0032897889614105225
1746229667195538000,6.534537841796875,-0.21650725480410643,0.3065381944179535,-0.11045607900133349,0.022319510579109192,-0.04159236584179844,0.9890905995273244,-0.0639343949914561,right,0.004273056983947754,0.18459793540091607,-2.070870308136195,-9.414977079290152,0.08814311630800434,0.31089723110198975,-0.00926297903060913,-1.8000234688520431,-0.004828289151191711
1746229667235537700,6.57453759765625,-0.21787524671665337,0.28585514426231384,-0.11051312383607174,0.028350234031677246,-0.03447957861121219,0.9887703444282466,-0.048236446044755306,right,0.0038802623748779297,0.19575482401970098,-2.0792773403450844,-9.391942240661383,0.09450430386022719,0.3854677379131317,-0.006665974855422974,-1.907461953177303,-0.010704010725021362
1746229667275538000,6.614537841796875,-0.21704854196160783,0.08670134842395782,-0.10967360924127156,0.10289748758077621,-0.03009347690282872,0.9883322059461302,-0.03809382770613986,right,0.011858820915222168,0.20837851174944177,-2.0661619843147694,-9.369396062332392,0.10131858458232566,0.3293059170246124,-0.0005855262279510498,-2.0287384087190032,-0.004212036728858948
1746229667315538000,6.654537841796875,-0.21409664184383015,0.022224612534046173,-0.10799094580230419,0.14937706291675568,-0.02800848743715278,0.9880853222186821,-0.03323796831607418,right,0.023386716842651367,0.21727415379783557,-2.0345805588759482,-9.357448434907198,0.10602290028080504,0.1979375034570694,0.0035303235054016113,-2.114006416159868,-0.003083840012550354
1746229667355538000,6.694537841796875,-0.2105167698130512,0.017349008470773697,-0.10610102786374959,0.0652984157204628,-0.026818116323842078,0.9881026272312319,-0.03082267931760542,right,0.011840105056762695,0.2210300810033328,-1.9993958482481538,-9.356841116663814,0.10805755153817606,0.0323101282119751,-0.007739648222923279,-2.1499584578983484,-0.011987611651420593
1746229667395538000,6.734537841796875,-0.20940688856590295,-0.06369376182556152,-0.10560712817673422,0.041312143206596375,-0.027200896903820042,0.9882442300710759,-0.03190041213609797,right,0.019808650016784668,0.21927274726750687,-1.9897918613396584,-9.362736019921302,0.10714690644812067,-0.1021309345960617,0.0037406980991363525,-2.133140886349231,-0.006373122334480286
1746229667435538000,6.774537841796875,-0.20756039607443008,-0.06825026124715805,-0.1048712856543366,0.023015355691313744,-0.028629147845106298,0.98855517556181,-0.03548420901282827,right,0.0014886856079101562,0.21444833747190717,-1.9745980916000903,-9.376355379950999,0.10459895847264702,-0.1743147373199463,-0.0038277506828308105,-2.086937791970372,-0.011428594589233398
1746229667475537700,6.81453759765625,-0.20459918352867124,-0.052955109626054764,-0.10361355469407349,0.07145228236913681,-0.030391561473713774,0.9888598180849419,-0.0397626250589084,right,-0.0004190802574157715,0.2104721029683503,-1.9484946591809391,-9.39021205586791,0.1024531732184486,-0.08221796900033951,-0.007703021168708801,-2.0488209734134375,-0.009525641798973083
1746229667515538000,6.854537841796875,-0.20328873795043895,-0.019842535257339478,-0.10306612455975937,-0.03607282042503357,-0.03129422119262855,0.9890145598686542,-0.04195147472482884,right,-0.00879371166229248,0.20819290495399875,-1.9371254161655902,-9.397306398043035,0.10123279552247408,-0.08316895365715027,-0.0030142515897750854,-2.026957662782073,0.002392977476119995
1746229667555538000,6.894537841796875,-0.2061075269753238,0.01374237984418869,-0.10447398345521877,-0.10499214380979538,-0.03157569943820517,0.9889797322115242,-0.042462728740444114,right,-0.009410619735717773,0.20591661309562762,-1.9645457764022052,-9.396301020392775,0.10003582972252195,-0.058343127369880676,-0.0008596926927566528,-2.0051115955464542,0.00876571238040924
1746229667595538000,6.934537841796875,-0.20888762390038937,-0.02500636875629425,-0.10589726527931835,-0.07214392721652985,-0.03219776831441937,0.9888502242701658,-0.043505361585096,right,-0.00793468952178955,0.20527701092219108,-1.9909264183275401,-9.392055637907982,0.09962026938779768,0.007802151143550873,0.0018487125635147095,-1.9989713392257689,0.006274774670600891
1746229667635538000,6.974537841796875,-0.21076853844198062,0.0012418441474437714,-0.10685778295440189,-0.04602859169244766,-0.03259027005365802,0.9886566392169764,-0.04393845419677279,right,-0.00937032699584961,0.2069323354696757,-2.007893481349945,-9.38504546688497,0.10038551154255929,0.06603675335645676,-0.00015769898891448975,-2.014860982275009,0.0016085803508758545
1746229667675538000,7.014537841796875,-0.2073170611742325,-0.040427323430776596,-0.10527557040191035,0.045256100594997406,-0.03359215871986534,0.9884806483171601,-0.045685630823100586,right,-0.01408839225769043,0.21312865990094437,-1.9728816430710254,-9.379522319549322,0.10341423158411182,0.16799837350845337,-0.007444784045219421,-2.0742907841041682,-0.010052427649497986
1746229667715537700,7.05453759765625,-0.20836232819739348,0.005226206034421921,-0.105813584342859,-0.1008693054318428,-0.0338348885735664,0.9882138235081994,-0.04567070661763825,right,-0.018837928771972656,0.21701383692313908,-1.9810025518149137,-9.369499522706866,0.10531834248015172,0.0483127161860466,-0.001268625259399414,-2.111513576430827,0.00040368735790252686
1746229667755538000,7.094537841796875,-0.21474371572317139,-0.010338297113776207,-0.10896196740202085,-0.19533896446228027,-0.034131324148368954,0.9879241977222003,-0.045693318000623644,right,0.0003311634063720703,0.2160413082944901,-2.0411888710998,-9.358669501134752,0.10472798120017932,-0.0668792799115181,0.009082674980163574,-2.1021989278577267,0.006512299180030823
1746229667795538000,7.134537841796875,-0.2184960701485167,-0.14995598793029785,-0.11101827267735957,-0.011048689484596252,-0.03626264199088253,0.9877597274300848,-0.049836261694227,right,0.01802581548690796,0.2139400820212944,-2.077244373212755,-9.355236019554734,0.1033956722390367,-0.031839143484830856,0.008913636207580566,-2.082067409455031,0.002893596887588501
1746229667835538000,7.174537841796875,-0.21890322418082234,-0.102211132645607,-0.11148997582331045,-0.048471275717020035,-0.038900980037381405,0.9877039384523165,-0.05527202045752097,right,0.007197737693786621,0.21266935826480082,-2.0816260954283177,-9.356964450782536,0.10245769123549972,-0.06345108151435852,-0.0016412287950515747,-2.069888311361521,0.008490517735481262
1746229667875538000,7.214537841796875,-0.22199189476705414,-0.03793879598379135,-0.11314340104846168,-0.09436607360839844,-0.04038450246467453,0.9876333182590792,-0.05828303130195849,right,0.004832625389099121,0.20965503353121098,-2.111880948438495,-9.356533658149838,0.10073780216931148,-0.09448590874671936,0.0029141604900360107,-2.0409844345688817,0.011175915598869324
1746229667915538000,7.254537841796875,-0.2189185784077307,-0.11721885204315186,-0.11189986621317285,0.05456237494945526,-0.04291766902101949,0.9876889682203935,-0.06371760302934926,right,-0.007516384124755859,0.20973131425228173,-2.0830815549336372,-9.362828374379873,0.100533747416269,-0.01218751072883606,-0.014127805829048157,-2.041716109844297,-0.0053516775369644165
1746229667955538000,7.294537841796875,-0.21530470845803282,-0.07142367959022522,-0.11036088056636273,0.00721440464258194,-0.04505368554167307,0.9876989761435636,-0.0682330847013218,right,-0.014285147190093994,0.21142581912647165,-2.04848984176293,-9.3669019074291,0.1011997879278273,0.022468972951173782,-0.013870403170585632,-2.0579664028994737,-0.007559239864349365
1746229667995537700,7.33453759765625,-0.2163719136358467,-0.01331617683172226,-0.11099383270277652,-0.1055346131324768,-0.046092994582701885,0.9875530040246382,-0.07014479567069182,right,-0.009656250476837158,0.2122228465001225,-2.0581322609856723,-9.363105437755584,0.10146357642126193,-0.024005252867937088,-0.006467476487159729,-2.0656078575633465,-0.0014645755290985107
1746229668035538000,7.374537841796875,-0.2202332398948933,0.0644759014248848,-0.11288860018558222,-0.09089203923940659,-0.046245428524050086,0.9873999864378864,-0.07018272578691792,right,0.0014559626579284668,0.21104597953156137,-2.0948004881694913,-9.357454280126094,0.10079077643009948,-0.02299107424914837,-0.0075049251317977905,-2.054324247004837,-0.009901851415634155
1746229668075538000,7.414537841796875,-0.22338991834349892,0.14771617949008942,-0.11423457724850375,-0.08176803588867188,-0.044348957807616364,0.9873398996244517,-0.06607099576441372,right,-0.0024718046188354492,0.21056510611485424,-2.1245470993965863,-9.351756945267319,0.10071515845977821,0.009816354140639305,-0.005674153566360474,-2.049712953817099,-0.01235787570476532
1746229668115538000,7.454537841796875,-0.22696216619147241,0.05312873423099518,-0.1157800694835273,-0.057065755128860474,-0.042445682045270064,0.9872966904941505,-0.06200290494265628,right,-0.0013649463653564453,0.2091908255667969,-2.1585721185952425,-9.346844038784504,0.10019263102334137,-0.03841695189476013,-0.0021012872457504272,-2.0365315468132494,-0.005154803395271301
1746229668155538000,7.494537841796875,-0.22745996350344855,0.002871379256248474,-0.11602532154934608,-0.01439165323972702,-0.04251288395596753,0.9873284241067788,-0.062224136113441984,right,0.0025302767753601074,0.20796922134850418,-2.1637840080246327,-9.348184931999445,0.09956573729477972,-0.04337096959352493,-0.004906505346298218,-2.0248112984031437,-0.00738699734210968
1746229668195538000,7.534537841796875,-0.22543414625080302,-0.02867875248193741,-0.11511261537772235,0.014774003997445107,-0.04328114589998324,0.9874100439011627,-0.0639895690866937,right,-0.008264243602752686,0.20792343899193497,-2.1448625960640606,-9.352639573320745,0.099484555785315,-0.03110341727733612,-0.011214882135391235,-2.024372030203044,-0.004596531391143799
1746229668235537700,7.57453759765625,-0.2254554010171089,-0.04800437018275261,-0.11521074678837889,-0.03892441838979721,-0.04422874617654395,0.987443988328313,-0.06607367070664066,right,-0.002854466438293457,0.20640425994076134,-2.145746393161267,-9.35558088746965,0.09861347246542601,-0.08155392110347748,-0.005713120102882385,-2.0097925929695366,0.004472836852073669
1746229668275538000,7.614537841796875,-0.2262148711296538,-0.10991963744163513,-0.11573627878274712,-0.0017019882798194885,-0.04592106783430346,0.9874457172456966,-0.06969092434897262,right,0.006225407123565674,0.20399513676888334,-2.1539308686606584,-9.358639690518379,0.09719712412530676,-0.06687585264444351,0.0025647133588790894,-1.9866627695336936,0.012243509292602539
1746229668315538000,7.654537841796875,-0.22527750850297815,-0.062393009662628174,-0.11544879925724648,0.03226349130272865,-0.047707841566774725,0.98744708176824,-0.07347677678667394,right,0.006399691104888916,0.20331298885243324,-2.1454596851743757,-9.361973218855262,0.09666318413063678,0.003185585141181946,0.002218976616859436,-1.9801114481940865,0.006930693984031677
1746229668355538000,7.694537841796875,-0.22343379729401916,-0.023753292858600616,-0.11461638950672996,0.04257960617542267,-0.0483602780697251,0.9874820443574615,-0.07490259906648826,right,-0.0036750435829162598,0.20401439756096584,-2.1278870574742554,-9.364556221085786,0.09697205961943942,0.021910402923822403,-0.0010596364736557007,-1.9868477707117795,0.003394514322280884
1746229668395538000,7.734537841796875,-0.22350763887099573,0.03436318039894104,-0.1146481822425834,-0.018610559403896332,-0.04826198297884625,0.9874471126173383,-0.0746189791304739,right,0.0023159384727478027,0.20472715155358825,-2.1282640740931034,-9.363016005906463,0.09733874217966186,0.03660514950752258,0.001098141074180603,-1.993692083648592,-0.0012945830821990967
1746229668435538000,7.774537841796875,-0.22543110550495318,0.12584511935710907,-0.11543312160175007,-0.04279819130897522,-0.04662383292519416,0.9873717062687566,-0.07100669567281565,right,-0.007169783115386963,0.205681005725584,-2.145843423794955,-9.357047452890873,0.0979722167476715,0.04399846866726875,-0.004153430461883545,-2.002849934224784,-0.004240497946739197
1746229668475537700,7.81453759765625,-0.22800372073526978,0.1119278073310852,-0.11644474341952443,-0.02303287573158741,-0.044112951718542924,0.9873068820798327,-0.06558389770591494,right,0.002128899097442627,0.20641100703161036,-2.169577350603789,-9.350068846049904,0.09858888840928164,0.04904269427061081,0.0015929043292999268,-2.0098573287688195,0.0007448643445968628
1746229668515538000,7.854537841796875,-0.22843912687809942,0.049649566411972046,-0.11648922191572175,0.012800382450222969,-0.04239295712853466,0.9873111919672527,-0.06195348603011398,right,0.0016657114028930664,0.2073324109866542,-2.1732279820658267,-9.34731574794948,0.0992460802265918,0.012907609343528748,0.0002180635929107666,-2.0187005604378876,0.001928076148033142
1746229668555538000,7.894537841796875,-0.22808325065416463,-0.051439471542835236,-0.11633037327893589,-0.016742512583732605,-0.04257759303327447,0.9873671865200186,-0.06245989080522566,right,-0.0022426247596740723,0.20646463828278608,-2.170296604789048,-9.349791782674194,0.09879545286211745,-0.06311963498592377,-0.0012893974781036377,-2.010372146423161,0.0033985525369644165
1746229668595538000,7.934537841796875,-0.22847216898011083,-0.11765216290950775,-0.11668943083536792,-0.0028556883335113525,-0.04440825965061393,0.9874028017688989,-0.06643557779439295,right,0.0038099288940429688,0.20371524232739632,-2.1751764857850966,-9.354294939312338,0.09719700344424709,-0.08820787072181702,0.00032617151737213135,-1.9839748456239699,0.006910085678100586
1746229668635538000,7.974537841796875,-0.22737706352464243,-0.10040648281574249,-0.11634853941026611,0.03170593082904816,-0.046527229762224294,0.987472687774588,-0.07107181012222258,right,0.0021085143089294434,0.201577446140668,-2.165882295478135,-9.36078254776597,0.09589548000170002,-0.06881090253591537,-0.0018463730812072754,-1.963439130334556,0.005153447389602661
1746229668675538000,8.014537841796875,-0.22557026031134256,-0.07992210984230042,-0.11565122719993294,0.008996590971946716,-0.04860429125892126,0.9875681665349423,-0.07566523596953474,right,-0.0008491277694702148,0.19964759154919637,-2.149809258686006,-9.36835619789064,0.09471834410942027,-0.06692963093519211,-0.003923162817955017,-1.9448932736881077,0.003177464008331299
1746229668715537700,8.05453759765625,-0.22420745772532835,0.02163749933242798,-0.11503787468202499,0.043184079229831696,-0.049217897860053844,0.9876449511754439,-0.07710935925963266,right,0.0021645426750183105,0.19899644210859885,-2.1373210946433243,-9.372509810438752,0.09434657283218656,0.01602265238761902,-0.007330954074859619,-1.9386342132933436,0.002846464514732361
1746229668755538000,8.094537841796875,-0.22202952516138078,0.010879291221499443,-0.11394344147923355,0.06445913016796112,-0.04878753004111127,0.9877118683594265,-0.07628342334382654,right,-0.0022765398025512695,0.2005065847458838,-2.116256240913272,-9.374276235589384,0.09519362879787868,0.06397312879562378,-0.007709935307502747,-1.9531490608580409,0.0026053637266159058
1746229668795538000,8.134537841796876,-0.22052925535894002,0.00606805644929409,-0.11318021548771139,0.03683725371956825,-0.0483208168897719,0.9877183693294063,-0.07527069295709687,right,0.0015731453895568848,0.20249258064668837,-2.1013373425923287,-9.373636768642067,0.09626918515290134,0.04332392290234566,-0.004791036248207092,-1.9722310702078043,0.007476553320884705
1746229668835538000,8.174537841796875,-0.22023030920467473,-0.031001904979348183,-0.11305237442786328,-0.01862597092986107,-0.04844827099827097,0.9876909762317279,-0.07547771587672067,right,-0.003063499927520752,0.20324371488335108,-2.098210735004395,-9.372816684430838,0.09663597068585177,-0.0012024976313114166,-0.0036574900150299072,-1.9794461161531507,0.0063403695821762085
1746229668875538000,8.214537841796876,-0.22164318551500975,-0.05835936963558197,-0.11382964130857155,-0.02304111048579216,-0.04936496817490519,0.9875891940309641,-0.07723978480443278,right,0.0014668107032775879,0.2028353266942869,-2.1116288733735677,-9.370630572563408,0.09629962810052883,-0.008112046867609024,-0.001100391149520874,-1.975523389751464,0.006582245230674744
1746229668915538000,8.254537841796875,-0.22009727814516672,-0.010939493775367737,-0.11319267599966998,0.08045230805873871,-0.050414931214814815,0.9875255959332067,-0.07931540561382898,right,0.0061002373695373535,0.20472607110726754,-2.0963209757350385,-9.370221991762518,0.09715482718641195,0.10045453906059265,-0.011803120374679565,-1.9936817083850502,-0.005539700388908386
1746229668955538000,8.294537841796876,-0.2165525762068252,0.12807340919971466,-0.11133415212112123,0.12427128851413727,-0.04872590376431191,0.9875382523176159,-0.07570392629133525,right,0.0034758448600769043,0.20988274518290884,-2.060856863643974,-9.367428561651707,0.09999385074449353,0.18587377667427063,-0.008926868438720703,-2.0431685006096956,-0.009733378887176514
1746229668995537700,8.33453759765625,-0.21453540844395738,0.1330566257238388,-0.11002785316588724,0.04797079414129257,-0.04525910531205454,0.9875371480031407,-0.06834413075710498,right,-0.00747305154800415,0.2151135906686275,-2.0396537704870106,-9.360995898255705,0.10303353061203804,0.12155409902334213,0.002968117594718933,-2.0933117109164594,-0.005630165338516235
1746229669035538000,8.374537841796876,-0.21328440614658187,0.12451137602329254,-0.10914272141842812,0.10466592013835907,-0.042492182156604566,0.9875413465318755,-0.06251251596485412,right,0.004165053367614746,0.21857821509105635,-2.026394183680415,-9.356395710983872,0.10509254252465466,0.11976277828216553,0.0017580389976501465,-2.126492388245463,-0.013403922319412231
1746229669075538000,8.414537841796875,-0.21037403859205747,0.081478551030159,-0.1074224465105689,0.10323526710271835,-0.039597160587141016,0.9876362115709854,-0.05662577613713288,right,0.0031213760375976562,0.22184413865144845,-1.9976941588968038,-9.35541196064353,0.10708482079524739,0.08549177646636963,0.0038724541664123535,-2.157746773687005,-0.010433986783027649
1746229669115538000,8.454537841796874,-0.21039817547214368,0.059100791811943054,-0.10727000173982011,-0.03248264640569687,-0.03808727431203792,0.9877053641364029,-0.05358635384799008,right,0.0010746121406555176,0.22164269737061237,-1.998010677500069,-9.355788392740488,0.10714793895759303,-0.04703649878501892,0.0023929178714752197,-2.1558196050167084,-0.0030637383460998535
1746229669155538000,8.494537841796875,-0.21234691944970716,0.002017676830291748,-0.10819613747195486,-0.07185253500938416,-0.037902873132875645,0.9877590241956133,-0.05328443345881032,right,-0.0030301809310913086,0.21891378804970554,-2.017471310903877,-9.35759339633584,0.10577862060224472,-0.09632940590381622,-0.0010734498500823975,-2.1297047744207083,-0.0006128847599029541
1746229669195538000,8.534537841796874,-0.21533734371680877,-0.02525639347732067,-0.10974035977630937,-0.09365382045507431,-0.038764539716544824,0.9877559733831512,-0.05507856719138291,right,-0.000811159610748291,0.21540050855221599,-2.0470316057786344,-9.35877003889978,0.1038873137902913,-0.09760291129350662,-0.001023814082145691,-2.096060571233183,0.001719832420349121
1746229669235537700,8.57453759765625,-0.21806109581679486,-0.028250323608517647,-0.11115986575616257,-0.07669400423765182,-0.03969872601812131,0.9877429123254569,-0.05702681966329297,right,-0.0003224611282348633,0.21217971739780794,-2.0739646208897233,-9.359702351313828,0.102134584473937,-0.08304750174283981,-0.0004168003797531128,-2.0651944544568654,0.0006968975067138672
1746229669275538000,8.614537841796874,-0.21999913899434229,0.012214122340083122,-0.11216089128640121,-0.04132512956857681,-0.04028156497916559,0.9877159273307943,-0.058215823632759296,right,0.0026294589042663574,0.2102327660357133,-2.092973711133748,-9.359571418410539,0.10106727480555966,-0.022634755820035934,-0.0032928884029388428,-2.0465257020831107,-0.003786414861679077
1746229669315538000,8.654537841796875,-0.22012216109515112,0.05931531637907028,-0.11217114319688427,0.007028874009847641,-0.039779431837085856,0.987702593697736,-0.05713019689451107,right,0.0007244348526000977,0.21075621748601997,-2.093890972109139,-9.358267350074648,0.10138438272708282,0.03408685699105263,-0.004175364971160889,-2.051545576071739,-0.002487272024154663
1746229669355538000,8.694537841796874,-0.21978537905080428,0.07021220773458481,-0.11186521121432424,0.03192197531461716,-0.038380777852661196,0.9877204151012318,-0.05421709283916652,right,0.0007025003433227539,0.21183234124121647,-2.0902565611295403,-9.356811890569329,0.10208591649461936,0.039200711995363235,-0.0022898465394973755,-2.061864140990376,0.0009431689977645874
1746229669395538000,8.734537841796875,-0.21909164385046803,0.040891215205192566,-0.11138947986913227,0.030627353116869926,-0.03704628539806632,0.9877636299610257,-0.05149380807467857,right,0.0013499259948730469,0.21269924774938434,-2.083375715574622,-9.356511446318029,0.10267939914839219,0.01716803014278412,0.0020368248224258423,-2.0701747270874677,0.0030968040227890015
1746229669435538000,8.774537841796874,-0.21805357611564827,-0.017167679965496063,-0.11085637117378642,0.023366278037428856,-0.036797303372314745,0.9878311207342568,-0.051102759807201664,right,-0.002792060375213623,0.21265107910881506,-2.073683465860784,-9.35876653176844,0.10269648641541623,-0.012199979275465012,-0.0014699101448059082,-2.0697129547946154,0.0009341686964035034
1746229669475537700,8.81453759765625,-0.21728392215470796,-0.042725224047899246,-0.11054165307091074,0.012951710261404514,-0.03739503212354882,0.9878735354010542,-0.052441404031627295,right,0.0013905167579650879,0.21219503121554867,-2.066683085579425,-9.361280560415983,0.10241128025353015,-0.020808689296245575,0.0018322616815567017,-2.0653413155816494,-0.00009450316429138184
1746229669515538000,8.854537841796875,-0.21774010977075903,-0.014530222862958908,-0.11081122745863178,-0.027339283376932144,-0.03787189199631278,0.9879009777654938,-0.05350314313091794,right,-0.0015648603439331055,0.2108469634125853,-2.0715528835728763,-9.363046401044725,0.10167766012186082,-0.04993842542171478,-0.0002025514841079712,-2.05241578303501,-0.0037833750247955322
1746229669555538000,8.894537841796875,-0.21969826065615344,-0.001377762295305729,-0.11180247380710374,-0.052445851266384125,-0.038264027672920836,0.9879185068136392,-0.054383871779026566,right,0.00416409969329834,0.2081646123333675,-2.091075476296991,-9.364311890935896,0.10026558698510678,-0.07472081482410431,0.001939624547958374,-2.0266861523643134,-0.005170613527297974
1746229669595538000,8.934537841796875,-0.22143790632248536,-0.030448902398347855,-0.11272750005954936,-0.07790043205022812,-0.039082900257054756,0.9879469801987549,-0.056196278732048556,right,-0.0010789036750793457,0.20510836747251784,-2.1087134243182835,-9.366658746322988,0.09861957458096379,-0.11758192628622055,0.0004974603652954102,-1.997352213591337,-0.002659142017364502
1746229669635538000,8.974537841796876,-0.22412422941901317,-0.013698648661375046,-0.1141312754004596,-0.05269576609134674,-0.04014607339754925,0.98798816157874,-0.05859004705152369,right,0.006946861743927002,0.20046208765600323,-2.1359072823226453,-9.369907518985867,0.09613391562014548,-0.12026103585958481,-0.0005332082509994507,-1.9527214830957351,0.0012052655220031738
1746229669675538000,9.014537841796875,-0.22540705851569257,0.008365152403712273,-0.11476892472433384,-0.018491629511117935,-0.04039797223253201,0.9880925933344409,-0.05939586174700873,right,0.004137277603149414,0.1966472663992066,-2.149574719277769,-9.374352223435043,0.09417612063352176,-0.07298298180103302,-0.002520427107810974,-1.9160459493882953,-0.0011214464902877808
1746229669715537700,9.05453759765625,-0.22555168432050282,0.06475939601659775,-0.11477957110920273,0.012164546176791191,-0.039824558949807846,0.9881784935965461,-0.05838402608667727,right,0.00048482418060302734,0.19517484005688696,-2.1515591710932553,-9.37678091188669,0.09350333367707164,0.006455771625041962,-0.002918735146522522,-1.901882545609772,-0.0027917325496673584
1746229669755538000,9.094537841796875,-0.2259324797196969,0.19779860973358154,-0.11471983391992935,0.014099677093327045,-0.03721468161279147,0.9882365670609091,-0.053013855124198817,right,-0.0028911232948303223,0.19564473539350544,-2.154929232048243,-9.375088721016049,0.0940364345987709,0.07382873445749283,-0.0027485042810440063,-1.9064029456436633,0.00003337860107421875
1746229669795538000,9.134537841796876,-0.22896853749325158,0.35003238916397095,-0.11568018941263702,-0.06511802971363068,-0.03171144670274915,0.9882014773495486,-0.04145234741170644,right,-0.003238499164581299,0.19683406712941168,-2.182866309635341,-9.366288159444927,0.09523803967755559,0.09148374199867249,-0.010641142725944519,-1.917842477416247,-0.0035622715950012207
1746229669835538000,9.174537841796875,-0.23460891825321478,0.24736332893371582,-0.11783468538825928,-0.07140324264764786,-0.025428895207384325,0.9880787822667663,-0.02823227688757029,right,0.0029588937759399414,0.19647782906018807,-2.2358194627963006,-9.354491338667273,0.09575316020452292,0.04587450623512268,0.0005652904510498047,-1.914416302359849,0.011230036616325378
1746229669875538000,9.214537841796876,-0.23633048900088416,0.00005093216896057129,-0.11844237500453801,0.03770458698272705,-0.023009345158803263,0.9880384600989437,-0.023167797324358502,right,0.013842403888702393,0.19647625570218505,-2.2519212872914967,-9.350631156107783,0.09603069374302753,0.013019856065511703,0.0020338594913482666,-1.9144011047907172,0.023919060826301575
1746229669915538000,9.254537841796875,-0.2300419546139649,-0.32828301191329956,-0.11569683256516229,0.10544341802597046,-0.02649221198826909,0.9882368125214758,-0.030649673820428814,right,-0.009365856647491455,0.1980295821885695,-2.192394600959122,-9.361700831654668,0.09643825917408004,-0.0670136958360672,-0.004505828022956848,-1.9293387078121302,0.012919709086418152
1746229669955538000,9.294537841796876,-0.2245076187045871,-0.50766921043396,-0.11385063926560678,-0.027778714895248413,-0.03541942816520193,0.9883954612387206,-0.0495488200696239,right,-0.008878231048583984,0.19535280466728763,-2.141692587725818,-9.378692298465966,0.0941159684108083,-0.26072636246681213,-0.004899084568023682,-1.9035946102246641,0.008268609642982483
1746229669995537700,9.33453759765625,-0.22110776655865136,-0.42884108424186707,-0.11318012509997423,-0.02721799723803997,-0.046464996655302855,0.9884321028203525,-0.07292641893691906,right,0.00032460689544677734,0.18882017314785157,-2.112476283983141,-9.397851756966114,0.08962797751146251,-0.23295685648918152,-0.019297540187835693,-1.8407096995055674,-0.008141249418258667
1746229670035538000,9.374537841796876,-0.21807146333723648,-0.11558026075363159,-0.11217146838875296,0.060177214443683624,-0.05205696440333285,0.9884243452179957,-0.08476049063376233,right,0.011048555374145508,0.186506388058218,-2.0848476878233253,-9.408355615323782,0.08789160053496209,-0.011934086680412292,-0.013632655143737793,-1.8184176420681177,-0.01032121479511261
1746229670075538000,9.414537841796875,-0.2168770761837743,0.19269627332687378,-0.11150822285343893,0.019526846706867218,-0.05100955631531618,0.9884763191654791,-0.08259514176360563,right,-0.0003936886787414551,0.18795763035150992,-2.0730390304774047,-9.408251570427417,0.08876131551487995,0.09951499104499817,-0.01184779405593872,-1.8324007208436726,-0.01395706832408905
1746229670115538000,9.454537841796874,-0.21714497401449379,0.22773988544940948,-0.11123466482659523,0.09379609674215317,-0.046212825006527285,0.9885422096573203,-0.07251376080045578,right,0.005945324897766113,0.19130151710735926,-2.0742276557400823,-9.401659917077422,0.09097026510911274,0.150401771068573,-0.00014007091522216797,-1.8646052466168999,0.002448141574859619
1746229670155538000,9.494537841796875,-0.21460750170185594,0.09021581709384918,-0.10966894134841026,0.12153597176074982,-0.04250824865633297,0.9886908233629622,-0.06491702809269496,right,-0.006266891956329346,0.19452244549178338,-2.049074948174506,-9.400976610988378,0.09303936859888179,0.07739477604627609,0.001451447606086731,-1.8956058034278451,0.0028082281351089478
1746229670195538000,9.534537841796874,-0.2105261927401363,-0.06712141633033752,-0.10764525824896658,0.10270396620035172,-0.04217322684549564,0.9888572129894149,-0.06449220014793891,right,-0.0005617737770080566,0.19580425767117307,-2.0101802771128714,-9.406876774942875,0.09378299975872176,0.009816929697990417,0.0020546764135360718,-1.907937461734563,0.003344327211380005
1746229670235537700,9.57453759765625,-0.20854126942824705,-0.028521906584501266,-0.10675818276928026,-0.00537465512752533,-0.04311471853787715,0.9889458168451682,-0.06664112064468128,right,0.00250399112701416,0.19524611418920385,-1.991724582967907,-9.411889050146938,0.09343397671139622,-0.03226286172866821,0.0021740347146987915,-1.9025681897863744,-0.0010785609483718872
1746229670275538000,9.614537841796874,-0.20951105241750148,-0.04982202127575874,-0.10728615735744645,-0.027976300567388535,-0.043818048498848745,0.9889576964068806,-0.0681697944729551,right,0.0030962228775024414,0.19330404090085795,-2.0016158623851834,-9.413549092313646,0.09237012915021052,-0.058296989649534225,0.004920333623886108,-1.8838813172340392,0.0029620379209518433
1746229670315538000,9.654537841796875,-0.20902803068513892,-0.11038926243782043,-0.10719102036376489,0.03646952286362648,-0.045467945993420154,0.9889806342129884,-0.07170707279189657,right,0.0077738165855407715,0.1917718146992758,-1.9976652250632643,-9.417327441808581,0.09143304219195159,-0.04540666937828064,0.008130475878715515,-1.869132953174412,0.006191328167915344
1746229670355538000,9.694537841796874,-0.2079405446145132,-0.03206773102283478,-0.1067745706871116,0.013486066833138466,-0.046838935082373134,0.9890249028018782,-0.07469237234688801,right,0.003587663173675537,0.19065791665705767,-1.9878513947963714,-9.421526062542199,0.09074721785115485,-0.028079086914658546,0.001898542046546936,-1.8584084378033876,0.0021200478076934814
1746229670395538000,9.734537841796875,-0.20868414568077645,0.05946028232574463,-0.10708111682313239,-0.018940100446343422,-0.046292029198269705,0.9890549286252878,-0.07361014748058696,right,0.0007331967353820801,0.18974945316133573,-1.9952057030819355,-9.421692651280761,0.09033818115136542,-0.0008571427315473557,0.005522549152374268,-1.8496600448109208,0.002479463815689087
1746229670435538000,9.774537841796874,-0.20953539029059728,0.05165703222155571,-0.10739614894997483,0.011287011206150055,-0.04520507158648949,0.9890790285807818,-0.07137304823616274,right,0.0020819902420043945,0.18936966598439228,-2.0033711816199125,-9.420677336758375,0.09025070821651307,0.015493854880332947,0.004335358738899231,-1.8460023990862071,-0.00036291778087615967
1746229670475537700,9.81453759765625,-0.20663294584722314,0.07598908245563507,-0.1058932406208885,0.07344801723957062,-0.044191705351398054,0.9891941338922086,-0.06941838837586217,right,-0.001598060131072998,0.1910708573085865,-1.9753725831039248,-9.423364968407153,0.09126174576840335,0.06553521752357483,-0.0010248124599456787,-1.862384501827508,-0.005271896719932556
1746229670515538000,9.854537841796875,-0.20431970686763484,0.12154918164014816,-0.10458413153805832,0.02116772159934044,-0.042173367385934614,0.9893167125195982,-0.0653776593596094,right,-0.009536504745483398,0.19282221297660165,-1.9529040000557898,-9.424701185446978,0.09239115844098923,0.03963865339756012,-0.0014644712209701538,-1.8792440128222108,-0.005503341555595398
1746229670555538000,9.894537841796875,-0.20463704468376737,0.029796048998832703,-0.10459135686468925,-0.028151042759418488,-0.04063853202268038,0.9894043877526113,-0.06232847703935715,right,-0.010511398315429688,0.19198742369563557,-1.9562128323428332,-9.425613624116778,0.0921308329747303,-0.057460300624370575,0.003268226981163025,-1.8712085904046891,0.002255544066429138
1746229670595538000,9.934537841796875,-0.2056343837298068,-0.06062326580286026,-0.10512102768631222,-0.03943488374352455,-0.04127795385035315,0.989468064561973,-0.06382887827382618,right,-0.0004086494445800781,0.188986054968286,-1.966750300709158,-9.429113156670331,0.09054599350338541,-0.09697188436985016,0.0052431076765060425,-1.842307636221498,0.0022464990615844727
1746229670635538000,9.974537841796876,-0.20691466061847605,-0.0336601622402668,-0.10585346177402251,-0.04819875955581665,-0.04266941186742908,0.9894908341389986,-0.06684572109126814,right,0.0007759928703308105,0.18579733574999963,-1.9800173401698469,-9.432288864096998,0.08878141626392348,-0.06593377888202667,0.0023353397846221924,-1.8115844350472092,-0.0023145675659179688
1746229670675538000,10.014537841796875,-0.20855233222116698,0.06819270551204681,-0.10662732418297759,-0.045936569571495056,-0.042466129289181635,0.9894894785649576,-0.0664526893213386,right,-0.0036696791648864746,0.18417539591175955,-1.996067434477806,-9.431896065387129,0.08796447164519257,-0.016725163906812668,0.0029693245887756348,-1.7959499358028173,0.001722097396850586
1746229670715537700,10.05453759765625,-0.21116582198693806,0.09799297153949738,-0.10775755331652206,-0.055573057383298874,-0.04081967010750997,0.9894672071032564,-0.06299189118277553,right,-0.0030132532119750977,0.1832081875549308,-2.0210738654404876,-9.428341003254056,0.08761672189571999,-0.0026046521961688995,0.0030364245176315308,-1.7866244735747574,0.00009754300117492676
1746229670755538000,10.094537841796875,-0.2136493959779861,0.07120710611343384,-0.10883096501921596,-0.05137795954942703,-0.039225939428781505,0.9894385186884883,-0.05963629529185752,right,0.0017755627632141113,0.1823854800139477,-2.044794640506804,-9.424725735366344,0.08734145898545106,-0.0036785812117159367,0.002782583236694336,-1.778690904096514,-0.0027660131454467773
1746229670795538000,10.134537841796876,-0.21505315849943618,0.041435856372117996,-0.10942983621650558,-0.028738228604197502,-0.03823284577887537,0.9894262655641383,-0.05755928937479035,right,0.000528872013092041,0.18186907679544448,-2.058218331833929,-9.422742452594637,0.08717198893786149,-0.005933399312198162,-0.0017617791891098022,-1.7737104853354393,-0.003015667200088501
1746229670835538000,10.174537841796875,-0.21629124027697666,0.01603948138654232,-0.10999866181298268,-0.03714287281036377,-0.0378150529832766,0.9893970816409512,-0.05665474631441103,right,-0.0019869208335876465,0.18140597188663482,-2.0700589917533097,-9.420988302403687,0.0869688446318918,-0.012364636175334454,-0.002377837896347046,-1.7692435690544546,0.0006179511547088623
1746229670875538000,10.214537841796876,-0.2174644115942143,0.028093740344047546,-0.11054543159397277,-0.021027620881795883,-0.03750153469792561,0.9893621280107089,-0.05595569413804854,right,0.0009769797325134277,0.1810510893578593,-2.0812452794171867,-9.419165763151645,0.0868096374600032,-0.002545328810811043,-0.002567112445831299,-1.7658204627379774,0.007554054260253906
1746229670915538000,10.254537841796875,-0.2183452034599562,0.015267061069607735,-0.11093033626853381,-0.020037733018398285,-0.036966050725374226,0.9893399174532655,-0.05480793925193012,right,-0.001993238925933838,0.18093861164175215,-2.0895839225649833,-9.417522672119736,0.08680112146859865,-0.0016788265202194452,-0.00394006073474884,-1.7647354439802467,0.005233362317085266
1746229670955538000,10.294537841796876,-0.21955840424765016,-0.026757827028632164,-0.11154836516335381,-0.038554105907678604,-0.03723995963790554,0.9892803951655964,-0.055294735606621,right,-0.00040036439895629883,0.18057228738252132,-2.1011483958914874,-9.415610701018572,0.08657023479587779,-0.014076127670705318,-0.0023026317358016968,-1.761201570765674,0.0025061070919036865
1746229670995537700,10.33453759765625,-0.22056438530770017,-0.020990176126360893,-0.11209948359686708,-0.02244788594543934,-0.03791900300846285,0.9892206714269975,-0.05663016553078811,right,0.0017955303192138672,0.1801050045646124,-2.110798998420685,-9.414294357722998,0.08624540718482886,-0.010580535978078842,-0.0038332492113113403,-1.7566932995609938,0.0017888247966766357
1746229671035538000,10.374537841796876,-0.22092597175811166,-0.009605314582586288,-0.11230818484242246,-0.0045432597398757935,-0.0382777227889153,0.9891876413361262,-0.05732504693685494,right,0.0019034147262573242,0.18009459740966482,-2.1142069071680307,-9.413548507791758,0.08619438387165743,0.006383752450346947,-0.0038625746965408325,-1.7565929079264402,0.0008733868598937988
1746229671075538000,10.414537841796875,-0.2212608132033912,-0.00999398808926344,-0.1124877478566253,-0.008858345448970795,-0.038440230245256606,0.9891529891279692,-0.05759969828590392,right,0.00025069713592529297,0.1803226393215343,-2.1172709709137676,-9.412449022117256,0.08628537889747469,0.0017786147072911263,-0.003575071692466736,-1.7587930483192205,0.002205774188041687
1746229671115538000,10.454537841796874,-0.22175860625387203,-0.008872360922396183,-0.11275322249977618,-0.006609214469790459,-0.03869048575446925,0.9891223447170966,-0.05807783006901451,right,0.0008407831192016602,0.18017974276910942,-2.1220112973086533,-9.41163887477815,0.08617814385416239,-0.004908684175461531,-0.0036851167678833008,-1.7574144534423946,0.0006738007068634033
1746229671155538000,10.494537841796875,-0.22165574869046856,-0.03465988487005234,-0.11274042234659294,0.007167520932853222,-0.039123040022389345,0.9891108949937812,-0.05896132924853226,right,0.003972053527832031,0.1801805193233878,-2.1210430367983877,-9.411855732399225,0.08613072510712767,-0.0037705940194427967,-0.0017550289630889893,-1.7574219060964882,-0.0009711533784866333
1746229671195538000,10.534537841796874,-0.22150666898489849,-0.02561897784471512,-0.11273347315948572,0.003416747786104679,-0.039886000011800246,0.9890901126153345,-0.060520787276545786,right,0.0031241178512573242,0.18014601032464678,-2.1196531898751854,-9.412230995452404,0.08602868740665383,-0.005831359885632992,-0.004231512546539307,-1.7570890208803116,-0.0015837997198104858
1746229671235537700,10.57453759765625,-0.2218440342256135,-0.03183184564113617,-0.11294754843966556,-0.03369688242673874,-0.040465586993385094,0.9890629750233323,-0.0617001036576916,right,0.0007952451705932617,0.17980844688928135,-2.1229588072918353,-9.412093632808327,0.08578833624040949,-0.030358292162418365,-0.0027654320001602173,-1.753832064910978,-0.001809626817703247
1746229671275538000,10.614537841796874,-0.22321034640808252,-0.047580067068338394,-0.11369532016207683,-0.0417131744325161,-0.04142435663377577,0.9889909630820048,-0.06362655418519418,right,-0.0013346076011657715,0.17883797718286049,-2.1361923828743397,-9.41083924883306,0.08517099715809895,-0.04040602594614029,-0.0011710822582244873,-1.7444675858467815,0.001649409532546997
1746229671315538000,10.654537841796875,-0.22473089811450592,-0.11463481187820435,-0.11458521372816154,-0.06664998829364777,-0.04323321021486264,0.9889039640698417,-0.06734150974801374,right,-0.005140364170074463,0.1771318701082543,-2.1511597965121267,-9.410468077433109,0.08408262187440659,-0.08737300336360931,-0.0007344186305999756,-1.728000727431476,-0.0009535700082778931
1746229671355538000,10.694537841796874,-0.2261619858913422,-0.14644446969032288,-0.11553943941892454,-0.07654805481433868,-0.04643647327481617,0.9887778483314197,-0.0739515407469981,right,-0.00030362606048583984,0.17484563670023165,-2.1655049865983425,-9.411205159536003,0.08253908700315035,-0.09503748267889023,0.00005780160427093506,-1.705926842789352,-0.002321407198905945
1746229671395538000,10.734537841796875,-0.22858321603460233,-0.06616483628749847,-0.11691433551809204,-0.09194023162126541,-0.048952711523162926,0.988619310123412,-0.07909850358796996,right,0.00004374980926513672,0.17252569862834438,-2.1891762234345076,-9.409763728556037,0.08103450325859908,-0.07291878014802933,-0.0009926259517669678,-1.683518319365382,-0.0013768821954727173
1746229671435538000,10.774537841796874,-0.23194283731049714,-0.05776676535606384,-0.11864465521820988,-0.08985831588506699,-0.05024702983582874,0.9884613747659363,-0.0817063982863725,right,0.0014830231666564941,0.17018868074248683,-2.221675348240137,-9.406159566584229,0.07964156611383813,-0.07995308935642242,0.002742365002632141,-1.6609356084182858,-0.0007660835981369019
1746229671475537700,10.81453759765625,-0.2341098377584196,-0.04481630399823189,-0.11980188325116332,-0.0469096377491951,-0.05172456817120376,0.988352536799579,-0.08477573171112579,right,0.0005117058753967285,0.1679630935823584,-2.2429051832735536,-9.404895245736837,0.07830255320505876,-0.06092343479394913,-0.0014677196741104126,-1.6394212573550642,-0.004464179277420044
1746229671515538000,10.854537841796875,-0.23483059493156683,0.0030077099800109863,-0.12017999683810791,-0.0016140080988407135,-0.0521916207329983,0.9883305363718389,-0.08578745275086279,right,0.0025440454483032227,0.16688228207782477,-2.250094217994809,-9.404994029936194,0.07768857342415225,-0.012506399303674698,-0.0030153393745422363,-1.6289702982284127,-0.002384856343269348
1746229671555538000,10.894537841796875,-0.23377236807882595,0.05947791039943695,-0.11961952574543346,0.04957371950149536,-0.0516160708027727,0.9884061532419616,-0.08466180578381514,right,0.004120469093322754,0.16727060779067401,-2.239993679741025,-9.40675402534604,0.07797558449423948,0.037004441022872925,-0.0035687237977981567,-1.6327254129782318,0.00019624829292297363
1746229671595538000,10.934537841796875,-0.23159064075838326,0.1341608464717865,-0.1183921827744807,0.07782568037509918,-0.0493762057697746,0.9885626444000029,-0.08007403207771599,right,0.0009882450103759766,0.16929308334800533,-2.2187029083006085,-9.408385425940155,0.07930406226671383,0.09223119169473648,-0.004374086856842041,-1.6522789853625,0.0027734339237213135
1746229671635538000,10.974537841796876,-0.2312650338356782,0.11848331987857819,-0.11799619279134094,0.004291169345378876,-0.04629716375506759,0.98867611457532,-0.07372452387772783,right,-0.00494074821472168,0.1705924047998412,-2.2151453619495034,-9.407009461411834,0.08032984919467483,0.03862370550632477,-0.001501619815826416,-1.664837438162416,0.007421135902404785
1746229671675538000,11.014537841796875,-0.23204003510760463,-0.009116202592849731,-0.11827842305680303,0.0010172033216804266,-0.045137318298072576,0.9887060590883664,-0.07137141068046911,right,0.0003896951675415039,0.17009785541733388,-2.2226243195280433,-9.406090008479357,0.08020647286875511,-0.02161508798599243,0.002085745334625244,-1.660057802670449,0.011864453554153442
1746229671715537700,11.05453759765625,-0.23235077517162772,-0.07983909547328949,-0.1184926555538754,-0.009882942773401737,-0.04603259675889847,0.9886992941961171,-0.07330060959563378,right,0.001416921615600586,0.1688365120102345,-2.2260274059697984,-9.407429148128628,0.07946120242699566,-0.038654692471027374,0.002916201949119568,-1.6478654067039489,0.005205363035202026
1746229671755538000,11.094537841796875,-0.23242287681174378,-0.0875338464975357,-0.11866736769755361,-0.021333051845431328,-0.0479277996335324,0.9886591806138648,-0.07727774459331604,right,-0.0006310343742370605,0.16752395472285964,-2.2272020027071235,-9.40936566914916,0.07857437216196758,-0.05147518217563629,-0.0026045888662338257,-1.6351752903483807,0.0014433562755584717
1746229671795538000,11.134537841796876,-0.23250596060724393,-0.03467930108308792,-0.1188069963582601,-0.007995682768523693,-0.049302637951029696,0.9886268807579122,-0.08016366566377009,right,0.0027057528495788574,0.16654395070256575,-2.2283519033946098,-9.410735203936696,0.07791620998312088,-0.020700979977846146,-0.0011985450983047485,-1.6256984369508922,0.002237170934677124
1746229671835538000,11.174537841796875,-0.23271245213670427,0.016779739409685135,-0.11891048083022918,0.009807630442082882,-0.04934100691421912,0.9886168680811838,-0.08023543934822766,right,0.0018086433410644531,0.1664521934987787,-2.2303294870778916,-9.410420146638154,0.07786145820161565,0.01906963437795639,-0.0013405382633209229,-1.6248109865918754,0.0071201324462890625
1746229671875538000,11.214537841796876,-0.23287125314766086,0.010286647826433182,-0.11895014810458346,-0.012700860388576984,-0.04875745698843582,0.9886063149509778,-0.07895779278879253,right,-0.0025290250778198242,0.16719634111131274,-2.231544269695133,-9.408886361199617,0.07830165985422491,0.02166648767888546,-0.0021980255842208862,-1.6320073278367517,0.006283611059188843
1746229671915538000,11.254537841796875,-0.23355972170511516,-0.054322924464941025,-0.11933206225115593,-0.04163336381316185,-0.04925278539933564,0.9885242402664232,-0.07985591345797906,right,-0.0009935498237609863,0.16763029416774444,-2.23785725223422,-9.406658163756132,0.07844595561567147,-0.012142585590481758,0.001418381929397583,-1.6362034643523393,0.007632806897163391
1746229671955538000,11.294537841796876,-0.23533739862657038,-0.10738097131252289,-0.12034630632853396,-0.08438035845756531,-0.05115776815017453,0.9883596844365516,-0.08366828167477827,right,-0.004387497901916504,0.1667708330906393,-2.2549027873203156,-9.404028984296321,0.07774778775046341,-0.05688604712486267,-0.005966812372207642,-1.6278925859943032,-0.0042892396450042725
1746229671995537700,11.33453759765625,-0.23792204203048936,-0.11677248030900955,-0.12180739071020556,-0.09900059551000595,-0.053799627345481695,0.9881182301282969,-0.08895457510266394,right,0.0051909685134887695,0.16554179935495583,-2.2796711717434226,-9.400106842416525,0.07675213279344241,-0.060400187969207764,-0.0027768760919570923,-1.6160058949761091,-0.008331269025802612
1746229672035538000,11.374537841796876,-0.24040388092789886,-0.10661361366510391,-0.12321152849453634,-0.059941116720438004,-0.05652731202305496,0.9878936960861243,-0.09450034115141319,right,0.008139967918395996,0.16369237832493258,-2.3037013050198554,-9.397306982564926,0.0754295206401584,-0.08160879462957382,-0.00007687509059906006,-1.598114410585165,-0.0010386854410171509
1746229672075538000,11.414537841796875,-0.24116707429052553,-0.05725741758942604,-0.12370026166193518,-0.01597246527671814,-0.058461749521666766,0.9878238847992624,-0.09861861061725173,right,0.007998168468475342,0.16147553969597872,-2.3117130543008444,-9.398962933078408,0.07405736008282454,-0.0742635503411293,0.0011629462242126465,-1.5766612881898878,0.0015016496181488037
1746229672115538000,11.454537841796874,-0.24146418165595288,0.03543417528271675,-0.1238466897281455,0.012640397995710373,-0.05884509152724342,0.9878550442236091,-0.09958679520268246,right,0.004587531089782715,0.15964964862963116,-2.315189936631173,-9.401055521443485,0.07308601685613288,-0.016552329063415527,-0.004690200090408325,-1.5589857846371828,-0.0018463581800460815
1746229672155538000,11.494537841796875,-0.2405449043425202,0.15752103924751282,-0.1232408989920244,0.09384346008300781,-0.05659972049884643,0.9880076945381695,-0.09500975982528403,right,0.007277190685272217,0.16050073690442795,-2.306229800584167,-9.4018878806144,0.07381608852152863,0.11029496788978577,-0.0018289685249328613,-1.5672253513246774,0.0008307993412017822
1746229672195538000,11.534537841796874,-0.2376221862118684,0.26424863934516907,-0.12147577870847634,0.15112346410751343,-0.05155433167812892,0.988289210858273,-0.08453038464925097,right,0.0013445615768432617,0.1647071429050645,-2.2771689796641468,-9.402097723972798,0.07661635759070567,0.2052595317363739,-0.0009761154651641846,-1.6079320402443409,0.0030905455350875854
1746229672235537700,11.57453759765625,-0.23521789464264586,0.26459723711013794,-0.11983819784799914,0.08836173266172409,-0.04513797059710432,0.988526757624083,-0.07112630502511924,right,-0.007791876792907715,0.1699996998676339,-2.2525421956688163,-9.399137705123424,0.08010078935039658,0.17998957633972168,0.006501346826553345,-1.6591091236434876,0.004927828907966614
1746229672275538000,11.614537841796874,-0.23545771932414117,0.11881241202354431,-0.11962059304264987,-0.0006193444132804871,-0.04084320188805508,0.9885984665117219,-0.06213917908393734,right,-0.006789267063140869,0.1724139092959675,-2.253855324093997,-9.394675465017556,0.08182775691832331,0.051009416580200195,0.006680920720100403,-1.6824382690437136,0.009796351194381714
1746229672315538000,11.654537841796875,-0.23649162354577377,-0.054982706904411316,-0.12007894987473258,-0.01391648780554533,-0.04029511776857273,0.9885911483108313,-0.06102875548840867,right,0.001440584659576416,0.1716909152723641,-2.263851671320945,-9.393519865241647,0.08151572880597933,-0.039003483951091766,0.005670815706253052,-1.6754527940705417,0.01086871325969696
1746229672355538000,11.694537841796874,-0.23575309013684967,-0.07343718409538269,-0.11983946537504911,0.014806755818426609,-0.04182954401814652,0.9885929558515777,-0.06425591432789612,right,0.0006191730499267578,0.1711548415173939,-2.25712309371829,-9.396061366418003,0.08107217883414186,-0.006288059055805206,-0.0055154114961624146,-1.6702727610841392,0.0007331222295761108
1746229672395538000,11.734537841796875,-0.23414136127646934,-0.03600011393427849,-0.11913021067001471,0.043287016451358795,-0.04274881490249839,0.9886048651558177,-0.06613233766573165,right,0.0037090182304382324,0.17215989557925052,-2.2415856251075863,-9.398049325364827,0.08149128534115237,0.042937539517879486,-0.001682862639427185,-1.6799841538898646,0.004540577530860901
1746229672435538000,11.774537841796874,-0.23093352367350836,-0.030380001291632652,-0.11760011927172934,0.08430856466293335,-0.04304784702959779,0.9886509650100131,-0.06666895719390839,right,-0.0022049546241760254,0.1751013697534818,-2.210286085350066,-9.4003406511724,0.08298332783884081,0.0835031270980835,-0.0060707032680511475,-1.7083963016428052,-0.0008329898118972778
1746229672475537700,11.81453759765625,-0.227348295210454,-0.06280434876680374,-0.11592718296383715,0.054251059889793396,-0.04375842669394017,0.9886574815421295,-0.06798409080442094,right,-0.0033895373344421387,0.1789067584327055,-2.175088515240699,-9.401802540418505,0.08486675552008012,0.07233419269323349,-0.007658183574676514,-1.7451314565829932,-0.005514472723007202
1746229672515538000,11.854537841796875,-0.22630211207948048,-0.08024768531322479,-0.11555075517585947,-0.021018050611019135,-0.04519324716549602,0.9885727344123142,-0.0707789796341066,right,-0.0028643012046813965,0.18069357116737605,-2.164548270395398,-9.401019281086326,0.08561214686562392,-0.004468895494937897,-0.005223453044891357,-1.7623714913278816,-0.0015515238046646118
1746229672555538000,11.894537841796875,-0.22697582456237628,-0.11042875796556473,-0.11604907137548158,-0.032036177814006805,-0.04716659774543785,0.9884574074826508,-0.07474956898642489,right,0.002969026565551758,0.18036574579849954,-2.17101118279919,-9.400121455463767,0.08520454049345864,-0.05512266978621483,-0.0014980584383010864,-1.7592089356437324,0.00036187469959259033
1746229672595538000,11.934537841796875,-0.22795821845194517,-0.1540723294019699,-0.11675350367402702,-0.05515870451927185,-0.0500384461762646,0.9883667879351345,-0.08074336423491392,right,0.002838432788848877,0.17795847430608688,-2.1811955999441444,-9.402081941881775,0.08364118147263515,-0.12339586019515991,0.0009243637323379517,-1.7359795973561702,-0.0039657652378082275
1746229672635538000,11.974537841796876,-0.22879836548991803,-0.12350448966026306,-0.11740387995602637,-0.04432416707277298,-0.05335231687945052,0.988294967494667,-0.08776181705009506,right,0.004228770732879639,0.1745114480579252,-2.1904380600638684,-9.406018112286924,0.08150374840378866,-0.1135435625910759,-0.004833430051803589,-1.7026994051754474,-0.0063279420137405396
1746229672675538000,12.014537841796875,-0.23013881080588472,-0.020042188465595245,-0.11816803918472542,-0.043718110769987106,-0.05506201069249122,0.9882368274983602,-0.0914052919447586,right,0.007367491722106934,0.1718813503811429,-2.2040582968764006,-9.407401091077924,0.07995205945078891,-0.05667528510093689,-0.004619106650352478,-1.6772928689792752,-0.006467059254646301
1746229672715537700,12.05453759765625,-0.23093867118654948,0.03554212674498558,-0.11853363634308231,0.005562197417020798,-0.05486687578128663,0.9882381735416021,-0.09104185286617474,right,0.004048645496368408,0.1710233870120757,-2.2119107639424502,-9.407032842287421,0.07952726303872597,-0.001921381801366806,-0.002514868974685669,-1.6690024488873778,-0.0066322386264801025
1746229672755538000,12.094537841796875,-0.23007536820856087,0.06267283856868744,-0.11802624924169591,0.06723416596651077,-0.05375009364907553,0.9883274180498789,-0.08879463283310281,right,0.004581868648529053,0.171530962271929,-2.2035953555397687,-9.408113038739561,0.0799346433771249,0.041999951004981995,-0.006627947092056274,-1.673907172063738,-0.010350257158279419
1746229672795538000,12.134537841796876,-0.2285301470435908,0.08968701958656311,-0.11712390621468564,0.04515286907553673,-0.05185324934487519,0.988480316902955,-0.08498686834782836,right,0.00030028820037841797,0.17238394186468348,-2.1887308177545663,-9.41011268812418,0.08062119696776347,0.009840529412031174,-0.004686310887336731,-1.6821487845778464,-0.007696390151977539
1746229672835538000,12.174537841796875,-0.22814034321712734,0.05009853094816208,-0.11678929107258511,0.026063889265060425,-0.05032700149524712,0.988652621727527,-0.0821194517561648,right,0.003351271152496338,0.17068557505817325,-2.1857056247144935,-9.413734385752678,0.07995866721107311,-0.06877169013023376,0.0003258734941482544,-1.6657378941334784,-0.001225396990776062
1746229672875538000,12.214537841796876,-0.22731508005180187,0.009385939687490463,-0.1163006079034877,0.026241272687911987,-0.04986120992363778,0.9888941689686735,-0.08170351794449625,right,0.0029148459434509277,0.1665362121716904,-2.1794749136313794,-9.422187741321325,0.0779505589439519,-0.14781060814857483,-0.0014809668064117432,-1.6256236181490122,0.00003668665885925293
1746229672915538000,12.254537841796875,-0.22552627318786686,0.0215483196079731,-0.1153597958788448,0.061229508370161057,-0.04997073090508666,0.9892321555767281,-0.08273316525068146,right,0.012863397598266602,0.16046626221435273,-2.1647836865864694,-9.435515424928068,0.07493148528829094,-0.16799437999725342,0.0020285844802856445,-1.5668917354561387,-0.000629723072052002
1746229672955538000,12.294537841796876,-0.22184409278584452,0.09508480131626129,-0.11340304996681178,0.11831201612949371,-0.04887865119003321,0.9896980589524113,-0.08138501775518783,right,0.006434440612792969,0.1551040501294586,-2.1318438322760165,-9.451482809388636,0.07244478436600463,-0.09228432923555374,0.0006718635559082031,-1.5149595959059894,0.0007615238428115845
1746229672995537700,12.33453759765625,-0.21829876360597852,0.09815854579210281,-0.111454148977228,0.098842091858387,-0.04670018318411924,0.9901437462487456,-0.07766149234761689,right,-0.0010265111923217773,0.15118408600664518,-2.0995919602297244,-9.464706448099017,0.07079727545622502,-0.0918026715517044,-0.0036360472440719604,-1.4769678650334477,0.005195334553718567
1746229673035538000,12.374537841796876,-0.21592222151541937,0.04696926847100258,-0.11012881458056614,0.04820781946182251,-0.045356346355846906,0.9905277614159882,-0.07567841163053371,right,0.003462553024291992,0.14587258503680614,-2.078744110251218,-9.477198265403509,0.0683300996684802,-0.153875932097435,-0.004240110516548157,-1.4254533663734792,0.005445346236228943
1746229673075538000,12.414537841796875,-0.21499473033634448,0.07689833641052246,-0.10954986814026241,0.004405640065670013,-0.04454946905719359,0.9908229777030239,-0.07473994685890373,right,-0.0013312697410583496,0.13992071744577875,-2.0717266327045856,-9.487243274077773,0.06545257495499399,-0.12987840175628662,-0.005670100450515747,-1.367680537971109,0.0071131885051727295
1746229673115538000,12.454537841796874,-0.21489719419308614,0.09514068067073822,-0.10935590636871749,0.03211243450641632,-0.043100711880520746,0.9910490509035063,-0.0723111541256584,right,-0.0033679604530334473,0.13528151378987902,-2.0721319986350832,-9.493542081961035,0.06328779747058987,-0.07466591149568558,-0.004955112934112549,-1.32261550771147,0.01373186707496643
1746229673155538000,12.494537841796875,-0.21276018395718888,0.1410273313522339,-0.1081355695575274,0.1055498942732811,-0.040812393449305984,0.9913226076733681,-0.06803111197208409,right,-0.0020269155502319336,0.13336160779519593,-2.0523719438932835,-9.5004131367743,0.06261337242407183,0.019940830767154694,-0.0034116506576538086,-1.3039572767317293,0.01112595945596695
1746229673195538000,12.534537841796874,-0.20911391971398552,0.1605919897556305,-0.10612570019109525,0.1076284721493721,-0.037451067112479274,0.9916326732879808,-0.061439799533147085,right,-0.005286157131195068,0.13376951093765332,-2.0176067738518118,-9.507312248638272,0.06324008784272094,0.06538856029510498,-0.003911495208740234,-1.3079217964485288,0.0033607184886932373
1746229673235537700,12.57453759765625,-0.20711232858343032,0.0947345569729805,-0.10494956242929597,0.05512503534555435,-0.03444697587888486,0.9918242042124146,-0.05544542507095213,right,-0.00312727689743042,0.1343978227179831,-1.998403622340411,-9.51052536546588,0.06390406573123349,0.03396067023277283,0.003153696656227112,-1.314028150499612,0.005939319729804993
1746229673275538000,12.614537841796874,-0.20573807523210627,-0.004807651042938232,-0.10422577729426367,0.03439564257860184,-0.03373587838242449,0.9919152122341172,-0.05408853194102038,right,-0.0037305355072021484,0.1345126746017415,-1.9853009796611965,-9.51311538195908,0.06405542822480613,0.0038431454449892044,0.005617424845695496,-1.3151442950479686,0.005727514624595642
1746229673315538000,12.654537841796875,-0.20468155890088682,0.0516480915248394,-0.10368424084836914,0.03311467915773392,-0.03339672547576795,0.991969422192617,-0.053439461390642234,right,-0.003125488758087158,0.1348447045586073,-1.9751602555274963,-9.514779515779018,0.06427163772247461,0.031641554087400436,0.002663731575012207,-1.3183708558790386,0.00043779611587524414
1746229673355538000,12.694537841796874,-0.2041671074198138,0.0718298926949501,-0.1033381132719669,0.003279212862253189,-0.03194941384954989,0.992032661711888,-0.050522936730023005,right,-0.004885315895080566,0.13516184041748755,-1.970180275157839,-9.515384495934843,0.06458834360015504,0.012022290378808975,0.006949186325073242,-1.3214526014119385,-0.0005584210157394409
1746229673395538000,12.734537841796875,-0.20402241164631169,0.029234353452920914,-0.1031969616771437,0.0221157968044281,-0.03092209540360006,0.9920895632391254,-0.04851294909319703,right,-0.0027077198028564453,0.13464885930638537,-1.9689405042298136,-9.516332005918025,0.06443985960810603,0.0034680552780628204,0.007559597492218018,-1.316467652606219,0.0015289485454559326
1746229673435538000,12.774537841796874,-0.20320893339086168,0.028695426881313324,-0.10274822242287757,0.0291385930031538,-0.030197940872825377,0.9921519122460255,-0.047102896671872514,right,0.004073739051818848,0.13467987195689576,-1.9611901823639868,-9.51789034127593,0.06454027742143477,0.01864880695939064,0.00639738142490387,-1.316769119770825,0.0016515851020812988
1746229673475537700,12.81453759765625,-0.2020166092858513,0.04871769994497299,-0.10211018564142227,0.04679987207055092,-0.029394509590965522,0.9922126628661604,-0.04549106829620149,right,0.0015454292297363281,0.1353804700620579,-1.9496547890014946,-9.519315990164875,0.06498826144431338,0.05066930502653122,0.005445599555969238,-1.3235770462200045,0.0015854686498641968
1746229673515538000,12.854537841796875,-0.20026360570161647,0.08825445175170898,-0.10113016959274625,0.06290199607610703,-0.02753918647916883,0.9922836153606797,-0.04166088465833458,right,-0.0011582374572753906,0.13745686891575903,-1.9324135852128266,-9.520005141472815,0.06623828600871992,0.09133002161979675,0.004563286900520325,-1.3437503579378127,0.0036867111921310425
1746229673555538000,12.894537841796875,-0.19832671851488504,0.09234551340341568,-0.1000377900055946,0.06708505749702454,-0.025394627302816702,0.992331062854703,-0.03716567648450664,right,-0.003319263458251953,0.14053808389994696,-1.9131459901630878,-9.51962578676641,0.06801916919096103,0.11378629505634308,0.004753708839416504,-1.3736753944717346,0.005655646324157715
1746229673595538000,12.934537841796875,-0.196437651434746,0.056904375553131104,-0.09895802082290969,0.04394647479057312,-0.02319160514590105,0.9923541520080568,-0.032513124555549916,right,-0.009426772594451904,0.1440550283537524,-1.8942047044582664,-9.518425763326883,0.07001901455239129,0.08756943047046661,0.0033976882696151733,-1.4078161490045487,0.003476768732070923
1746229673635538000,12.974537841796876,-0.1951957305380598,-0.1250886619091034,-0.09840670073768198,-0.012815583497285843,-0.024033856287604023,0.9923387065902979,-0.03414730274702699,right,-0.008667588233947754,0.1456153319409777,-1.8819537101723252,-9.518604042503236,0.07072740938561635,-0.008200474083423615,0.0025754570960998535,-1.422957311774045,0.0016150176525115967
1746229673675538000,13.014537841796875,-0.1958319541441272,-0.15427125990390778,-0.09894171381858874,-0.06927547603845596,-0.027151197814119354,0.9922362316975721,-0.04040880162458698,right,-0.00398176908493042,0.14537165223521192,-1.8880767230972646,-9.517744795325397,0.07028941055606365,-0.04645487666130066,0.002128899097442627,-1.420592920730263,0.001449689269065857
1746229673715537700,13.05453759765625,-0.1974577970764387,-0.12709128856658936,-0.09995409551098827,-0.058861806988716125,-0.030141769288576172,0.9920827258083494,-0.046355183192714734,right,0.0009832382202148438,0.14503413984596897,-1.9036425410196185,-9.515131982478499,0.06980296150202356,-0.01531480997800827,0.0016650110483169556,-1.4173178445823489,-0.0013574063777923584
