time,seconds_elapsed,roll,rotationRateZ,quaternionY,rotationRateY,quaternionZ,quaternionW,yaw,devicelocation,accelerationZ,pitch,gravityX,gravityZ,quaternionX,rotationRateX,accelerationX,gravityY,accelerationY
1746229481570247000,0.204246826171875,-0.9563011516427262,-0.04051615297794342,-0.4468008199376155,-0.0456475168466568,-1.715915917334617e-17,0.8821032549208648,-0.13864911342468494,right,-0.2873154282569885,-0.2663699335174823,-7.730082795396447,-5.454583502510189,-0.14920653169972092,-0.07950650900602341,0.8414372205734253,2.581416130377352,0.26560837030410767
1746229481610247000,0.244246826171875,0.064218787243975,0.044846124947071075,-0.028400466090695346,0.04122979938983917,0.1945766762958557,0.9405569242980177,0.42649694779918285,right,0.012181580066680908,-0.5609298471851373,0.5328984142268076,-8.286769168174267,-0.27692191503766933,-0.06261025369167328,-0.014686867594718933,5.216881830850244,-0.00952911376953125
1746229481650247200,0.2842470703125,0.06325633588092859,-0.015117578208446503,-0.02927782418937042,-0.03492351621389389,0.195035956704811,0.9400852631711653,0.42744998666166334,right,0.0010399818420410156,-0.5636892368210057,0.5240105762310325,-8.272880343553423,-0.278106606029847,-0.09692700207233429,-0.001670554280281067,5.239775799703597,0.008130908012390137
1746229481690247200,0.3242470703125,0.06144507403978236,0.08290974050760269,-0.03002022498043434,-0.015322856605052948,0.19550011305140208,0.9402185917783216,0.42776713155356205,right,0.000737607479095459,-0.5622465683963432,0.509489043197222,-8.281351819300651,-0.27724954718691985,0.01486092060804367,-0.006584323942661285,5.227811221143603,0.010503947734832764
1746229481730247000,0.364246826171875,0.059634849268143775,0.1809370517730713,-0.03076262135178355,0.004277801141142845,0.19596399707129827,0.9403505109842527,0.428087126115901,right,0.0004305243492126465,-0.5608044652191942,0.49494591938611116,-8.289777702340484,-0.2763920871423518,0.12664884328842163,-0.01149587333202362,5.215840797364711,0.01287764310836792
1746229481770247000,0.404246826171875,0.06301137814061111,0.15134954452514648,-0.03079923772616035,-0.04447569325566292,0.20079618689023465,0.9392092662747707,0.4394141095653267,right,-0.002812683582305908,-0.5613321472251332,0.522760320441611,-8.285311370581388,-0.27679968378060565,0.11526341736316681,0.00046093761920928955,5.220222373449802,0.015801072120666504
1746229481810247000,0.444246826171875,0.059136941501075506,0.04978255182504654,-0.032395698281428506,-0.02030939795076847,0.20063134428018123,0.9393172736267569,0.4379091554714634,right,0.0015381574630737305,-0.5611942711648001,0.49069808921590446,-8.28799315701127,-0.27637013648368974,0.12237726897001266,0.001527734100818634,5.219077295067906,0.014881670475006104
1746229481850247000,0.484246826171875,0.05526308048724892,-0.05178443342447281,-0.03399206311024562,0.0038568954914808273,0.20046593780767052,0.9394227280433126,0.43640496591617256,right,0.0058789849281311035,-0.5610514103299026,0.45862913598846644,-8.290576159241795,-0.27593978718721807,0.12949112057685852,0.0025952234864234924,5.217891300153732,0.013966619968414307
1746229481890247200,0.5242470703125,0.05664912676789743,0.09087009727954865,-0.03341646689539721,-0.04509960114955902,0.2014237995427489,0.9395060452125064,0.4386517803844767,right,-0.0016777515411376953,-0.5588849755620691,0.47075873238444327,-8.301199260064958,-0.27502718951672994,0.07601030170917511,-0.00048599764704704285,5.199890948560833,-0.00034809112548828125
1746229481930247200,0.5642470703125,0.060544830620530406,0.03881959244608879,-0.03237439881361429,0.05259691923856735,0.2034272289907209,0.9389729289655648,0.44409264946674853,right,0.0004825592041015625,-0.559238808320834,0.5029827300431207,-8.29746533423364,-0.27549753358847245,-0.02723485231399536,0.0007592290639877319,5.2028322627097365,-0.006407022476196289
1746229481970247000,0.604246826171875,0.06152075706015298,-0.06332167983055115,-0.03216349724148862,0.016378674656152725,0.20288246966040638,0.9386546358152074,0.4435043812319665,right,-0.005776941776275635,-0.5622299630675693,0.5101211305556819,-8.281400334617494,-0.2770046531968519,-0.10043691098690033,-0.0017192475497722626,5.227673858499527,-0.012137830257415771
1746229482010247000,0.644246826171875,0.058657704461254845,-0.18960723280906677,-0.03330406795880709,-0.050382670015096664,0.2004569103212664,0.9384764478131459,0.43797934533113686,right,-0.009185552597045898,-0.567415986476896,0.4848131228305399,-8.255651560854911,-0.27923061156646045,-0.15863117575645447,0.0009139031171798706,5.2706321257382625,-0.01227492094039917
1746229482050247000,0.684246826171875,0.05103291291383698,-0.22479265928268433,-0.035831655907455254,-0.09065879881381989,0.19689253532233364,0.9389321158845327,0.4283651967574874,right,-0.009608864784240723,-0.5701561848204407,0.421113680858165,-8.244653196978568,-0.279920962473537,-0.06736775487661362,-0.002420429140329361,5.2932735811352725,-0.0016982555389404297
1746229482090247000,0.724246826171875,0.04336377391220209,-0.2599780857563019,-0.038358574174704174,-0.1309349238872528,0.1933243125613733,0.9393692791688645,0.41870982197324064,right,-0.01005333662033081,-0.5728344455941252,0.35725663717128336,-8.233447327831387,-0.2806057862707352,0.023895658552646637,-0.00573868490755558,5.315364416912198,0.008934557437896729
1746229482130247200,0.7642470703125,0.04301087914694197,0.20156815648078918,-0.037848267065796984,-0.07126312702894211,0.1956643756637213,0.9405709963848279,0.42259797021308076,right,-0.008410632610321045,-0.5610441423898983,0.35702103831712156,-8.295610646277666,-0.2749709751180666,0.2448398768901825,-0.002469826489686966,5.217831094399094,0.02046281099319458
1746229482170247200,0.8042470703125,0.04158210629523008,0.05420026183128357,-0.03878550571622236,-0.06394971907138824,0.19842973496982494,0.9405936589091274,0.427715341503801,right,-0.0011879801750183105,-0.5568661882081307,0.3460713724207133,-8.317821309041976,-0.2727724431164753,0.13137267529964447,0.0017741657793521881,5.18309471206069,0.010522246360778809
1746229482210247000,0.844246826171875,0.04013204474627087,-0.09316761791706085,-0.039722172855161476,-0.056636303663253784,0.2011924495451352,0.9406037297228372,0.432826531355206,right,0.006015777587890625,-0.5526944311920263,0.33487427110187706,-8.339846678367257,-0.27057026188198585,0.017905473709106445,0.006043396890163422,5.148319751277565,0.0005856156349182129
1746229482250247000,0.884246826171875,0.0370230824331165,-0.06992895901203156,-0.040586231474434076,0.009678433649241924,0.19891438563299274,0.9409005269854407,0.4272133526932361,right,0.008076965808868408,-0.5542326568975391,0.30865090209748597,-8.332924185627698,-0.2710938057007903,-0.016543973237276077,-0.002922333776950836,5.161152929365635,-0.009844422340393066
1746229482290247000,0.924246826171875,0.0359555987554209,-0.08431696146726608,-0.04097011543613753,0.013513132929801941,0.19766222466736402,0.9408256919642211,0.4244414661731484,right,0.0048525333404541016,-0.5567145837616793,0.2992940766167827,-8.320421846929191,-0.2722094360735453,-0.06742244958877563,-0.003171151503920555,5.181832729300856,-0.008774042129516602
1746229482330247000,0.964246826171875,0.03487834114921027,-0.09870496392250061,-0.04135387564401772,0.017347831279039383,0.19640943736733385,0.9407480589645282,0.42166207259390037,right,0.0016234517097473145,-0.5591940253103638,0.28988173982286825,-8.307873331001401,-0.2733242824658701,-0.11830094456672668,-0.003414323553442955,5.202459922266006,-0.007698357105255127
1746229482370247000,1.004246826171875,0.03912481038831548,0.10562020540237427,-0.039673266670224576,0.10066116601228714,0.19616753424191427,0.9404940873831535,0.42253718203119756,right,-0.00621563196182251,-0.5611007860996677,0.32476956812962887,-8.296640573847293,-0.2746180521962293,-0.012189417146146297,-0.0057541485875844955,5.218301634520292,-0.0068094730377197266
1746229482410247200,1.0442470703125,0.046269614076611655,0.03843090683221817,-0.037035451105679996,0.06975672394037247,0.19803912602771384,0.9401696058699524,0.4285242980601924,right,-0.0048056840896606445,-0.5601339934016608,0.38427181414049116,-8.299143496578932,-0.2747540336247921,-0.00024153385311365128,0.0021207407116889954,5.210271472799778,0.00003081560134887695
1746229482450247200,1.0842470703125,0.046553044431741276,-0.04474734514951706,-0.03681411997613044,-0.021025024354457855,0.19800592425319793,0.9402818059044842,0.42847078294275115,right,-0.008882403373718262,-0.5593670637536401,0.3868098447181284,-8.30302355288267,-0.2744235835175567,0.0051096645183861256,0.0032223761081695557,5.203898430636525,0.00909268856048584
1746229482490247000,1.124246826171875,0.044242962394984264,-0.07919254899024963,-0.03739835148486565,-0.005681871436536312,0.19695252166293864,0.9406508366394077,0.4254825202033747,right,-0.00782555341720581,-0.5584853931886632,0.3678309669492766,-8.308475388547778,-0.27383749178843253,0.05535469576716423,-0.005438879132270813,5.196567941617966,0.018175780773162842
1746229482530247000,1.164246826171875,0.04968572957793447,0.07086685299873352,-0.0342526281068456,0.23851998150348663,0.1968717820464823,0.9415430595957138,0.42632019414837224,right,0.007010221481323242,-0.551813989759217,0.4147590146018192,-8.3407906812191,-0.2712282151055799,0.2483329325914383,0.0011038295924663544,5.1409693885147565,0.0157434344291687
1746229482570247000,1.204246826171875,0.059015408810745254,0.1442035436630249,-0.029482131788052417,0.07415775954723358,0.19786785461293793,0.9424162029676151,0.43034109148407407,right,-0.009706258773803711,-0.5431388489462156,0.49516865875869986,-8.380764964210986,-0.26801244427462473,0.20150378346443176,-0.0017715580761432648,5.068329684239625,-0.009689688682556152
1746229482610247000,1.244246826171875,0.06409009155303372,0.07210797071456909,-0.02733915833528821,0.037591543048620224,0.2005770927124577,0.9425793954511554,0.43698400956299704,right,0.0038110017776489258,-0.5372131360069512,0.5396059125088155,-8.40796919747889,-0.26564152865282387,0.10101384669542313,0.0057203881442546844,5.018492178881168,-0.00151824951171875
1746229482650247200,1.2842470703125,0.06302773533933465,-0.1504635065793991,-0.02744445456351074,-0.0029716193675994873,0.1990993505845454,0.9428395685763361,0.4335962360300704,right,0.0008378028869628906,-0.5377186214282808,0.5305135283842682,-8.406005203929544,-0.26581911055200347,-0.08068188279867172,0.008643034845590591,5.022750420847535,-0.019627898931503296
1746229482690247200,1.3242470703125,0.06061327217663375,-0.11542350053787231,-0.028315270685217594,0.026571940630674362,0.19630019827191597,0.9427556684924249,0.42744718565360235,right,-0.006365299224853516,-0.5428950763830227,0.5086341799335554,-8.381196341365575,-0.26809723670764757,-0.1528264284133911,0.004298344254493713,5.066283273103833,-0.014633476734161377
1746229482730247000,1.364246826171875,0.06074348749328994,-0.042301200330257416,-0.028495848047968817,0.034726932644844055,0.19461254049894955,0.9422651361859193,0.42445671358964604,right,-0.0018615126609802246,-0.5489958947944181,0.507839705087617,-8.350122573187948,-0.2710169478269507,-0.1437198966741562,-0.0008704140782356262,5.117414909926056,-0.014164626598358154
1746229482770247000,1.404246826171875,0.06296569630063496,0.03631465882062912,-0.02783034923040498,0.05411160737276077,0.1944889681750749,0.9418722161570143,0.42509169751108555,right,-0.004341244697570801,-0.5517918607911881,0.5254917546994984,-8.334660800161958,-0.27253622818827195,-0.0506260022521019,-0.0024562813341617584,5.1407846795976155,0.00794440507888794
1746229482810247000,1.444246826171875,0.06552822313437885,0.021457012742757797,-0.026840429706280523,0.025781376287341118,0.19490539678971752,0.9417546984797521,0.4267140070172706,right,-0.012020349502563477,-0.5517507447016917,0.5468616557907313,-8.333498186123371,-0.27274421435739266,-0.007405616343021393,0.006184574216604233,5.14044098072648,0.012969374656677246
1746229482850247000,1.484246826171875,0.06531426630725548,0.0007817596197128296,-0.027017598576980814,-0.045082829892635345,0.19533976153568494,0.9417155530609669,0.4275423017261588,right,-0.014801979064941406,-0.5514073613550731,0.545193832176365,-8.335375670433043,-0.2725511417814737,0.013000855222344398,0.00629822164773941,5.137572731813788,0.015714645385742188
1746229482890247200,1.5242470703125,0.06384720752674958,-0.028652600944042206,-0.027545977015483523,-0.030957579612731934,0.19529859435800892,0.9418536625826536,0.4269578067636821,right,-0.0048277974128723145,-0.5506273308171477,0.5332202665923162,-8.340163489231466,-0.2720499904213042,0.0232950821518898,0.007046796381473541,5.131055897265672,0.005949914455413818
1746229482930247200,1.5642470703125,0.06151278757285283,-0.05418901890516281,-0.028302015640819467,-0.051959529519081116,0.1946676741943216,0.9420990653399415,0.42489019416686585,right,-0.003178894519805908,-0.5500371544106171,0.5139354646794497,-8.344406533628701,-0.27157437435296455,0.015922248363494873,0.003138609230518341,5.1261225325167175,-0.005481302738189697
1746229482970247000,1.604246826171875,0.059250067570807564,-0.01709728315472603,-0.029057955479609696,-0.0037581659853458405,0.19406976183434624,0.9423115218369195,0.42293118940510427,right,0.005485355854034424,-0.549616910027003,0.49518064145743845,-8.347697976389528,-0.27118529496133764,0.024897992610931396,0.001989651471376419,5.122608971437812,-0.00856006145477295
1746229483010247000,1.644246826171875,0.06138817466332803,0.09308400750160217,-0.028165033272917066,0.07483328878879547,0.1946436329956981,0.9423215819147621,0.4246608320405337,right,0.009316027164459229,-0.5484767950212891,0.5133857218421995,-8.352444294133782,-0.2708331075484013,0.033096298575401306,-0.0041058845818042755,5.113071327763795,-0.011846065521240234
1746229483050247000,1.684246826171875,0.06696756908428778,0.11425407230854034,-0.02609838985537232,0.06483979523181915,0.19637993643908214,0.9420592974955878,0.4298293145821494,right,-0.0009173154830932617,-0.5471783993099717,0.560422892425023,-8.356066576284169,-0.270699131545716,0.006110360845923424,-0.003142867237329483,5.102202143225074,-0.010251164436340332
1746229483090247000,1.724246826171875,0.07162792983161823,0.06519141793251038,-0.024508008504820742,0.06495984643697739,0.1977643257187009,0.94166856031126,0.43412910937254406,right,-0.0037322044372558594,-0.5473810386302925,0.5992849398586899,-8.352332650452851,-0.27119897176287,-0.031180063262581825,-0.000586342066526413,5.103899010270833,-0.005335986614227295
1746229483130247200,1.7642470703125,0.07326467651304915,-0.003117606043815613,-0.024083692398402832,0.008921567350625992,0.19796047945852246,0.9413450559819352,0.43519965194527616,right,-0.010028421878814697,-0.5492311353944732,0.6122625313861295,-8.341908871594072,-0.27221493156282334,-0.07597054541110992,0.002990901470184326,5.119382410606741,-0.004098296165466309
1746229483170247200,1.8042470703125,0.07347164401980033,0.05157236009836197,-0.02447461700466768,-0.03675047680735588,0.19844640505839406,0.9408549016926696,0.436566905745652,right,-0.009477853775024414,-0.5520038246341927,0.6129447049640119,-8.327593345993757,-0.2735175676953023,-0.07760611176490784,0.005194813013076782,5.142554611879587,-0.0017657279968261719
1746229483210247000,1.844246826171875,0.07239015819531958,0.009298097342252731,-0.02557857382415506,-0.06493306905031204,0.19952066852933195,0.94027630033843,0.4387994901125636,right,-0.008477509021759033,-0.5546538209629847,0.6029504035636782,-8.314630404046177,-0.27462254575280587,-0.07797125726938248,0.012742027640342712,5.164664152356982,0.001185595989227295
1746229483250247000,1.884246826171875,0.06958668168938455,-0.006400061771273613,-0.027188857165647215,-0.0674314945936203,0.1998072417658935,0.9398942524043259,0.43884749111914967,right,-0.006424427032470703,-0.5572689388989125,0.5786971290558576,-8.302786236995457,-0.27556570960252225,-0.059335075318813324,0.010312072932720184,5.186447529619932,0.0004908442497253418
1746229483290247000,1.924246826171875,0.06742806171918499,0.019321588799357414,-0.028448277089538353,-0.07178185880184174,0.20038087452960812,0.9396176110403527,0.43956589852526834,right,-0.004306674003601074,-0.5586060465174009,0.5603054765904322,-8.297089486658573,-0.27596527600033227,-0.017683066427707672,0.005220089107751846,5.197571565702558,0.003039538860321045
1746229483330247000,1.964246826171875,0.06578568276893355,0.034028954803943634,-0.029414557701558465,-0.05670836940407753,0.20129187832620793,0.9394546882488446,0.4410180100925842,right,0.0030663013458251953,-0.5585553528448622,0.5466950670521706,-8.298261453047393,-0.27575562861510056,0.004734767600893974,0.0049057453870773315,5.197149540898203,0.006200909614562988
1746229483370247000,2.004246826171875,0.06556016108188598,0.05185769498348236,-0.02976353726653885,-0.021308109164237976,0.20239208323054744,0.9393023351766614,0.4432386150138997,right,0.007033884525299072,-0.5579819200916993,0.5450188044030219,-8.301357080975174,-0.27543180768181613,0.016401756554841995,0.0016161315143108368,5.192379842278361,0.008631467819213867
1746229483410247200,2.0442470703125,0.06766081587524377,0.08873602002859116,-0.029087799797818076,0.01822931319475174,0.20388336764515405,0.9391868968670207,0.44686316400302434,right,0.007869899272918701,-0.5562823367527281,0.5630517065586522,-8.308986845201254,-0.2747971089606442,0.06477494537830353,-0.0008495412766933441,5.178233243504167,0.009312748908996582
1746229483450247200,2.0842470703125,0.06992756715760197,0.07288318872451782,-0.0283337501518666,-0.0006985198706388474,0.20551444694091672,0.9390837503154252,0.4507951918932254,right,0.008594393730163574,-0.5542280067858791,0.58262668705713,-8.318283665856718,-0.27401232090134653,0.041775234043598175,-0.0016189999878406525,5.161113766399025,0.009998202323913574
1746229483490247000,2.124246826171875,0.0712386465520547,0.018349342048168182,-0.02796396917700818,0.01709025539457798,0.20649919935623617,0.9389506096714075,0.4532003133859487,right,0.01075214147567749,-0.5534843344622384,0.5938051567407324,-8.321338377252221,-0.2737659738667167,0.007116071879863739,-0.0005903728306293488,5.154911404627561,0.00746464729309082
1746229483530247000,2.164246826171875,0.07117690059348013,-0.06810356676578522,-0.02790423254544022,0.01498986966907978,0.2058746582684498,0.9389826961026367,0.4519285723471691,right,0.003644406795501709,-0.5542435537980843,0.5930128373192622,-8.317468842342496,-0.2741321533404969,-0.027322206646203995,-0.0021590590476989746,5.161243530258536,0.00614398717880249
1746229483570247000,2.204246826171875,0.07017448885679316,-0.07332247495651245,-0.028055270471426696,0.015228673815727234,0.20420119103480577,0.9391306186951227,0.44823882733843096,right,-0.0005101561546325684,-0.5559119953413185,0.5840703830594196,-8.309457385322451,-0.2748607790183841,-0.025087464600801468,-0.007637921720743179,5.17514872149229,0.00409388542175293
1746229483610247000,2.244246826171875,0.06881165432831006,-0.04614992439746857,-0.028459504000860635,-0.021849192678928375,0.20310333532790076,0.9392319622220202,0.44561390060433004,right,-0.004531502723693848,-0.5570393735293465,0.5723439241042361,-8.304419975677131,-0.275286110408933,-0.029555799439549446,-0.0033180788159370422,5.184536727562547,0.002351820468902588
1746229483650247200,2.2842470703125,0.06599152026994755,-0.11797831207513809,-0.029462575857982978,-0.0076043736189603806,0.20160439150929457,0.9393335645816733,0.44177901800228303,right,-0.006426751613616943,-0.5589179814155201,0.5482788291122764,-8.296267648881674,-0.2759347645857618,-0.03476572781801224,-0.003233879804611206,5.200165089327097,0.00043517351150512695
1746229483690247200,2.3242470703125,0.06298879092533186,-0.1351950764656067,-0.03018325361500201,-0.01612895354628563,0.19923946700925216,0.9397354512140307,0.4359622212989338,right,-0.006743967533111572,-0.5599557870098396,0.5230249627271667,-8.29248637677729,-0.27620611009378715,-0.02108040824532509,-0.005137123167514801,5.208790878853201,0.0013202428817749023
1746229483730247000,2.364246826171875,0.0614565725306854,-0.005974575877189636,-0.030440811354075614,0.04345640540122986,0.19788406211481074,0.9400457274452942,0.43262621336329765,right,0.0007778406143188477,-0.5599383230356422,0.5103240327166393,-8.293368420308829,-0.2760963763903078,0.02951233834028244,-0.006672456860542297,5.208645917424559,0.001753091812133789
1746229483770247000,2.404246826171875,0.0636406848199469,-0.014048978686332703,-0.029251700985817523,0.06153649091720581,0.19769711916208252,0.9402835471342855,0.4327159248659308,right,-0.002306640148162842,-0.5583099005244857,0.5289751763684675,-8.300687803411483,-0.27554855239283116,0.040497951209545135,-0.0018066354095935822,5.195108390459418,0.001068413257598877
1746229483810247000,2.444246826171875,0.0641007462967455,-0.019738856703042984,-0.028694554949726146,0.031670063734054565,0.19692391340743925,0.9405944096396266,0.431101666913345,right,-0.0014586448669433594,-0.5572040010755611,0.5331616682728753,-8.306172372302413,-0.27509939827109714,0.025205202400684357,-0.004485927522182465,5.185906846871972,-0.0015271306037902832
1746229483850247000,2.484246826171875,0.06551348678543566,0.02697281539440155,-0.027932856128324815,0.046973783522844315,0.1969354222542523,0.9407547121164674,0.43141482090469196,right,0.00012451410293579102,-0.5558949389948689,0.5453395607899875,-8.312177750197053,-0.2746208729232298,0.04021921008825302,-0.003927752375602722,5.1750066826730965,-0.0033836960792541504
1746229483890247200,2.5242470703125,0.06651321939487352,-0.0279475599527359,-0.027370205492927888,0.026018403470516205,0.19669763462701018,0.940862874320136,0.43115117666741487,right,-0.001347184181213379,-0.5553711792741112,0.5538293028462677,-8.314331713360547,-0.27447752167858325,-0.010241437703371048,-0.0034431330859661102,5.170643226766586,-0.005873560905456543
1746229483930247200,2.5642470703125,0.06741542553994433,0.00003191269934177399,-0.02692971910850251,0.030946839600801468,0.1962183347994847,0.9408474067492353,0.4304654723952507,right,-0.002412736415863037,-0.5560998872644755,0.5610763513650745,-8.310067041653394,-0.2749168265537497,-0.02559405192732811,-0.004770372062921524,5.176714071112871,-0.009146630764007568
1746229483970247000,2.604246826171875,0.06785536168999445,-0.024390941485762596,-0.026815350037390436,0.0006387978792190552,0.19592249903762735,0.9407144000514724,0.43009414517254096,right,-0.0045623779296875,-0.5574412253612706,0.5642608631527051,-8.302883852151036,-0.27559324363469545,-0.05152833089232445,-0.0007632151246070862,5.187881361815333,-0.006583273410797119
1746229484010247000,2.644246826171875,0.06658212477406907,-0.04820956289768219,-0.027396210791306996,-0.015964744612574577,0.19509769831246182,0.9405823281607802,0.4281870342693492,right,-0.005519270896911621,-0.5597377391554411,0.5528947254098951,-8.29168616631031,-0.276570209168388,-0.06382882595062256,0.0014238692820072174,5.206979445517063,-0.00241696834564209
1746229484050247000,2.684246826171875,0.06429172980902884,-0.05343711003661156,-0.028330109293001917,-0.018379831686615944,0.19406418754017588,0.9405288229599028,0.4255174917077909,right,-0.006388545036315918,-0.5618715095068303,0.5331870219098404,-8.281824112987518,-0.27738394651753445,-0.0415828675031662,0.002178061753511429,5.224699226602912,0.00038546323776245117
1746229484090247000,2.724246826171875,0.06408983637180213,0.007717043161392212,-0.028336923760456816,0.021532384678721428,0.1936167406560168,0.9405618651746323,0.424547860301584,right,-0.0031419992446899414,-0.5623108270874045,0.5313679167238995,-8.27964033920765,-0.2775838845320104,0.010446242988109589,0.003995802253484726,5.228344305106997,0.004810810089111328
1746229484130247200,2.7642470703125,0.06441209826362078,-0.00713320542126894,-0.028108215314151027,-0.025421882048249245,0.19373312579476837,0.9406817728045472,0.42479141949861055,right,-0.00530928373336792,-0.5612599180488403,0.53438949303478,-8.284947213444113,-0.2771193608137374,0.023849163204431534,0.00411934033036232,5.219622653990983,0.0013988614082336426
1746229484170247200,2.8042470703125,0.062186243353234694,-0.03636252507567406,-0.028877203423807035,-0.027834946289658546,0.1933450630889926,0.9408805275495532,0.42325355192845293,right,-0.0017666816711425781,-0.56064156714911,0.5161475512383505,-8.28933638831377,-0.2766361482310256,0.019756631925702095,0.004690937697887421,5.214488213711976,0.003100574016571045
1746229484210247000,2.844246826171875,0.06103737068508058,-0.02029866725206375,-0.029186420961054754,0.003810843452811241,0.192883468021801,0.9410498363965083,0.4218963636129129,right,0.00046187639236450195,-0.5602250296700177,0.5067562572324649,-8.292090655457972,-0.2763497031206937,0.011949307285249233,0.004341144114732742,5.211027844125032,0.0014001131057739258
1746229484250247000,2.884246826171875,0.060633444809309156,-0.036007802933454514,-0.029211590854924988,-0.0006538731977343559,0.19230135752737137,0.9411475261123686,0.4205582456998723,right,0.0029877424240112305,-0.5604166291665066,0.5033463391911238,-8.291298043775559,-0.2764201527443553,-0.011060682125389576,0.0032747797667980194,5.212619497230649,-0.00400620698928833
1746229484290247000,2.924246826171875,0.05741420757673035,-0.09481735527515411,-0.030465534434329325,-0.05318344756960869,0.191058136734348,0.9411575758029199,0.4171531805095956,right,-0.0014696717262268066,-0.5624414487053108,0.4760454771483317,-8.28232154111564,-0.27711181398873896,-0.06825385242700577,0.0010841116309165955,5.229428008690476,-0.0027045607566833496
1746229484330247000,2.964246826171875,0.053518492420068994,-0.08809573948383331,-0.03198732077256074,-0.028039664030075073,0.1892855385946197,0.9411062066470115,0.41252278291415156,right,0.0008475780487060547,-0.5656720163411151,0.4428703527772799,-8.26719995982945,-0.27832873390357515,-0.07477859407663345,0.006294470280408859,5.256201449325681,0.0036941170692443848
1746229484370247000,3.004246826171875,0.049876889242734083,-0.09701256453990936,-0.03337705528149103,-0.04001982510089874,0.18749043797464832,0.9410563118226869,0.40790187020010066,right,-0.0047498345375061035,-0.5688384308626834,0.4119297825252637,-8.252094160634279,-0.2795465025212132,-0.0749746784567833,0.003738764673471451,5.282390368071198,0.008311867713928223
1746229484410247200,3.0442470703125,0.047377679842728955,-0.03040625900030136,-0.0343159291438567,-0.0034443549811840057,0.18638541108845944,0.9410530949240241,0.4049577621639661,right,-0.002031564712524414,-0.5705846989693953,0.39086733994800593,-8.243871106690168,-0.2801819795393718,-0.00865890085697174,0.0009482316672801971,5.296810523089766,0.005004405975341797
1746229484450247200,3.0842470703125,0.046839716203652834,-0.005120834335684776,-0.034406309134839975,-0.007874174043536186,0.1859499341550207,0.9411586797391759,0.403864130898041,right,-0.0013519525527954102,-0.5704885538411641,0.38645620897486804,-8.244588899570703,-0.28010558037978234,0.016225526109337807,-0.0014232024550437927,5.296016742363572,0.0019751787185668945
1746229484490247000,3.124246826171875,0.04595337067501861,-0.02068394608795643,-0.034724596397628316,-0.024692924693226814,0.18592889392221956,0.941243857067383,0.4035141206628693,right,0.0009995102882385254,-0.5699869841655973,0.3792704621892422,-8.24758048260212,-0.2797938467749615,0.01062692329287529,-0.0006750859320163727,5.2918765738189215,0.00203859806060791
1746229484530247000,3.164246826171875,0.0446418481461347,0.002151692286133766,-0.035190642780216,-0.009102771990001202,0.1856531234213197,0.9413306473643596,0.40252745121590927,right,0.004509389400482178,-0.569853570922199,0.36848475468289105,-8.248775829866528,-0.2796266434886892,0.010993246920406818,-0.0030621998012065887,5.290774750056863,0.0026893019676208496
1746229484570247000,3.204246826171875,0.04453134175783075,0.005362630821764469,-0.03525197551592058,-0.007108419202268124,0.18582622698404105,0.941346147467596,0.4028345870359481,right,-0.0004755258560180664,-0.569514087308002,0.3676531626969576,-8.250610644078254,-0.27945161983289357,0.005641268566250801,-0.0024448037147521973,5.287971383073925,0.004354715347290039
1746229484610247000,3.244246826171875,0.044240969604899365,-0.041653823107481,-0.035361320762072684,0.008413273841142654,0.1856491596360859,0.9413355724561866,0.4023997896234481,right,0.0003682374954223633,-0.569851889988228,0.3651783700812608,-8.248931897211074,-0.2795909159751537,-0.02065262570977211,0.00039672479033470154,5.290761306053399,0.006754100322723389
1746229484650247200,3.2842470703125,0.04302934019922862,-0.0822254866361618,-0.035617394508575144,0.01413862407207489,0.1842238937147795,0.9414187390983735,0.3991298632078128,right,-0.00013875961303710938,-0.571308085075144,0.354851658388786,-8.241662198469042,-0.2802205292548004,-0.02924414724111557,-0.0013565383851528168,5.302779076105356,0.002116978168487549
1746229484690247200,3.3242470703125,0.04178197745144879,-0.05185241252183914,-0.0358860963056361,0.0018831714987754822,0.18292685150705162,0.941525281046252,0.3960914575281994,right,-0.004040896892547607,-0.5724098223842222,0.34432679377570746,-8.23625654003322,-0.2806776733023007,-0.01991387829184532,-0.0024781711399555206,5.3118642998367545,0.00048351287841796875
1746229484730247000,3.364246826171875,0.041263533123189824,-0.03461303561925888,-0.035989069380455735,0.011663367040455341,0.18227732698881152,0.9415572995718218,0.3946118338120035,right,-0.000021278858184814453,-0.5730967436415201,0.33990612778924406,-8.232786233574151,-0.2809795145122168,-0.003066558390855789,-0.0013184323906898499,5.3175259788602585,-0.004021406173706055
1746229484770247000,3.404246826171875,0.04137434110428903,0.0210019052028656,-0.03579612658315701,0.016960565000772476,0.18199022535418669,0.9416914304875328,0.3939911095009667,right,-0.001380324363708496,-0.5725429019903034,0.3409401470120996,-8.235689553800224,-0.28074062583692244,0.030011296272277832,-0.00655689463019371,5.312961447423696,-0.0028174519538879395
1746229484810247000,3.444246826171875,0.04314965330944695,0.03999267518520355,-0.03511847913230821,0.016412492841482162,0.1827170996662363,0.9417096320751427,0.3959659609325841,right,-0.0003288388252258301,-0.571319171055925,0.3558407059587538,-8.241561076182126,-0.2802927139050115,0.012914527207612991,-0.0029997266829013824,5.302870846042037,-0.00020599365234375
1746229484850247000,3.484246826171875,0.044213756072236945,-0.0003192983567714691,-0.03477384515870918,0.024934209883213043,0.18298555976029718,0.9416049153089784,0.3968767729933331,right,-0.00003916025161743164,-0.5716134414546208,0.36454138735197483,-8.239618125420808,-0.28051227859160127,-0.023201368749141693,-0.003995213657617569,5.305297780928015,-0.0015773773193359375
1746229484890247200,3.5242470703125,0.04556291533313625,-0.0063165840692818165,-0.03416514206067775,0.022113557904958725,0.18256770709616746,0.9415479462135139,0.3964621956985498,right,-0.005837976932525635,-0.5724809846140095,0.37544783516116437,-8.234518171933292,-0.2810500665391506,-0.027391968294978142,-0.003595467656850815,5.312451159814,-0.000773310661315918
1746229484930247200,3.5642470703125,0.04587956205418393,0.015610592439770699,-0.034165096436578044,-0.013903208076953888,0.18266473728104035,0.941385330032756,0.3968430477574558,right,-0.003001570701599121,-0.5734585162917808,0.3778169023800641,-8.2292072060436,-0.28153138261849714,-0.029974473640322685,-0.0009392015635967255,5.320506455975771,0.002795994281768799
1746229484970247000,3.604246826171875,0.047188057444301885,0.04621615260839462,-0.03381366006018197,0.044374436140060425,0.18325583959061295,0.9412142336384572,0.39851490154690483,right,-0.0009165406227111816,-0.5737542797450091,0.3885101823626086,-8.227133322378993,-0.28176150012111206,0.009443117305636406,0.0009190812706947327,5.322942743211985,0.005754053592681885
1746229485010247000,3.644246826171875,0.05003577500752987,0.03974888473749161,-0.032653827672766186,0.03293253853917122,0.18382426337622088,0.9412157221287818,0.4004914583177226,right,-0.005017757415771484,-0.5727593096784451,0.4122018409322947,-8.23127933614254,-0.28152309448178253,0.02651142328977585,-0.001276656985282898,5.31474540823102,0.0062697529792785645
1746229485050247000,3.684246826171875,0.050988719968935385,0.007480740547180176,-0.03229396191859688,0.0010600611567497253,0.18423448403342182,0.9412207466489254,0.4015912716154717,right,0.0011951923370361328,-0.5720911272112447,0.4202264862274751,-8.234427571040392,-0.2812794281771206,0.009423516690731049,0.0018220841884613037,5.309236873942614,0.0052294135093688965
1746229485090247000,3.724246826171875,0.04969308062617316,-0.044935960322618484,-0.03282370667363222,-0.01145175937563181,0.18389131082143487,0.9412024999280644,0.40053367264745376,right,0.0008475184440612793,-0.5727861415770306,0.4093738874973729,-8.23127758257687,-0.2815035115660471,-0.023645255714654922,0.0008081607520580292,5.314966357505321,0.0012718439102172852
1746229485130247200,3.7642470703125,0.04844118608859397,-0.048111457377672195,-0.03315244520731031,0.029078427702188492,0.1827147905261507,0.9412566551991669,0.3977691324182998,right,0.0028922557830810547,-0.5740971702945906,0.3987311321256682,-8.224816277608275,-0.2820495527502118,-0.02151132933795452,-0.0010902024805545807,5.32576656846106,-0.0005341172218322754
1746229485170247200,3.8042470703125,0.050588570845472226,0.06104263290762901,-0.03219685989203155,0.07040618360042572,0.18249685149848727,0.9412365793895393,0.3979724597259191,right,0.002095937728881836,-0.5743653987686912,0.4163197976451367,-8.222514430406688,-0.2823681576276104,0.008214425295591354,-0.006844405084848404,5.327974892160296,-0.0033221840858459473
1746229485210247000,3.844246826171875,0.056395926256564775,0.11517632007598877,-0.029977190210802158,0.10589859634637833,0.1838869053830588,0.9410903620604572,0.4025518693299073,right,0.0030527114868164062,-0.573020333298285,0.4644671214269474,-8.227105849850178,-0.2821979700242597,0.04880407080054283,-0.005915995687246323,5.316896448785067,0.000620722770690918
1746229485250247000,3.884246826171875,0.06382172717655392,0.08847223967313766,-0.02701291093454215,0.12640824913978577,0.1854940640794596,0.9410112772276945,0.40798101279183435,right,0.003199458122253418,-0.5706792495285434,0.5263390557112172,-8.23582925453186,-0.2817088002074742,0.04169025272130966,-0.0020008906722068787,5.297590859812498,0.0035985708236694336
1746229485290247000,3.924246826171875,0.06730789337251122,-0.0017787963151931763,-0.025437399259423312,0.13307619094848633,0.1852986130010098,0.9410283977840962,0.4085903032623677,right,0.0075272321701049805,-0.5704719394155244,0.5551210962224752,-8.235039565458893,-0.2819268188533434,-0.010908912867307663,-0.0029606595635414124,5.295879964241385,0.0008935928344726562
1746229485330247000,3.964246826171875,0.07399773581450945,-0.023902304470539093,-0.022403078619203737,0.27686095237731934,0.18372451476732848,0.9408570478652308,0.4075061155960641,right,0.002707242965698242,-0.5730834307905699,0.6091748675690963,-8.217321537938714,-0.28378032265273734,-0.09233863651752472,0.007880203425884247,5.317416088744998,-0.003094971179962158
1746229485370247000,4.004246826171875,0.08115246885571506,0.08279413729906082,-0.02007254670524705,0.0035194754600524902,0.18642876238599781,0.9403091955876202,0.4153404070245849,right,-0.005705296993255615,-0.5723303318467223,0.6682759854331612,-8.216741692224144,-0.2840067356660872,-0.01922629028558731,0.03830782324075699,5.311209050798416,0.030868828296661377
1746229485410247200,4.0442470703125,0.08650294632854177,0.1259061098098755,-0.018563897441808315,0.02183983288705349,0.18926321471122662,0.9397380654498934,0.42291850570134654,right,-0.003923177719116211,-0.571664903289888,0.7125348869416862,-8.216568089222907,-0.2841249480596449,0.0034831129014492035,0.014223873615264893,5.305722143819928,0.008790314197540283
1746229485450247200,4.0842470703125,0.09104339885682908,0.1468663215637207,-0.01736298386634923,0.013486284762620926,0.1921561965227191,0.939221301135895,0.4303292495204009,right,-0.003645777702331543,-0.5705440554788457,0.7503745690576732,-8.219165119978785,-0.2839677928725605,0.00859678816050291,0.008083425462245941,5.296475007525086,0.0020951032638549805
1746229485490247000,4.124246826171875,0.09446835374149219,0.08481454849243164,-0.016500696792094347,-0.0024102870374917984,0.194502908205123,0.9387936982384142,0.43626511989059585,right,-0.0029941201210021973,-0.5696586624994068,0.7789624387037009,-8.221212115636467,-0.28383540436060783,0.008492137305438519,0.005068756639957428,5.289165561294555,0.0010041594505310059
1746229485530247000,4.164246826171875,0.09692421140087112,0.07342056930065155,-0.015780461523211515,0.018764730542898178,0.1959033738975171,0.9385584890457466,0.4399058250521475,right,-0.0052877068519592285,-0.5688985879644021,0.7995389974601567,-8.223273139819502,-0.2836911906107557,0.01230519451200962,0.0012665390968322754,5.282887211677432,0.0035889744758605957
1746229485570247000,4.204246826171875,0.09946222849650499,0.07417912781238556,-0.01498356022580988,0.009256239980459213,0.1971345843781869,0.9383418120868672,0.4432191478768379,right,-0.0025789737701416016,-0.5682190040017304,0.82076349873133,-8.22478822055757,-0.2835982627685576,0.007412143051624298,0.0005487650632858276,5.277271125361323,-0.0016585588455200195
1746229485610247000,4.244246826171875,0.1010287420421165,0.04581362009048462,-0.014606656703511531,0.0047607505694031715,0.19819238241319784,0.9381157595919474,0.44592158570235524,right,-0.0026958584785461426,-0.5679945902508369,0.8337661881674081,-8.224670147135853,-0.28362851103854614,-0.006965138949453831,0.004057705402374268,5.275416437405347,0.005567610263824463
1746229485650247200,4.2842470703125,0.10260730609417203,0.04656919464468956,-0.014179700395018348,-0.009827876463532448,0.19907344764022425,0.937915930521292,0.4482588452419388,right,-0.0035753846168518066,-0.5678347999956603,0.8468346363160759,-8.224182655879854,-0.28369402855624076,0.003999135456979275,0.002142384648323059,5.274095417934656,0.006480813026428223
1746229485690247200,4.3242470703125,0.1034992400565278,0.01033765822649002,-0.014019309395400036,-0.0018595438450574875,0.19993550497971058,0.937756874225721,0.450329875334483,right,0.0003718733787536621,-0.5675195674723191,0.8543414317496121,-8.225076974371076,-0.2836215929044891,-0.000057273078709840775,0.006061941385269165,5.271488450306654,0.009750843048095703
1746229485730247000,4.364246826171875,0.10412158973136645,0.015073473565280437,-0.01389548487202555,0.004427775740623474,0.20025285621558103,0.9376253831823215,0.4512359175364138,right,-0.001879274845123291,-0.5678646941874798,0.8592709971062839,-8.222733626115321,-0.2838382430227356,-0.010766474530100822,0.0024102404713630676,5.274342086172104,0.005351901054382324
1746229485770247000,4.404246826171875,0.10520658064600123,0.01956651732325554,-0.013674234986655313,-0.004950457252562046,0.2009109424810051,0.9374142008819714,0.4530058938587437,right,-0.0032950639724731445,-0.5681793058531944,0.8680177826635539,-8.220145947709678,-0.2840813077101349,-0.011436359025537968,0.001878894865512848,5.2769432085812085,0.005539357662200928
1746229485810247000,4.444246826171875,0.1068125229122603,0.048731304705142975,-0.013203218395129742,0.027582090348005295,0.20156603281306437,0.937220440934466,0.4549031590041469,right,-0.0023086071014404297,-0.568283945171342,0.8811588576570153,-8.218192475554346,-0.28427883274056154,-0.005138986278325319,-0.002386823296546936,5.277808300977945,-0.0019980669021606445
1746229485850247000,4.484246826171875,0.10909414622113305,0.0652720183134079,-0.012456759387305614,0.01859961822628975,0.20248164001607957,0.9370252455685959,0.45750057500929703,right,-0.00033992528915405273,-0.5678814448399465,0.9001386487413198,-8.218271386009453,-0.28430541107850354,0.014434292912483215,-0.000891365110874176,5.274480617859959,-0.00023102760314941406
1746229485890247200,4.5242470703125,0.1110450984085787,0.05107201635837555,-0.011879993136925062,0.023302583023905754,0.2035912029000965,0.9368254894208466,0.46038439581299045,right,0.0006784796714782715,-0.5672576158441576,0.9165347800079733,-8.21976834656894,-0.2841958765871284,0.004182483069598675,0.00014531612396240234,5.269322212183475,0.0010259151458740234
1746229485930247200,4.5642470703125,0.11263160975605245,0.03286805376410484,-0.011395058012050862,0.025891007855534554,0.20437553757410334,0.9366657618122628,0.46249599113177253,right,0.0021665096282958984,-0.5669001383819935,0.9297860373776405,-8.220175173804163,-0.2841792468490958,0.0035492130555212498,0.0014764443039894104,5.266365115943551,0.00321352481842041
1746229485970247000,4.604246826171875,0.11356502871430299,0.016588246449828148,-0.011057915640832357,0.027548257261514664,0.20469679486848186,0.936611522381123,0.46343039591752094,right,0.0026404857635498047,-0.5666216215620714,0.9376246951140462,-8.220760280215739,-0.2841400420658974,0.002734967041760683,-0.0009612590074539185,5.264060930654407,0.00443035364151001
1746229486010247000,4.644246826171875,0.11445563142269236,0.006720632314682007,-0.010661283707818008,0.023211101070046425,0.20465077565765918,0.9366029859746796,0.4635986771681191,right,0.0018641352653503418,-0.5665922183863468,0.9449634405042976,-8.220075805082917,-0.28421659671773275,0.002002842491492629,-0.002254672348499298,5.263817769548297,-0.0024449825286865234
1746229486050247000,4.684246826171875,0.11561527293530657,0.006406095810234547,-0.010127828893448937,0.030464764684438705,0.20454346024539916,0.9366046397134993,0.4637141914149882,right,-0.0035220980644226074,-0.5665344286670561,0.9545302372075617,-8.219276763659716,-0.28430778646481486,-0.003370382124558091,0.0011139661073684692,5.263339630642533,0.0035953521728515625
1746229486090247000,4.724246826171875,0.11687234968410914,0.046025026589632034,-0.009639909657088322,0.01834661327302456,0.20473996029583602,0.9365426693063797,0.4645032437092714,right,-0.003391861915588379,-0.5664377203848076,0.9649211367100476,-8.218575921913981,-0.2843875738364623,0.0023318787571042776,-0.0012949705123901367,5.262539420175552,-0.005007922649383545
1746229486130247200,4.7642470703125,0.11803143121605501,0.025968199595808983,-0.009360226104684625,-0.010770587250590324,0.20548263646486223,0.9363625068343828,0.4664296823018772,right,-0.003305375576019287,-0.5663454637949856,0.9745036424390972,-8.217934116879105,-0.2844544514884148,-0.010792136192321777,-0.00039158761501312256,5.261776034587621,-0.005042612552642822
1746229486170247200,4.8042470703125,0.11753307101574689,-0.0031804274767637253,-0.009713005785051416,0.061175137758255005,0.20557329050430195,0.9362378345158338,0.4665775915963754,right,0.008026182651519775,-0.5671741249074791,0.9698963678393513,-8.21408562475741,-0.28478731658335016,-0.02210651896893978,-0.0022655725479125977,5.268631891831755,0.0031983256340026855
1746229486210247000,4.844246826171875,0.12173413987370289,0.014251487329602242,-0.007916182354824126,0.05983270704746246,0.20537202360722054,0.9361186892068784,0.4674724397533253,right,-0.00869739055633545,-0.5675278529362984,1.0041692973844707,-8.208088430169225,-0.28537918333906015,-0.03149915114045143,-0.00313018262386322,5.271557423889637,0.002247929573059082
1746229486250247000,4.884246826171875,0.12499637657088579,0.027363579720258713,-0.006661926403477686,0.05316978320479393,0.20552182323317483,0.9359081717751084,0.46886819334795365,right,-0.005668759346008301,-0.5681395795124685,1.0305383950024842,-8.201567503967881,-0.28599305976823347,-0.019345741719007492,0.0010755658149719238,5.276614707279205,0.0010456442832946777
1746229486290247000,4.924246826171875,0.12803653218145664,0.04367099702358246,-0.005594834175972401,0.02953832782804966,0.2061042030337727,0.935648438106843,0.47108487430829127,right,-0.012011170387268066,-0.5684570054617615,1.0552537340641022,-8.196734676983953,-0.28644632895619154,-0.019494013860821724,0.00009786337614059448,5.279238626042008,0.002173304557800293
1746229486330247000,4.964246826171875,0.12983045258970172,0.06705055385828018,-0.0051758385159786785,-0.01374143548309803,0.2070955281226688,0.9353392504890451,0.4737899164325763,right,-0.008753836154937744,-0.5687257337382174,1.0697726002167909,-8.193421606913208,-0.28674890880426873,-0.01701347716152668,0.000514589250087738,5.281459224700927,-0.0009510517120361328
1746229486370247000,5.004246826171875,0.130307328157114,0.02667240798473358,-0.0053578969568380125,-0.029148008674383163,0.20829484118918573,0.9350424977938566,0.47651663959201196,right,-0.004502832889556885,-0.5688412067641279,1.073600487941876,-8.192305754625798,-0.28684474457674247,-0.005500460974872112,0.00760602205991745,5.282413164424896,0.004963099956512451
1746229486410247200,5.0442470703125,0.13002303373175622,0.027348658069968224,-0.0056690095650930505,-0.036383867263793945,0.20906555101052032,0.9349248673043963,0.47803428642303086,right,-0.004438519477844238,-0.5685185376558143,1.071492336681485,-8.194300727835298,-0.28666144304899827,0.0017107841558754444,0.0037557706236839294,5.279746575564146,0.0011785626411437988
1746229486450247200,5.0842470703125,0.12972736758024686,0.029746513813734055,-0.006058853916202675,-0.02379244565963745,0.20991687337038473,0.9347390582496184,0.47976838443877395,right,-0.0015813708305358887,-0.5685438563319639,1.0690522500529884,-8.194484267708658,-0.2866371273446479,-0.02058025263249874,0.0018993541598320007,5.279955834400654,-0.0012684464454650879
1746229486490247000,5.124246826171875,0.13091291535954525,0.045681506395339966,-0.00596223644492912,0.014814548194408417,0.2107342249670878,0.9343657474805429,0.4820291104573246,right,0.002260923385620117,-0.5696259812349408,1.07801998488456,-8.18754190122485,-0.2872559440072467,-0.044036611914634705,0.0015922784805297852,5.28889551218152,-0.005771458148956299
1746229486530247000,5.164246826171875,0.13202167831194284,0.04736940190196037,-0.0058319916726487595,0.005861395969986916,0.21116781443489732,0.9340299465622889,0.48349547309720187,right,0.0003911256790161133,-0.5710581950862615,1.0860991003133356,-8.178824341762065,-0.2880312274883344,-0.03075217455625534,-0.003936611115932465,5.300717467400431,-0.00684046745300293
1746229486570247000,5.204246826171875,0.135240666153033,0.1206333190202713,-0.005032996502273211,0.015278090722858906,0.21264371382004943,0.9334941806557836,0.48775169266113044,right,-0.0011691451072692871,-0.5717844818036053,1.1119015770245342,-8.171468718302249,-0.2886965375603967,-0.02989542856812477,-0.0020327866077423096,5.306708816769719,-0.0012597441673278809
1746229486610247000,5.244246826171875,0.13912350692391884,0.09966301918029785,-0.004197625893104643,-0.007202307693660259,0.21511998241997515,0.9327718824475187,0.4942961012736593,right,-0.0024782419204711914,-0.5720289319012136,1.1434417206048966,-8.165804701191187,-0.28920957006181347,-0.028991393744945526,0.0033658817410469055,5.308724248245358,0.010238230228424072
1746229486650247200,5.2842470703125,0.139669760176916,-0.0006553381681442261,-0.004455569374440952,-0.02838781103491783,0.21640481874969783,0.9323704248155533,0.49730798503368107,right,0.0002791285514831543,-0.5726344793997705,1.1474543903123586,-8.16199420299232,-0.28954142932673843,-0.03207411989569664,0.010141156613826752,5.313716649705171,0.015513002872467041
1746229486690247200,5.3242470703125,0.13841180345643095,-0.05029210448265076,-0.005084291025239633,-0.0037571117281913757,0.21589764002757664,0.9322773366181365,0.49607816250986336,right,0.004036366939544678,-0.574369582846129,1.135912274948135,-8.154287281876803,-0.2902088505790719,-0.03692774102091789,0.011780090630054474,5.328009378951788,0.00923454761505127
1746229486730247000,5.364246826171875,0.13801908009601555,-0.009328935295343399,-0.0054614596371522885,0.0010123886168003082,0.21565318706737097,0.9320642045263343,0.4957109327538926,right,0.006164193153381348,-0.5763202301281484,1.1312778200805187,-8.144423474988342,-0.291067223899502,-0.03127889335155487,0.01253063976764679,5.344059180998802,0.008880078792572021
1746229486770247000,5.404246826171875,0.13839234221236968,-0.007452697027474642,-0.005547143634731281,0.00303035625256598,0.21582089641024096,0.9318273737148379,0.4963722953879046,right,0.010727524757385254,-0.5776066277315383,1.1333684356842189,-8.137184755906462,-0.29169889128682785,-0.008946485817432404,0.006489761173725128,5.354632597461342,0.005713701248168945
1746229486810247000,5.444246826171875,0.13919267082771167,-0.0011591734364628792,-0.005020388335764226,-0.0024115953128784895,0.2153593702107178,0.9319543008751936,0.4955875882362478,right,-0.001362144947052002,-0.5772961922458727,1.140111041812226,-8.137920668965577,-0.29164408936872627,0.0167594812810421,0.00439850240945816,5.35208174393475,0.0032287240028381348
1746229486850247000,5.484246826171875,0.13957056886205618,0.03932148963212967,-0.00520025856452797,-0.019631225615739822,0.2166899751646584,0.9317098483369114,0.49848613318080603,right,0.012225449085235596,-0.5767727680787418,1.1435758683785795,-8.140262263655663,-0.2914361922033223,0.013835068792104721,0.010178498923778534,5.347779662826657,0.013732314109802246
1746229486890247200,5.5242470703125,0.13952020836687604,0.012529157102108002,-0.0054054673209155595,-0.037946637719869614,0.21751645280291257,0.9315912227118645,0.5001722736330645,right,-0.00044280290603637695,-0.5762729831179721,1.1435374360643327,-8.142965677395463,-0.2911958904337968,0.009722116403281689,0.005151174962520599,5.3436704739421605,0.010122120380401611
1746229486930247200,5.5642470703125,0.13874799980996325,-0.030876077711582184,-0.005675859040197666,-0.014593172818422318,0.2175890326111697,0.9316730619128615,0.5000122074287306,right,-0.0013194084167480469,-0.5757567572385242,1.1376304039776324,-8.146577438151835,-0.2908744024872556,0.009649337269365788,0.0029392167925834656,5.339425091457366,0.005906283855438232
1746229486970247000,5.604246826171875,0.1376206409231734,-0.05780689790844917,-0.005838437577428655,0.009003294631838799,0.21664097501067045,0.9319441649203988,0.497610355376981,right,-0.0000896453857421875,-0.5756513741079274,1.128522749218717,-8.148411667841673,-0.2907103419863498,0.01327548548579216,-0.0015112385153770447,5.338558245494961,0.002225160598754883
1746229487010247000,5.644246826171875,0.13710528028207872,-0.02566056326031685,-0.00575710883261188,0.027598300948739052,0.21577511231325622,0.9321884411034062,0.4955644490112917,right,0.0025714635848999023,-0.575460863564529,1.1244622217815368,-8.14999981381595,-0.2905726892626254,0.019757108762860298,-0.00466349720954895,5.336991142308712,-0.0033142566680908203
1746229487050247000,5.684246826171875,0.137064257638243,-0.0130024878308177,-0.005532808105058699,0.018772127106785774,0.2152040678421694,0.9323841309372591,0.494264983984079,right,0.0035867691040039062,-0.5750287704343534,1.124442859493941,-8.152329718068241,-0.29037257863864724,0.027511611580848694,-0.003310464322566986,5.333435495653748,-0.0049721598625183105
1746229487090247000,5.724246826171875,0.13809660997048395,0.02869350090622902,-0.005015220261480664,0.007788804359734058,0.21534584252942077,0.9324441103615496,0.4947672438096524,right,-0.005058586597442627,-0.574165836473951,1.133491477541998,-8.155719945028423,-0.29008417677266807,0.015596357174217701,-0.004334740340709686,5.326331801128387,-0.005620300769805908
1746229487130247200,5.7642470703125,0.13902486573841755,0.0928957462310791,-0.004878033225873583,-0.015194577164947987,0.21659299489828848,0.9322572082419535,0.4976010589970382,right,-0.004784286022186279,-0.5732582029517189,1.1417310442294926,-8.159448610162734,-0.2897586435168359,0.020568175241351128,-0.001681782305240631,5.318856350681186,-0.005311548709869385
1746229487170247200,5.8042470703125,0.14126842172039603,0.0840088352560997,-0.004219157256420934,0.028742540627717972,0.21816114668516526,0.9320155669919987,0.5014671472733339,right,-0.0024576783180236816,-0.5719053470452172,1.1610464239437133,-8.163983330982923,-0.28936977476879505,0.01769194006919861,0.002297818660736084,5.307705426591634,0.002659618854522705
1746229487210247000,5.844246826171875,0.1438376512385578,0.05066908895969391,-0.0033223066999604326,0.025538083165884018,0.2191961727139697,0.9318209820603298,0.504353121954556,right,-0.0031551718711853027,-0.5709956893012682,1.1827093166321516,-8.165748587089777,-0.2892259293604349,0.012789450585842133,0.0020606517791748047,5.300201919093728,-0.001803576946258545
1746229487250247000,5.884246826171875,0.14637953578081436,0.04720845818519592,-0.0024079261526017436,0.028932839632034302,0.2201966401916939,0.9316489954835546,0.5071381239331265,right,-0.0037580132484436035,-0.569970896199789,1.2042534783117473,-8.168084921082853,-0.2890289766323763,0.008342191576957703,0.004294648766517639,5.291743887349963,0.005066514015197754
1746229487290247000,5.924246826171875,0.14853332645132897,0.06186492368578911,-0.0016545598963812024,0.017695363610982895,0.2211218854048309,0.9314842686633128,0.509661405610228,right,-0.001248478889465332,-0.5690909345233112,1.2225316969979554,-8.170074049073458,-0.2888587505169224,0.02662462182343006,-0.001755937933921814,5.28447652669549,0.00031697750091552734
1746229487330247000,5.964246826171875,0.14980691590364442,0.05454821512103081,-0.0011892310507700806,0.0038524847477674484,0.22209286686276178,0.9314255791075463,0.5119147489838763,right,0.00028818845748901367,-0.567584858356557,1.2341224007442593,-8.17637110339105,-0.28830479824380173,0.034498415887355804,-0.0002301335334777832,5.272028548532724,0.0011699199676513672
1746229487370247000,6.004246826171875,0.15157790593739398,0.05595139414072037,-0.00041360811968879294,0.045224279165267944,0.22280735855074982,0.9314276257826474,0.5137497527765181,right,-0.001594841480255127,-0.5659500177665434,1.2499005462430417,-8.182681601712106,-0.28774841101328075,0.04083520919084549,0.0001971125602722168,5.258503296527266,-0.0012814998626708984
1746229487410247200,6.0442470703125,0.15332620650573978,0.016559656709432602,0.0004741985295693584,0.03973881155252457,0.22310142301815286,0.9315204162246218,0.5146820010343114,right,-0.0019663572311401367,-0.5643777134998245,1.2654654873825608,-8.18864489403069,-0.28721953684908247,0.031735606491565704,-0.0007775276899337769,5.245481902390718,0.0033181309700012207
1746229487450247200,6.0842470703125,0.15508430742952886,0.00733674131333828,0.0013756840355592867,0.0311490036547184,0.22316352701518405,0.9316092756046985,0.5151794377718643,right,-0.000972449779510498,-0.5632137098210953,1.28080231885463,-8.192434349441529,-0.28688008013680333,0.02235507406294346,-0.0013611763715744019,5.2358331995576615,0.0004432797431945801
1746229487490247000,6.124246826171875,0.1566190210437725,0.020479194819927216,0.00221900900880855,0.054936423897743225,0.2230636059692472,0.9317305256280657,0.5152730726399432,right,-0.0019994378089904785,-0.5621429596357745,1.2942474913612008,-8.195991749662161,-0.28655848229368913,0.03207431361079216,-0.004361927509307861,5.226951973965764,0.0011490583419799805
1746229487530247000,6.164246826171875,0.1599582682838393,0.06366491317749023,0.0036750249535015757,0.049642764031887054,0.22351566933630493,0.9316724276761742,0.5170842498645132,right,-0.0037177205085754395,-0.5609395220082575,1.3226096624925732,-8.197828317439555,-0.28638006967929625,0.012057671323418617,-0.002244919538497925,5.21696249487102,0.0006930828094482422
1746229487570247000,6.204246826171875,0.16197345540329613,0.014454219490289688,0.004418916096241354,0.030598219484090805,0.22401123834619127,0.9315219027214081,0.5187213522724854,right,-0.0011820197105407715,-0.5606420938639257,1.3393772574201226,-8.196677393838764,-0.28647199699011927,-0.0035783369094133377,0.00021003186702728271,5.214492305365204,0.0010683536529541016
1746229487610247000,6.244246826171875,0.1627312319434283,-0.023376084864139557,0.004978429033147949,0.04265037551522255,0.2234057198227251,0.9316879753962418,0.5176004277181557,right,0.00026291608810424805,-0.5602975975097865,1.3458791866600512,-8.197432596120239,-0.28639563273466206,0.013076268136501312,-0.001959562301635742,5.211631070715189,0.0010777711868286133
1746229487650247200,6.2842470703125,0.1630923682338985,-0.029275137931108475,0.00539704821678702,0.016389936208724976,0.2226680686154341,0.931886994931382,0.5160882989316599,right,-0.0029851198196411133,-0.5600435018238938,1.3490544556953012,-8.198252095809579,-0.28631505647608,0.007938475348055363,-0.0024214237928390503,5.209519777649641,-0.001943051815032959
1746229487690247200,6.3242470703125,0.16312861984251104,-0.011344483122229576,0.005591302294234309,0.0254257470369339,0.2221642766088397,0.9320277856089743,0.5149939023817842,right,0.0006402730941772461,-0.5598877615010711,1.3494833486318587,-8.199003790959715,-0.28624440356345066,0.014647630974650383,-0.0017720609903335571,5.208225646185874,0.0007700920104980469
1746229487730247000,6.364246826171875,0.16489436052028505,0.026756176725029945,0.006459218056183618,0.0462772399187088,0.22208681504904068,0.9320701077214217,0.5152700987459994,right,-0.000690460205078125,-0.5592517223402311,1.3645020540654658,-8.199874144053458,-0.28614858319684106,0.010289706289768219,-0.00024455785751342773,5.202939814737439,0.0004413127899169922
1746229487770247000,6.404246826171875,0.1645482182820033,-0.0745304673910141,0.006357690308320245,-0.027837209403514862,0.22172220494894257,0.932108867697789,0.5144495881297418,right,0.001965045928955078,-0.5596852819393758,1.3612940518043934,-8.198119993862509,-0.2863071181153643,-0.0068132393062114716,0.002251341938972473,5.206543392187356,0.00005227327346801758
1746229487810247000,6.444246826171875,0.16201470082118605,-0.01627381145954132,0.005377079877752848,-0.022040456533432007,0.22113433707452507,0.9322588708724824,0.5125027565710703,right,-0.00033217668533325195,-0.5602772749887642,1.3400221311949192,-8.198499348568916,-0.2862934485347621,-0.006991288624703884,0.004873335361480713,5.21146214388907,0.0009094476699829102
1746229487850247000,6.484246826171875,0.16082638278944414,0.01189199835062027,0.0047699314493760015,-0.03715408593416214,0.22132565338173604,0.9322142717110057,0.5125952794952806,right,-0.001309514045715332,-0.5605799393479735,1.330026222359389,-8.198528574663401,-0.2863016034675532,-0.005413135979324579,0.00590650737285614,5.213976172536611,0.0030369162559509277
1746229487890247200,6.5242470703125,0.16023930226168373,0.023268934339284897,0.004383106367436677,-0.042254090309143066,0.22191454891462137,0.9321336420399222,0.5136365219177147,right,-0.0022925138473510742,-0.5603091194225043,1.325438017786294,-8.200701242527366,-0.2861142445873374,0.0027187340892851353,0.006691917777061462,5.211726347783207,0.006219387054443359
1746229487930247200,6.5642470703125,0.16007057681333475,0.03444956988096237,0.004098576635173927,-0.017475003376603127,0.22275519460045615,0.9319798270322562,0.5153438198661004,right,0.0011796355247497559,-0.5600202994405794,1.3242941084481774,-8.20241038453281,-0.2859661441307567,0.003195138880982995,0.007413625717163086,5.209326885426044,0.006244659423828125
1746229487970247000,6.604246826171875,0.16111168144237376,0.03335152193903923,0.004387461452379805,0.000863363966345787,0.22353580933768163,0.9318357056043108,0.5172495321416649,right,-0.0013225674629211426,-0.5594474925545533,1.3333115276403724,-8.20397164250016,-0.28582265543230906,0.013570274226367474,0.007007509469985962,5.204567123678326,0.008257031440734863
1746229488010247000,6.644246826171875,0.16172148205939899,0.022478338330984116,0.004641519712245267,-0.007547135464847088,0.2240345181495223,0.931828522515579,0.5183570679847194,right,0.0007700324058532715,-0.5584870188598613,1.3391183142229914,-8.208086676603555,-0.28545135604035704,0.035013116896152496,0.005483642220497131,5.196581385621428,0.0032408833503723145
1746229488050247000,6.684246826171875,0.16155532220482086,0.027976712211966515,0.004655040238602825,-0.009078450500965118,0.22456970596883383,0.9319282579260488,0.5192072217207436,right,0.0021349191665649414,-0.5568996635126273,1.3390795896477996,-8.216440078929066,-0.2847041233134786,0.04060225561261177,0.005626201629638672,5.18337352900207,0.005089223384857178
1746229488090247000,6.724246826171875,0.16215573996208668,0.019194435328245163,0.004946174303598845,0.0018947320058941841,0.2250846579915673,0.9319562966904901,0.5203009932561053,right,-0.0018129944801330566,-0.5556527242201297,1.3450551569260656,-8.22200706540644,-0.2842003194239257,0.026890572160482407,0.005621418356895447,5.172988913109898,0.001802980899810791
1746229488130247200,6.7642470703125,0.16222623456037538,-0.03048603981733322,0.005062434555825776,-0.020665321499109268,0.22521212625373543,0.9320348857184779,0.5204707448758171,right,-0.008984684944152832,-0.5548505729135185,1.3463045724652707,-8.226004610610008,-0.2838394504230823,0.009937256574630737,0.006357371807098389,5.166304320779442,0.008747994899749756
1746229488170247200,6.8042470703125,0.1608580723460033,-0.028352336958050728,0.004615541122540139,-0.01726565882563591,0.224772224342702,0.9321891386635062,0.5191125863421958,right,-0.0014955997467041016,-0.5548650774178848,1.3350367439977824,-8.227764606019853,-0.283688949805324,0.002898445352911949,0.002119019627571106,5.166425316810607,-0.002004861831665039
1746229488210247000,6.844246826171875,0.1596556218171202,-0.004972461611032486,0.004233826731660759,-0.019790785387158394,0.22451361101388628,0.9323384501194258,0.5181439345604788,right,-0.0028104186058044434,-0.5545545078000244,1.3253972473844886,-8.230947912231088,-0.2834087381560037,0.020455002784729004,0.004174083471298218,5.163836469361185,-0.0005543828010559082
1746229488250247000,6.884246826171875,0.1595858792045776,0.035016294568777084,0.004210362824074116,-0.022246530279517174,0.2250445036651884,0.9323629903841881,0.519095229535553,right,-0.0045043230056762695,-0.5534775901413405,1.3257061672031878,-8.236525420102476,-0.28290689179119194,0.020438093692064285,0.0011607706546783447,5.154855290526151,0.0013898611068725586
1746229488290247000,6.924246826171875,0.1587898386183535,-0.0010818839073181152,0.003879133504522854,-0.0444134958088398,0.22559193225103583,0.9324131524916407,0.5198578312765915,right,-0.005901634693145752,-0.5523728509107256,1.3200488720938564,-8.24319656842947,-0.28230986992493345,0.017425624653697014,-0.0007050484418869019,5.145635626760125,0.0019286870956420898
1746229488330247000,6.964246826171875,0.15805823851406428,0.028556540608406067,0.0035990379260033155,-0.017052100971341133,0.22602537043717508,0.9324781962633191,0.5204070110944956,right,-0.005128026008605957,-0.5513376923773093,1.314855395103991,-8.249415881335734,-0.28175142665964387,0.02173987403512001,-0.0003502964973449707,5.1369911325335496,-0.002337515354156494
1746229488370247000,7.004246826171875,0.15898626277366668,0.05628567934036255,0.0039314329421484325,-0.0006659179925918579,0.22692546467511343,0.9324137436536365,0.5224093559966095,right,-0.0016592144966125488,-0.549983182835409,1.3236109484896064,-8.255054764005541,-0.2812362965881133,0.02178996242582798,-0.001556396484375,5.12567128161788,-0.004037022590637207
1746229488410247200,7.0442470703125,0.1594655315135279,0.016987338662147522,0.004062330652443874,-0.039269398897886276,0.22777808906872568,0.9323519547372799,0.5242002143919879,right,-0.006766974925994873,-0.548800600156437,1.328528677278012,-8.260398463121057,-0.2807496421310557,0.0232753437012434,-0.004121750593185425,5.115781171244382,-0.0036415457725524902
1746229488450247200,7.0842470703125,0.15773433981067878,0.0032034004107117653,0.003403099389010172,-0.040428247302770615,0.22817412132996473,0.9324889936640566,0.5243380416195841,right,-0.004334092140197754,-0.5475594357732992,1.315222767111659,-8.26895060288906,-0.2799808016312542,0.02949477918446064,-0.0016294419765472412,5.1053924636989825,-0.0023197531700134277
1746229488490247000,7.124246826171875,0.15686412364018937,0.016688130795955658,0.0030593653314783444,-0.036478910595178604,0.2286816128283293,0.9325525995647374,0.5249910545378355,right,-0.0064604878425598145,-0.5464211730005987,1.3089334577091039,-8.275826333877443,-0.27935801788548825,0.011143799871206284,-0.00224246084690094,5.095858911678195,-0.002325117588043213
1746229488530247000,7.164246826171875,0.15507764835045787,-0.05945395678281784,0.002362422778153358,-0.05450354143977165,0.2287732787827263,0.9326721109851352,0.5245660127241742,right,-0.004273593425750732,-0.5458509535535473,1.2945954280160368,-8.281020979911089,-0.27889034560320564,0.010286899283528328,0.001267850399017334,5.0910804452300065,0.0011066794395446777
1746229488570247000,7.204246826171875,0.15227555668445245,-0.03745327144861221,0.0014722645956873417,-0.032367460429668427,0.22789288542264913,0.9330187382779812,0.5218052044397381,right,-0.0031591057777404785,-0.545611486665865,1.2715711107812822,-8.285821073669196,-0.27845739234461664,0.009068677201867104,-0.000578656792640686,5.089073197060823,-0.0007925033569335938
1746229488610247000,7.244246826171875,0.1494117706505657,-0.018656549975275993,0.00040047034644142117,-0.06191650405526161,0.22768388941927875,0.9332425640960855,0.520422953142728,right,-0.0013232827186584473,-0.5450714629221479,1.2482460570342837,-8.292145015993714,-0.2778814320745309,0.02684997208416462,0.0027001947164535522,5.084545490503311,0.00022345781326293945
1746229488650247200,7.2842470703125,0.14761900577862308,0.00893508642911911,-0.0000997818640867167,-0.016739431768655777,0.2276731875347211,0.9335375351560243,0.5196176891902711,right,-0.002534925937652588,-0.5433831165851911,1.2346389719642699,-8.302848780837655,-0.27689799153242767,0.0483001172542572,0.003283783793449402,5.070380187028646,-0.00004571676254272461
1746229488690247200,7.3242470703125,0.14786401334198587,0.03443444147706032,0.00009622638634789317,-0.04035208374261856,0.22839070309659487,0.9336249744659446,0.5209356432575374,right,-0.007665097713470459,-0.5414013514896717,1.238151217868924,-8.312468257576226,-0.2760109285264578,0.030927302315831184,-0.0012507438659667969,5.053735341697931,-0.001302957534790039
1746229488730247000,7.364246826171875,0.14736313928180186,0.013944810256361961,-0.00009734541924716099,-0.024939194321632385,0.2290507803365436,0.9336706878006779,0.5219961657389274,right,-0.003367304801940918,-0.5400037469052562,1.2350234412372112,-8.320065873098374,-0.2753083169640746,0.020353667438030243,0.0006102323532104492,5.0419846981495615,0.001584172248840332
1746229488770247000,7.404246826171875,0.14796417215766047,0.03793179243803024,0.0001872673631757622,0.015560287982225418,0.22947343927908515,0.933681849193307,0.5229324448580052,right,-0.002797842025756836,-0.5390097817419581,1.2407621310196817,-8.324275015226005,-0.2749182535504204,0.017591815441846848,-0.0016139522194862366,5.033621358951926,0.0017563700675964355
1746229488810247000,7.444246826171875,0.14932110735519835,0.04594239220023155,0.0006516766195606581,-0.0024828221648931503,0.2304110291936384,0.9335471183556181,0.525185547216534,right,-0.005685150623321533,-0.5379616386921672,1.2528406913481651,-8.327796175089478,-0.2745908061088759,0.027672264724969864,-0.0014453232288360596,5.024797416505217,0.0026184916496276855
1746229488850247000,7.484246826171875,0.1499385552608887,-0.002821575850248337,0.0010177382064154646,0.007632493041455746,0.23077970360785421,0.9336196696952688,0.5259547114030249,right,-0.002581954002380371,-0.5365980818856012,1.2590046208053827,-8.333788108980656,-0.2740328480516879,0.03444172814488411,0.0007842481136322021,5.0133098078072065,0.0023847222328186035
1746229488890247200,7.5242470703125,0.14777969601879562,-0.07563687860965729,0.0003679950130402662,-0.05994551628828049,0.23014030043189715,0.9339247789733,0.5238718859041064,right,-0.005906581878662109,-0.5360537415349621,1.2414119732305406,-8.339184415066242,-0.273532006784226,0.011223513633012772,0.00009205937385559082,5.008720726451277,-0.0008295178413391113
1746229488930247200,7.5642470703125,0.1422849148481783,-0.11995825171470642,-0.0015851559960075067,-0.0766322985291481,0.22853306690092828,0.93443435252525,0.5188958521686771,right,0.0006819367408752441,-0.5365540643164878,1.1952158931143582,-8.343398233368992,-0.2731346581519619,0.008065907284617424,0.004236392676830292,5.012938636407256,-0.00024259090423583984
1746229488970247000,7.604246826171875,0.13808539224090485,-0.0704590305685997,-0.00290959929902508,-0.03338341414928436,0.22692914940115347,0.9349623924167086,0.5142353575349768,right,-0.001680612564086914,-0.5365366966564764,1.1601791395898908,-8.348430382317304,-0.27265367420300746,0.020094241946935654,-0.0013511329889297485,5.012791921412944,-0.00112837553024292
1746229489010247000,7.644246826171875,0.1359228680748044,-0.03574744984507561,-0.0035173241327003035,-0.026116391643881798,0.226181640848779,0.9353015431234125,0.5119134650241741,right,-0.004567503929138184,-0.5358702656815548,1.142575166903436,-8.354227670419215,-0.27210390273960694,0.01982615888118744,-0.004606522619724274,5.007174081531167,-0.0013794302940368652
1746229489050247000,7.684246826171875,0.13399021640245015,-0.06863433122634888,-0.004057720753631067,-0.01547336671501398,0.2253912335387899,0.9356041340522078,0.5096083750717912,right,-0.0013214349746704102,-0.5354847554629958,1.1266850123975425,-8.358332767650484,-0.27171152389671765,0.01160940621048212,-0.004352018237113953,5.00392297078073,-0.003968715667724609
1746229489090247000,7.724246826171875,0.13083717740453904,-0.10165120661258698,-0.004952631611724195,-0.02479410544037819,0.22380332196085273,0.9360767257775429,0.5053040970718187,right,-0.0035156607627868652,-0.535515255243435,1.1003053933855145,-8.361692014950513,-0.2713812793584974,0.005792898591607809,-0.006503067910671234,5.004180160412192,-0.0019131898880004883
1746229489130247200,7.7642470703125,0.12715825616874826,-0.10858552902936935,-0.006067257119585419,-0.026501966640353203,0.22187846516046125,0.936555840939394,0.5002135756254258,right,-0.0027226805686950684,-0.5361633031592357,1.069124511571601,-8.362464752888679,-0.2712860450132526,-0.013372769579291344,-0.006132557988166809,5.0096448555588715,-0.0058023929595947266
1746229489170247200,7.8042470703125,0.12443322831887095,-0.04994494095444679,-0.006904522386212147,0.01623094640672207,0.22034605674557892,0.9368912787718104,0.4962547962330618,right,0.0015794634819030762,-0.5369368819555991,1.045851261077076,-8.361499122726917,-0.27135675386924274,0.009082315489649773,-0.007963761687278748,5.016164612716436,-0.006779074668884277
1746229489210247000,7.844246826171875,0.12496737898256509,0.00893770158290863,-0.006379076000840413,0.04041946679353714,0.2197171960539126,0.9371311110151735,0.49496286156313885,right,-0.0021294355392456055,-0.5361433853773132,1.0508132673986255,-8.364885842555761,-0.27105126121863893,0.030602047219872475,-0.00880182534456253,5.009476513254643,-0.004205167293548584
1746229489250247000,7.884246826171875,0.12875094514680432,0.1451544612646103,-0.0048122222970894656,0.051026370376348495,0.22090593239532802,0.9370088598173264,0.49833120192739405,right,-0.003722667694091797,-0.5341640376398255,1.0837257222454995,-8.37066734856665,-0.27053939082488637,0.026485390961170197,-0.013821035623550415,4.9927796454757445,-0.003853142261505127
1746229489290247000,7.924246826171875,0.13209818010682498,0.017556563019752502,-0.003788994983946768,-0.016944531351327896,0.2230652407127755,0.936590193030171,0.5037141431973319,right,-0.0050585269927978516,-0.5327293108310021,1.1126805255077779,-8.374085048055647,-0.27023341781814275,0.006654746830463409,0.006133630871772766,4.980664844790101,0.016011357307434082
1746229489330247000,7.964246826171875,0.13450703677939768,0.06172359734773636,-0.003084045867319907,0.006659012287855148,0.22474512329656635,0.9362565641720173,0.507852746930998,right,-0.005087554454803467,-0.5316738848612178,1.1335535829927772,-8.376585048177837,-0.2700064505872063,-0.009634362533688545,0.006461143493652344,4.971746209797263,0.01348721981048584
1746229489370247000,8.004246826171874,0.136860536402482,0.06694790720939636,-0.002448920643478859,0.0018980996683239937,0.2262029544034269,0.9358735919940824,0.5116039117293522,right,-0.00211334228515625,-0.5313651093645533,1.1534741620585323,-8.375414835354686,-0.2701234407990982,-0.0064369020983576775,0.002683967351913452,4.969135735037923,0.005600869655609131
1746229489410247200,8.0442470703125,0.13875299605282904,0.05517993122339249,-0.0019077071643283634,0.005542881786823273,0.22747700049719619,0.9355918866764638,0.5147824837810947,right,-0.0030670166015625,-0.5307155095336856,1.1697683673206716,-8.376412029698491,-0.2700336795457778,0.004036669619381428,0.005402594804763794,4.963642398318648,0.008436977863311768
1746229489450247200,8.0842470703125,0.1403376935921392,0.03956739977002144,-0.0014307930580974104,0.004035498481243849,0.22834628997336018,0.9353723118765671,0.5170531771252005,right,-0.004238784313201904,-0.5303942690731073,1.183263954840228,-8.376126198494434,-0.2700636105323878,-0.005803320556879044,0.001999586820602417,4.960925540575385,0.006407499313354492
1746229489490247000,8.124246826171875,0.14147026216117597,0.029472075402736664,-0.0011200254593682236,-0.0019154585897922516,0.2290123228337484,0.935188375755672,0.5187879453217241,right,-0.00305330753326416,-0.5302776195417713,1.1928313360653817,-8.375353460556267,-0.2701380105112509,0.004625466652214527,0.0015664994716644287,4.959938867625594,0.0016495585441589355
1746229489530247000,8.164246826171874,0.1419798684055194,0.02007131278514862,-0.000986577480538953,-0.006146635394543409,0.2295362490755111,0.9351018226142228,0.5199934133790984,right,-0.0012055039405822754,-0.5298404928420671,1.1974060235697774,-8.376890168604254,-0.26999348523911926,0.0062499986961483955,0.004269331693649292,4.956240013107657,0.00443577766418457
1746229489570247000,8.204246826171875,0.14234179236397848,0.00999839324504137,-0.0008786427210186648,-0.0009752260521054268,0.2298019019955317,0.9350507548972433,0.5206384208070609,right,-0.0016947388648986816,-0.5296463607436624,1.2005742052771151,-8.377408639520405,-0.2699448970915984,0.00235500349663198,0.0019877254962921143,4.954597506597638,0.0006583333015441895
1746229489610247000,8.244246826171874,0.14237793071873964,0.020318694412708282,-0.0008753789724020385,-0.009223077446222305,0.2300419035848723,0.9350406748176044,0.5211086912074935,right,-0.0012347102165222168,-0.5292716228011709,1.2011403147272766,-8.379202537199854,-0.2697754354751444,0.015144603326916695,-0.00011789053678512573,4.951425306302308,-0.002574443817138672
1746229489650247200,8.2842470703125,0.14269931369427669,0.018753157928586006,-0.0007852392664112521,-0.0002669794484972954,0.23041083759481218,0.9349908956398332,0.5219353976101134,right,-0.0017027854919433594,-0.5288856975034195,1.2041048636212943,-8.380707096543908,-0.2696335047514455,0.0020669642835855484,-0.0006114989519119263,4.948158413460851,-0.000003337860107421875
1746229489690247200,8.3242470703125,0.14315658231172648,0.006820331327617168,-0.0006175919460867115,0.0020073731429874897,0.23065922250163712,0.9349524508233574,0.5225579518608601,right,-0.0029574036598205566,-0.5286020902576118,1.2081371878772973,-8.381544131889939,-0.2695547855099893,0.007221115753054619,0.00039476901292800903,4.945757197538018,0.00232541561126709
1746229489730247000,8.364246826171875,0.14309555703014143,-0.007123395800590515,-0.0005998992311320008,-0.0031087263487279415,0.23062452047461288,0.9349925707324513,0.5224343464761859,right,-0.0032207369804382324,-0.5283803576882636,1.2077820177640766,-8.382702654275297,-0.2694452088373307,0.006282402668148279,0.00049562007188797,4.943879128706455,-0.0010097026824951172
1746229489770247000,8.404246826171875,0.14276399273134618,0.007567492313683033,-0.0006673278651262182,-0.009827511385083199,0.23057573530804015,0.9350685543034407,0.5221775914665862,right,-0.002916097640991211,-0.5279827467796893,1.2052821637723594,-8.38504775609672,-0.26922308097865894,0.004890434443950653,-0.004399232566356659,4.940511113578081,-0.003643035888671875
1746229489810247000,8.444246826171875,0.1430641661537456,0.0213499553501606,-0.0006036603242148338,0.010864777490496635,0.2307864782771074,0.9350029092897515,0.5227188844008153,right,-0.0004500150680541992,-0.528011254359987,1.2077789490241557,-8.38454623631537,-0.2692707159161257,-0.010679124854505062,-0.0014904141426086426,4.9407525211185215,-0.002258896827697754
1746229489850247000,8.484246826171875,0.1441566049015706,0.026739371940493584,-0.0002749822415502036,0.009068160317838192,0.23111833108506408,0.9348464086335262,0.5237848353866514,right,-0.004149436950683594,-0.528298778161674,1.2167336782436817,-8.381815350046754,-0.26952966423619784,-0.01621977798640728,-0.0035271868109703064,4.943188223832846,-0.001499772071838379
1746229489890247200,8.5242470703125,0.14517771769433838,0.02372262254357338,-0.000017143292962668168,0.014462780207395554,0.23148957250410207,0.934657422737737,0.5249420664153723,right,-0.00019484758377075195,-0.5287720045175417,1.2249532981216906,-8.378253273651003,-0.2698665242802557,-0.022723695263266563,-0.0012579858303070068,4.947195705908537,-0.0005595088005065918
1746229489930247200,8.5642470703125,0.1464436102141125,0.017333250492811203,0.00036434653912988574,0.01292886957526207,0.23178554363955772,0.9344763612533057,0.526012133137741,right,-0.0039939284324646,-0.5292604686166592,1.2352055198058485,-8.37430424376428,-0.2702390619922849,-0.011899778619408607,-0.0021406710147857666,4.951331198278069,0.002575993537902832
1746229489970247000,8.604246826171876,0.14705207277480217,0.017982635647058487,0.0005308669856983002,0.006758755538612604,0.23206145131821487,0.9343750956656874,0.5267920865881811,right,-0.0024839043617248535,-0.529352363146511,1.2402341616228223,-8.373101297715305,-0.27035225972882165,-0.0012940950691699982,-0.0012835413217544556,4.952109196913242,0.001810610294342041
1746229490010247000,8.644246826171875,0.14829899904876642,0.03884430229663849,0.0009549056907923786,0.027998996898531914,0.23256030575149025,0.9342386519026118,0.5281879531398239,right,-0.0010606050491333008,-0.5291280326399113,1.2508378270931542,-8.37264653968513,-0.27039394848480613,0.0023427545092999935,-0.0005482733249664307,4.950210085293651,0.0007727742195129395
1746229490050247000,8.684246826171876,0.15008968390878064,0.03734268620610237,0.0016329519895979157,0.026470638811588287,0.2331202020812215,0.9341010862686353,0.5298349149421218,right,-0.0031294822692871094,-0.5286524717245408,1.26618050378412,-8.37272018944323,-0.2703837846204002,0.0020782966166734695,-0.003080219030380249,4.9461833139956,-0.001448988914489746
1746229490090247000,8.724246826171875,0.1514050026381816,0.023593459278345108,0.0020887011197484365,0.009673750028014183,0.23353194520483195,0.9339629721645375,0.5310857746977721,right,-0.006968855857849121,-0.5285741430502565,1.2772506177224219,-8.371430149632692,-0.27050223627819053,-0.011564118787646294,-0.002111196517944336,4.945520466172695,0.0024505257606506348
1746229490130247200,8.7642470703125,0.15118693964242652,0.011008702218532562,0.0019122118016755064,-0.002077171579003334,0.2336146223759761,0.9338991386765133,0.5312561010879608,right,-0.000519096851348877,-0.5289540963467145,1.2751419550053775,-8.36985018696487,-0.2706524035290715,-0.008686420507729053,-0.0021177977323532104,4.94873767465353,-0.004757344722747803
1746229490170247200,8.8042470703125,0.15138572076365236,0.033123746514320374,0.0018597380977359106,0.005558224860578775,0.23394807156577455,0.9337738083949311,0.5320667704030018,right,-0.002078115940093994,-0.5292156128549821,1.276610566253215,-8.368316986048221,-0.2707971516859872,-0.014135684818029404,-0.0016055107116699219,4.950951259049773,-0.002689659595489502
1746229490210247000,8.844246826171876,0.15200132651601164,0.026964537799358368,0.0019600205077856254,-0.004333291668444872,0.23442368413997905,0.9336117126440803,0.5332879218647543,right,-0.003224790096282959,-0.5293751073382128,1.2816422768101094,-8.366748713818192,-0.2709440254096761,-0.008805520832538605,-0.0008000433444976807,4.952301504614949,-0.0020204782485961914
1746229490250247000,8.884246826171875,0.1524301432895996,0.03027288056910038,0.0019881804727450935,-0.010103514418005943,0.2349257909369541,0.9334624351207166,0.5344970419258008,right,-0.0028510689735412598,-0.5294349377697272,1.2851849178530275,-8.365905248731375,-0.2710231561223746,-0.008551431819796562,-0.0016002357006072998,4.952807700571418,0.0003674030303955078
1746229490290247000,8.924246826171874,0.15333836932413406,0.023416098207235336,0.00224892459773174,0.0165623277425766,0.23533703419839228,0.9333201424594844,0.5356495810403645,right,0.001094520092010498,-0.5294853926520402,1.2927443933218716,-8.364487783148885,-0.271154427560283,-0.005367269739508629,-0.0010793209075927734,4.953234986072778,0.002506554126739502
1746229490330247000,8.964246826171875,0.1548796174108142,0.031112834811210632,0.002819729681629818,0.031927332282066345,0.2356872519719545,0.933189101788835,0.5368345226352215,right,-0.0014578700065612793,-0.5293957049714422,1.3057030974857509,-8.362924771615862,-0.27129603561548254,-0.002284933580085635,-0.0011358708143234253,4.9524756921380755,0.0021025538444519043
1746229490370247000,9.004246826171874,0.15663559814927946,0.019148197025060654,0.0034530397163238884,0.02409130334854126,0.23606771637464155,0.9330248619073251,0.5381664784695642,right,-0.0010169744491577148,-0.529433455187951,1.3203570612601936,-8.360434123843907,-0.2715226379901174,0.00009583751671016216,-0.000675499439239502,4.952795425611734,0.0012625455856323242
1746229490410247200,9.0442470703125,0.15694961169096644,-0.00077853724360466,0.003568964092744963,0.0037197191268205643,0.23608368174585231,0.9329980872750799,0.5383050889815247,right,-0.0012149810791015625,-0.5295186837706103,1.3229163903541863,-8.359602349194883,-0.27159924275085184,-0.000436470378190279,0.00008296966552734375,4.953516725623607,-0.0009732842445373535
1746229490450247200,9.0842470703125,0.1570219108915911,-0.0015157521702349186,0.0036146064428019507,0.009735960513353348,0.2359881224419919,0.9330086615202867,0.5381338573023312,right,-0.00010651350021362305,-0.529600998631862,1.3234569269716738,-8.359103752022982,-0.271645413945608,-0.005458035506308079,0.0014807730913162231,4.954213475716114,0.0025267601013183594
1746229490490247000,9.124246826171875,0.15776529635926612,0.014791473746299744,0.003829071482874979,0.013661720789968967,0.2360828930056598,0.9328943353810097,0.5386261208367231,right,0.00045990943908691406,-0.5300755087471322,1.3293011229552327,-8.355795358127356,-0.27195279601719374,-0.01348930038511753,0.002311691641807556,4.958228556576371,0.00165557861328125
1746229490530247000,9.164246826171874,0.15885337014398715,0.02498488500714302,0.004147280986424567,0.020851219072937965,0.23645415133468226,0.9327287889574258,0.5397759688371031,right,0.0026316046714782715,-0.5303133828195794,1.3382054371617733,-8.353179038149118,-0.27219326502646574,-0.0029971497133374214,0.0021057873964309692,4.9602410654425615,0.003957509994506836
1746229490570247000,9.204246826171875,0.16055499385057992,0.026844428852200508,0.004780621259038376,0.030396204441785812,0.2367879265788948,0.932585629575588,0.5409837512642306,right,0.0016561150550842285,-0.5302826150824422,1.3524419061765074,-8.351040272554755,-0.272383110989361,0.006040975451469421,0.0023365318775177,4.959980953201652,0.003020048141479492
1746229490610247000,9.244246826171874,0.16155035372213616,0.03581925481557846,0.005215436889262387,0.011807654052972794,0.23704829658142385,0.9325547855008066,0.5417490976128915,right,-0.0005968809127807617,-0.5297428244900875,1.3611840155586599,-8.352331481409072,-0.2722542741708964,0.01545015349984169,0.00101393461227417,4.9554134991556404,0.004186153411865234
1746229490650247200,9.2842470703125,0.1623628331832708,0.017175456508994102,0.005500914077722359,-0.00041729211807250977,0.23761575438287685,0.9324671816341354,0.5431017512924462,right,0.0013040900230407715,-0.5290903829957828,1.3684920004844665,-8.354411210292577,-0.27205381909423654,0.01943422108888626,0.0026702135801315308,4.949891520863771,0.0029834508895874023
1746229490690247200,9.3242470703125,0.1622673586797779,-0.0019945017993450165,0.005541223647054951,-0.016704564914107323,0.23788767249460585,0.9325346932432322,0.543501479868009,right,-0.001342177391052246,-0.5280912383897454,1.368492585006356,-8.359418224799633,-0.2715834110685509,0.02997661754488945,0.0014911741018295288,4.941430566510558,-0.0006236433982849121
1746229490730247000,9.364246826171875,0.16232664939442726,0.025804201140999794,0.005576299020157644,-0.0030120359733700752,0.23832384373539403,0.9325345371948563,0.5443215989916108,right,-0.0003470182418823242,-0.52723969717851,1.369667766265571,-8.36348649715185,-0.2712005397116253,0.011597694829106331,0.003357499837875366,4.934215228304267,0.0022585391998291016
1746229490770247000,9.404246826171875,0.16289113279905373,0.025414172559976578,0.005794322760577301,0.009159347042441368,0.23873085121078028,0.9324882304320126,0.5452661462520477,right,-0.00009924173355102539,-0.5266463011526152,1.3748632890820502,-8.365600128304958,-0.2709972412132957,0.012169407680630684,-0.0010173022747039795,4.929185417443514,-0.00024569034576416016
1746229490810247000,9.444246826171875,0.1634328253639951,0.006159726530313492,0.006123368259326841,0.026230299845337868,0.23881018411871702,0.932547252895172,0.545476405451982,right,-0.001150667667388916,-0.5258955428462174,1.379996268056333,-8.368502864009141,-0.2707167824930475,0.015754899010062218,0.0007462799549102783,4.922819389542937,0.0027332305908203125
1746229490850247000,9.484246826171875,0.16418163795358234,0.03692016005516052,0.006567127495443874,0.005464546382427216,0.23888118760224533,0.9326198380555458,0.5457055258359584,right,-0.0019264817237854004,-0.5249977209922053,1.3869842272475361,-8.37182411738634,-0.2703934328024362,0.025302663445472717,-0.004150897264480591,4.9152024847984315,-0.003537297248840332
1746229490890247200,9.5242470703125,0.16462091670271298,0.007769301533699036,0.006748938128415632,-0.015923945233225822,0.2395435633164541,0.9325860220324594,0.5470725743035111,right,-0.00408250093460083,-0.523844031621653,1.3915899674773216,-8.3768024903208,-0.26991918192461417,0.017021071165800095,0.0022041499614715576,4.905408820536732,0.0038466453552246094
1746229490930247200,9.5642470703125,0.16480601010157978,0.008624703623354435,0.006966239476867229,0.009760290384292603,0.2395003401058063,0.9326930348550289,0.546911355852347,right,-0.004989922046661377,-0.5230651410463815,1.3937668731249868,-8.38031137522459,-0.26958206098230303,0.019073616713285446,0.004476532340049744,4.898793494050205,0.000037729740142822266
1746229490970247000,9.604246826171876,0.16455130496842293,-0.024478614330291748,0.006998538683016855,-0.01327461190521717,0.2394821250483648,0.9328186381482588,0.5466668204469137,right,-0.00661015510559082,-0.5222224401776713,1.3923080526188014,-8.384735621407627,-0.26916252241278316,0.021125715225934982,0.004478767514228821,4.891632808640599,0.0024739503860473633
1746229491010247000,9.644246826171875,0.1635780551328974,-0.017942065373063087,0.006765157245924809,-0.013117657974362373,0.23919371072406187,0.9330112565117734,0.5456713153894309,right,-0.0047449469566345215,-0.5216031841280462,1.384640002208948,-8.389073942872882,-0.26875728201169297,0.007118127308785915,0.0013127177953720093,4.886368312241137,0.00047090649604797363
1746229491050247000,9.684246826171876,0.16298325284629558,-0.004964136518537998,0.006569750250946832,-0.010049242526292801,0.23917736906746037,0.9330824484480674,0.5454124170496085,right,-0.0009230375289916992,-0.5212648727241761,1.3799180882535873,-8.391526596722006,-0.26852937426663237,0.005087749101221561,-0.0018371790647506714,4.8834915877610445,-0.0005998611450195312
1746229491090247000,9.724246826171875,0.16277698984531924,0.013673006556928158,0.006534342950916213,0.007205180823802948,0.23926036767413586,0.933131793895446,0.5454568111947199,right,-0.00015151500701904297,-0.5207871082520973,1.3785652123399077,-8.39411252156198,-0.2682846481932462,0.0010706880129873753,-0.0025818198919296265,4.879427991583943,-0.00004881620407104492
1746229491130247200,9.7642470703125,0.16404989071300416,0.013857174664735794,0.0069335896816982885,-0.005665399134159088,0.23984565422208348,0.9329520458545183,0.5470553547954158,right,-0.004073679447174072,-0.5206450849332908,1.389362062294781,-8.393034663197398,-0.26837704919013583,-0.006784872617572546,0.00344260036945343,4.8782197848379605,-0.0037232041358947754
1746229491170247200,9.8042470703125,0.16264786254766148,-0.09393109381198883,0.006473275173630543,-0.007498498074710369,0.23926769661052566,0.9331317087324683,0.5454389439243659,right,-0.0002219676971435547,-0.5208100888229029,1.3774630963169037,-8.394179741579293,-0.2682797465472906,0.005804517772048712,0.000056430697441101074,4.879623514156044,0.0018634796142578125
1746229491210247000,9.844246826171876,0.16099621366227568,-0.043002065271139145,0.006144299356098415,0.012353175319731236,0.2378409805332535,0.9335319754282575,0.541937791853259,right,-0.004040420055389404,-0.521009239728451,1.3634411468356846,-8.395483809915184,-0.26816352721791015,0.00871223770081997,0.001422598958015442,4.881317458592355,-0.0019122660160064697
1746229491250247000,9.884246826171875,0.1603445358025356,0.004490058869123459,0.005991014482708903,-0.004934259690344334,0.23760382645163577,0.9336642898292908,0.5411870103115868,right,-0.0021880269050598145,-0.5206468267285486,1.358252053759992,-8.398116496506333,-0.26791660765151337,0.018351200968027115,0.0007006525993347168,4.878234690146148,-0.001237630844116211
1746229491290247000,9.924246826171874,0.16058405427472208,0.004451917950063944,0.006229132969744013,0.025359701365232468,0.23765600419712551,0.9337662491389352,0.541222546723187,right,0.0002123713493347168,-0.5197017648623704,1.361000037293881,-8.40233791359365,-0.2675091778809052,0.023582467809319496,0.00403180718421936,4.870192545726895,0.0026879608631134033
1746229491330247000,9.964246826171875,0.16153927679629565,0.015840280801057816,0.006733943043298251,0.004195567220449448,0.23789301103881544,0.9338046465035064,0.5418463445622995,right,-0.005700051784515381,-0.5186771285255656,1.3698274868719278,-8.40595493504703,-0.267152025862775,0.013070420362055302,0.0013540983200073242,4.861468556523323,0.0030662119388580322
1746229491370247000,10.004246826171874,0.16192211947657623,0.01826479285955429,0.006859685976823855,0.0012847702018916607,0.23840941089161724,0.9337482838873788,0.5429565077419178,right,0.001640021800994873,-0.5179922427464315,1.3735820170998572,-8.40871387836635,-0.2668854140155012,0.013714594766497612,0.0008598417043685913,4.855634151281416,0.0010583102703094482
1746229491410247200,10.0442470703125,0.16302769213881665,0.01962367445230484,0.007297711807579471,0.02475537173449993,0.23896530687823272,0.9336649759587036,0.5443445995158789,right,0.0005690455436706543,-0.5172240763111775,1.3834825027368962,-8.410868426051735,-0.2666679373265591,0.009213418699800968,0.001391574740409851,4.849088090638816,0.0008118748664855957
1746229491450247200,10.0842470703125,0.1648640296363219,0.028135770931839943,0.007988995980093217,0.028854230418801308,0.2394162596969363,0.9335064703202304,0.5458035083632443,right,0.00032460689544677734,-0.5170189855394416,1.3990886526696382,-8.40929430860281,-0.2667985489727011,-0.012184877879917622,0.004275709390640259,4.8473397856667635,0.003179311752319336
1746229491490247000,10.124246826171875,0.16676418130014062,0.040801264345645905,0.008519162460643588,0.02409454435110092,0.24009384453810545,0.9331863205224434,0.5478865458824624,right,-0.002806723117828369,-0.5175782484154297,1.4146147231034933,-8.403945933312178,-0.26729272939268606,-0.027268219739198685,0.0034164786338806152,4.852106561677157,0.0023339390754699707
1746229491530247000,10.164246826171874,0.1673934024501742,-0.025539256632328033,0.008644368983310752,0.0008347183465957642,0.24010008861481896,0.933045153292163,0.5482189049354202,right,-0.0039362311363220215,-0.5184594120996925,1.4191896298035978,-8.398835458430648,-0.2677756927138697,-0.01647738553583622,0.004183381795883179,4.859614160828292,0.00034683942794799805
1746229491570247000,10.204246826171875,0.1665762194294681,-0.01170524675399065,0.008315320564280344,0.003362388117238879,0.23951627107205237,0.9331076558468139,0.5468758090135408,right,-0.0034471750259399414,-0.5193684858648129,1.4115925988033413,-8.395632278475166,-0.2680908814404749,-0.017608044669032097,0.003145277500152588,4.867355568735301,-0.0010156631469726562
1746229491610247000,10.244246826171874,0.16660508708007124,0.00103793665766716,0.008161832847366927,-0.019289374351501465,0.23960267234999683,0.9329697143926344,0.5472065216089779,right,-0.008714258670806885,-0.5202418327164465,1.4111295113362372,-8.391396248340607,-0.2684980962275501,-0.022734509781003,-0.00046947598457336426,4.874788933606445,0.003285318613052368
1746229491650247200,10.2842470703125,0.166364284801187,-0.0005459721432998776,0.008014566506096523,-0.006776987574994564,0.23963097325105176,0.9329423611207552,0.547233009898953,right,-0.004642486572265625,-0.5204653428042005,1.4089283480301498,-8.39066091980338,-0.268572322937325,-0.004358839243650436,0.0037745684385299683,4.876690675574541,0.0028256773948669434
1746229491690247200,10.3242470703125,0.16644434700370728,0.010922541841864586,0.007985029509029675,-0.009164407849311829,0.23980865776229796,0.9328833608312124,0.5476492787309902,right,-0.004422664642333984,-0.5205435242966004,1.409536981447786,-8.390172259503602,-0.26861959634848587,-0.008276484906673431,0.0009234845638275146,4.877355861485004,0.0041956305503845215
1746229491730247000,10.364246826171875,0.1661483058672904,0.005068757571280003,0.007714446055952892,-0.01941494271159172,0.24021718573552497,0.9327682923641848,0.5484655139923263,right,-0.0000457763671875,-0.520706233821347,1.4069218305133282,-8.38980634880066,-0.26866221026155884,-0.004346593748778105,0.002017185091972351,4.878740009319782,0.003235340118408203
1746229491770247000,10.404246826171875,0.16599618950208028,0.011957919225096703,0.007559565482194244,0.002286100760102272,0.2405017254987491,0.9326944026789491,0.5490394508295363,right,0.002941608428955078,-0.5207548168979151,1.4056063640005885,-8.38978647505641,-0.2686685030272546,-0.004068175796419382,0.001376315951347351,4.87915326629579,0.001625657081604004
1746229491810247000,10.444246826171875,0.16644869530377293,0.011693429201841354,0.007677463463928775,0.022772928699851036,0.24052209808407107,0.932615136905582,0.5492813076824611,right,0.0017160773277282715,-0.521185221453551,1.4090546047583221,-8.387077800619602,-0.2689220482852623,-0.0148446224629879,0.0005677640438079834,4.8828141268908976,0.001117408275604248
1746229491850247000,10.484246826171875,0.16734609006792214,0.006117607466876507,0.007941119006527882,0.026797914877533913,0.24053122538962762,0.9324828904932765,0.5496740424207126,right,0.00016456842422485352,-0.5219083718706881,1.4159920028060673,-8.382326222178339,-0.26936447470144653,-0.012133816257119179,0.0015715360641479492,4.8889630049094555,0.0013444721698760986
1746229491890247200,10.5242470703125,0.168686779253959,0.01323220320045948,0.008433413623226891,0.03614955395460129,0.24054777988708337,0.9323651046693369,0.5501710471236512,right,-0.000008165836334228516,-0.5223744519696907,1.42684613590613,-8.378173194152117,-0.2697422959561986,-0.007239697966724634,0.001215711236000061,4.892924602016806,0.000781714916229248
1746229491930247200,10.5642470703125,0.16930796995844383,-0.024479912593960762,0.008707722934631972,0.0164669007062912,0.24022793277956095,0.9323554384149569,0.5497465350900009,right,-0.0017110109329223633,-0.5228883977715841,1.4316263559199869,-8.374805179023742,-0.27005170156140146,-0.0062246304005384445,-0.0025115013122558594,4.8972918573156,-0.001449674367904663
1746229491970247000,10.604246826171876,0.169453220451174,-0.00560905784368515,0.008781186978953852,0.0018901042640209198,0.24007000207816895,0.932362602029709,0.5494834711953918,right,-0.0027093887329101562,-0.5230994253436213,1.432668558449298,-8.37357826757729,-0.2701651083656865,-0.0033828450832515955,-0.001534104347229004,4.899084878212213,0.0011748075485229492
1746229492010247000,10.644246826171875,0.16898815724523256,0.005455078557133675,0.008504785290786776,-0.022902922704815865,0.2401805493841679,0.9323151070435567,0.54963064648779,right,-0.0010799765586853027,-0.5233808867953664,1.4285421261690556,-8.372883855572342,-0.2702394582551801,-0.006878973450511694,-0.0016930997371673584,4.901475572741031,0.00021186470985412598
1746229492050247000,10.684246826171876,0.1683499234225724,0.012288941070437431,0.008183133547999837,-0.014710983261466026,0.2404375211578015,0.9322943067924174,0.5499721507697679,right,-0.0006979703903198242,-0.5232250008338982,1.423325998955965,-8.374547404870391,-0.2700924631103004,0.00324569595977664,-0.0017050355672836304,4.900151630660892,-0.0006023943424224854
1746229492090247000,10.724246826171875,0.16812616956025744,0.01569659262895584,0.007982651954479818,-0.008865732699632645,0.24078345801348242,0.9322099402667707,0.5506541049532113,right,-0.0010883212089538574,-0.5232540117123893,1.4214283486410975,-8.374725684046744,-0.2700816389847825,-0.014062032103538513,-0.0028072893619537354,4.900398006637394,-0.0013426244258880615
1746229492130247200,10.7642470703125,0.16878154069940599,0.027948547154664993,0.008046739756382272,0.01123110018670559,0.24117029506637114,0.9320004068033488,0.5517752592946906,right,0.000729680061340332,-0.523889184722619,1.4263934237025677,-8.370721709102392,-0.27045736574467055,-0.02379576489329338,-0.003665059804916382,4.905792266896367,-0.002977520227432251
1746229492170247200,10.8042470703125,0.17054209691778824,0.04579661041498184,0.008544791345639926,0.0343921035528183,0.24164311776206607,0.9317152791186443,0.5534147708191018,right,0.0008904933929443359,-0.5245964808271257,1.4405389995634554,-8.3647759524405,-0.2710019790578448,-0.02413211576640606,-0.006802037358283997,4.911797060269117,-0.004256099462509155
1746229492210247000,10.844246826171876,0.1733089131250693,0.01549060270190239,0.009487419792769925,0.044402554631233215,0.24215752502590185,0.931401673300205,0.5554105048901473,right,-0.0007666945457458496,-0.5251259944636204,1.4632286780163646,-8.358195405006407,-0.27158901546757586,-0.01719416305422783,-0.0024811923503875732,4.916290864557028,-0.0029204487800598145
1746229492250247000,10.884246826171875,0.1746979797786603,0.018313772976398468,0.009989709353321479,0.03331959620118141,0.242005997344261,0.9312776764869756,0.5556225822362993,right,-0.006951093673706055,-0.5259367154199589,1.4741440397843717,-8.35222685199082,-0.27213069683255353,-0.02597164735198021,-0.006166666746139526,4.92316834911108,0.003608107566833496
1746229492290247000,10.924246826171874,0.17580874836004018,0.01415095292031765,0.010234475030124368,0.004046699032187462,0.24228064906291,0.931042505631079,0.5566837922289758,right,-0.004688739776611328,-0.5268309453168718,1.4826500023230909,-8.346246608537434,-0.27268129646023137,-0.02068687416613102,-0.003559127449989319,4.930750767064095,0.0030063390731811523
1746229492330247000,10.964246826171875,0.17640663056819775,0.0003146650269627571,0.010474597198478125,0.028624920174479485,0.2421501747490456,0.9310099612180961,0.5566308272639664,right,-0.00232851505279541,-0.5271483250976933,1.4873650481462477,-8.343817335563898,-0.2728991718738232,-0.0017941836267709732,-0.005423426628112793,4.933440736800432,0.0009216070175170898
1746229492370247000,11.004246826171874,0.17747516490083037,0.011699588969349861,0.010953987232321286,0.024683011695742607,0.24214592479548477,0.9309862960571125,0.5569116120136729,right,-0.0027341842651367188,-0.5270065569588657,1.496403363995999,-8.342911911156772,-0.27296494328957893,0.002911470364779234,-0.004834026098251343,4.932239544317126,0.003159642219543457
1746229492410247200,11.0442470703125,0.1788334307453205,0.038200460374355316,0.011488148054490699,0.034806229174137115,0.24244745183994362,0.9308877634093519,0.5579131671608666,right,-0.000330507755279541,-0.5267371760297686,1.507970175410062,-8.342178920707106,-0.27301143707949477,-0.0008411644957959652,-0.005963444709777832,4.929955817294121,0.0014012455940246582
1746229492450247200,11.0842470703125,0.18175285246774764,0.04408051818609238,0.012597850376680333,0.0672554224729538,0.24305627154556547,0.9306445588805959,0.5600313521008391,right,0.0019455552101135254,-0.5264568795070557,1.532567733310908,-8.339099659392238,-0.2732499283773356,0.0014883254189044237,-0.0026651471853256226,4.927579735812545,0.0030170679092407227
1746229492490247000,11.124246826171875,0.18387973803250077,-0.010935470461845398,0.013490223674184421,0.03342443332076073,0.2430959378591001,0.9305442376454696,0.5607416254788401,right,-0.0022960305213928223,-0.5264580871643145,1.5502994970954953,-8.335815230894088,-0.27351360941479613,-0.007542682811617851,-0.005166336894035339,4.927589672684669,0.0032065510749816895
1746229492530247000,11.164246826171874,0.1851257344791077,0.0032096076756715775,0.014023091217389021,0.042560018599033356,0.24277140485313975,0.9305028838218962,0.5605034664428348,right,-0.0007956027984619141,-0.5270077962974696,1.5601858080767095,-8.331213290056585,-0.273915431875494,-0.01331050880253315,-0.001996651291847229,4.93225006571114,0.002031266689300537
1746229492570247000,11.204246826171875,0.18669714441848634,0.006102881394326687,0.014659945189136804,0.04136084020137787,0.2426113788558002,0.9304155015988547,0.5607011985207876,right,-0.002447366714477539,-0.5274719402698251,1.5728504977300761,-8.326500874581933,-0.2743203646226218,-0.009283527731895447,0.004371285438537598,4.936183313506842,0.0038858652114868164
1746229492610247000,11.244246826171874,0.18785971479044078,-0.012436428107321262,0.015210404109558364,0.033041566610336304,0.24229217448669826,0.9304187634552903,0.5603959607582005,right,-0.0008890628814697266,-0.5276949580332752,1.5823239901266992,-8.323585279396175,-0.274561271384409,0.003968667238950729,0.006720200181007385,4.938073072776198,0.004539966583251953
1746229492650247200,11.2842470703125,0.1889853129053211,-0.01823657751083374,0.015853859670337894,0.040377967059612274,0.24182517116155214,0.930513117396263,0.5596962864106058,right,-0.0006837248802185059,-0.5275308679425184,1.591844244274497,-8.322594514793158,-0.2746168392764036,0.006930706091225147,0.008851543068885803,4.936683079722523,0.00480574369430542
1746229492690247200,11.3242470703125,0.19024649742735658,-0.004524886608123779,0.016534574456441537,0.027449432760477066,0.24145951638072893,0.9305822421890934,0.559244788077706,right,-0.0015708208084106445,-0.527310068267417,1.6025453787699342,-8.321650511941312,-0.27466432329279755,0.007763633970171213,0.005780667066574097,4.9348120251536365,0.0001087188720703125
1746229492730247000,11.364246826171875,0.1918524576733139,-0.008161276578903198,0.017321902848857346,0.047364600002765656,0.24131299425159425,0.9305983278704618,0.5593405751519659,right,-0.0006467700004577637,-0.5269418580949067,1.6162538783878087,-8.320849132430553,-0.2746901536905312,0.007674581371247768,0.008804842829704285,4.9316912627846,0.0016939640045166016
1746229492770247000,11.404246826171875,0.1933592136522049,-0.021362047642469406,0.018202712997566404,0.04076298326253891,0.2405778794205709,0.9307404182703938,0.5581812625943027,right,-0.002838313579559326,-0.5268006937578249,1.6289233903467655,-8.319087967976927,-0.2747966590926251,0.001110319048166275,-0.0015123635530471802,4.930494161954522,-0.004928410053253174
1746229492810247000,11.444246826171875,0.1939949985959982,-0.017574451863765717,0.0186195011381824,0.019360247999429703,0.23991174101798785,0.9308444375219935,0.5569891708072208,right,-0.0034810900688171387,-0.5270982518594678,1.6339292358100412,-8.316610179686545,-0.2749984964237481,-0.008467028848826885,0.0041172802448272705,4.9330163739085195,0.0035042166709899902
1746229492850247000,11.484246826171875,0.1949701853074965,-0.019078614190220833,0.01904221956642184,0.03519142419099808,0.23973694230521939,0.9308117106138548,0.5569463608141241,right,0.0009292960166931152,-0.5273550506617147,1.6417932471834122,-8.313769987824559,-0.2752327542331148,0.009627093560993671,0.005491510033607483,4.935193133425712,0.005519866943359375
1746229492890247200,11.5242470703125,0.1959211945944121,-0.024593662470579147,0.019700238296115266,0.03516304865479469,0.23915026846623985,0.9309832872755952,0.5558836461131339,right,-0.0019537806510925293,-0.5268753064852242,1.6501596551209687,-8.314526359149813,-0.27511638047215287,0.0231686532497406,0.0034867823123931885,4.931126614639163,0.003681004047393799
1746229492930247200,11.5642470703125,0.19643993907850987,-0.01164570264518261,0.02017110425436997,0.02716367319226265,0.23860953241413593,0.9311700758234873,0.5547813490733983,right,-0.0013990402221679688,-0.5263348848339645,1.6549924821048974,-8.316281678384541,-0.2749195417565761,0.021751880645751953,0.0003345757722854614,4.926545132067799,0.0005431771278381348
1746229492970247000,11.604246826171876,0.19730764973713993,0.003283936530351639,0.020736991828607592,0.02327270433306694,0.2383357364605797,0.9312924200081626,0.5543287455777492,right,-0.004076480865478516,-0.5256417802547139,1.6628769517444073,-8.3181883887887,-0.2747004972237796,0.011666597798466682,-0.0015786141157150269,4.920667179945111,0.0004469156265258789
1746229493010247000,11.644246826171875,0.19852379304939652,-0.00834070984274149,0.02139528123758353,0.025771165266633034,0.23822042479791578,0.9313507420027202,0.5543282408426213,right,-0.0013077855110168457,-0.5250026866336325,1.6736116962485015,-8.319241697233915,-0.27455226714635284,0.01754250004887581,0.00006648898124694824,4.9152445703744885,-0.00027823448181152344
1746229493050247000,11.684246826171876,0.1984515206866925,-0.04118100181221962,0.02160275569963702,0.014122985303401947,0.23758451574379075,0.9315564443476102,0.5528886025091494,right,-0.003880321979522705,-0.5246994726375571,1.6733040916040538,-8.320823413467407,-0.2743891108945113,0.00687284953892231,0.000843048095703125,4.912671505016088,0.003952383995056152
1746229493090247000,11.724246826171875,0.19795002388357882,-0.04024950787425041,0.021588569061878636,0.015240201726555824,0.2367431894874416,0.9317551891948433,0.5509854951614273,right,-0.00007218122482299805,-0.524990502421726,1.6688498886741696,-8.320259349843859,-0.2744426247862494,0.0012982017360627651,0.001246914267539978,4.915141110000014,0.00026226043701171875
1746229493130247200,11.7642470703125,0.19783118139610023,-0.03782368451356888,0.02177577005874206,0.022355347871780396,0.23574468559203632,0.9319691697065601,0.5488662445239796,right,-0.0037099123001098633,-0.5253287246675691,1.667534129900485,-8.318827271214127,-0.2745608393925675,-0.002129973378032446,-0.0006396770477294922,4.918011112478375,-0.002942889928817749
1746229493170247200,11.8042470703125,0.19799030350547217,-0.02413615956902504,0.022041706832210024,0.022185247391462326,0.23489177848905451,0.9321351141327882,0.5471384164871267,right,0.00008207559585571289,-0.5256481937698626,1.6685487137705086,-8.317020514053105,-0.2747072932890981,0.006084361579269171,0.00005961954593658447,4.9207215404808515,-0.0031867027282714844
1746229493210247000,11.844246826171876,0.19872321594409398,0.0061238426715135574,0.0224989343341405,0.03224998712539673,0.23446687794056142,0.9322245191142783,0.5464217745210828,right,-0.0014124512672424316,-0.5255272364191855,1.6747614508055149,-8.31637870901823,-0.2747297805217695,0.004139066208153963,-0.0020361244678497314,4.9196951200425625,-0.0025922954082489014
1746229493250247000,11.884246826171875,0.20032070418378617,0.03380228951573372,0.023209934870364716,0.026043131947517395,0.23466733751912888,0.9321721085190994,0.5472280707377168,right,-0.0017421841621398926,-0.5249845223124197,1.6885756027549503,-8.316307981869578,-0.274677194243518,0.015647292137145996,-0.0007988810539245605,4.915090256595612,-0.0023194551467895508
1746229493290247000,11.924246826171874,0.20144574357233058,0.013437371701002121,0.023839122134741184,0.01810339465737343,0.2349037494707685,0.932234275306713,0.5478355354830029,right,-0.0014018416404724121,-0.5236632801805067,1.699228660324961,-8.32075853153765,-0.2742098598259974,0.0333593413233757,0.0029438138008117676,4.903873866054416,-0.000003516674041748047
1746229493330247000,11.964246826171875,0.20210148960465568,0.017071010544896126,0.024265491098574593,0.003110108897089958,0.23508190381784763,0.9323159919129983,0.5482007101895133,right,-0.004809021949768066,-0.5224657528824656,1.705862106990069,-8.325389698469639,-0.2737415280529517,0.019710257649421692,0.0021282732486724854,4.893700554825365,0.0006194412708282471
1746229493370247000,12.004246826171874,0.20244573546658534,0.01360243745148182,0.02448107052806902,-0.003760195802897215,0.2354082590585545,0.9323469207916056,0.5488285995966056,right,-0.002639174461364746,-0.5214777782850619,1.7096992009349166,-8.329533958667517,-0.2733360942076494,0.018649529665708542,0.0033747106790542603,4.885302144314348,-0.0004277527332305908
1746229493410247200,12.0442470703125,0.2029449833078127,0.004777506925165653,0.02476092201073022,0.01170416921377182,0.2355151239112,0.9323736971072127,0.5491006065918363,right,-0.0017864704132080078,-0.5208877037567188,1.7144382121555506,-8.331501459348202,-0.27312731639926807,0.0020111054182052612,0.0026327669620513916,4.880283731630445,-0.00024691224098205566
1746229493450247200,12.0842470703125,0.20353693529947722,0.009615642949938774,0.024979459517529275,-0.0006786826997995377,0.23564005005603084,0.9323165775087154,0.5495389890320385,right,-0.003544330596923828,-0.520870478700251,1.7193867744736373,-8.330567393368483,-0.2731945897347569,-0.002150685992091894,0.004710450768470764,4.880137308897078,-0.0004748702049255371
1746229493490247000,12.124246826171875,0.20400308957648264,0.017006143927574158,0.025107084827823208,-0.001773101626895368,0.2360130667626265,0.9322302655835126,0.5504355063483058,right,-0.004196763038635254,-0.5206414341461078,1.723496401749551,-8.330859069791435,-0.27315562657635,0.0037037916481494904,0.005920529365539551,4.878188805177808,0.0021187663078308105
1746229493530247000,12.164246826171874,0.2047230056623477,0.01526860985904932,0.025411779086179476,0.0021995273418724537,0.23628980951514178,0.9321877227710054,0.5511568650460799,right,-0.005599021911621094,-0.5201694787305311,1.7299612138494849,-8.331869708138704,-0.27303314774746046,0.0019695337396115065,0.004625007510185242,4.87417313979566,0.0019929707050323486
1746229493570247000,12.204246826171875,0.2046232946770771,0.007447449490427971,0.025342602047391898,-0.0336560383439064,0.23661877966072312,0.9321632248500434,0.5517601200365193,right,-0.005527675151824951,-0.5197540040127694,1.7295418193936347,-8.334024255824088,-0.2728383293588571,0.007174468599259853,0.0027090758085250854,4.870637366884947,-0.0018782317638397217
1746229493610247000,12.244246826171874,0.20361409491911445,0.0009407051838934422,0.024931638044151026,-0.031620148569345474,0.2368365727547196,0.9322200910892384,0.5518450353135198,right,-0.002411484718322754,-0.5192594575003965,1.7216171638742088,-8.33812350783646,-0.27249294289189196,0.007058007642626762,0.0026262104511260986,4.866427347974479,-0.0030982494354248047
1746229493650247200,12.2842470703125,0.20299803529074806,0.009770438075065613,0.02462263319464129,-0.022823967039585114,0.23712743789798765,0.9322051337928312,0.5522484858676776,right,-0.0032425522804260254,-0.5190288877712587,1.7167061570875346,-8.340281562653184,-0.27231911695585426,-0.0032273856922984123,0.00232541561126709,4.864463938947022,0.0007228851318359375
1746229493690247200,12.3242470703125,0.2021759508140054,0.010905595496296883,0.024164587714280355,-0.0342349037528038,0.23750324577331508,0.9321497311449153,0.55281238798536,right,-0.0029480457305908203,-0.5190157948405376,1.7098619902811945,-8.341752219727635,-0.2722224253715705,-0.0013719925191253424,0.0031858831644058228,4.864352587527036,-0.00008347630500793457
1746229493730247000,12.364246826171875,0.20138789865946458,0.022413035854697227,0.02372965023394588,-0.027208467945456505,0.23796320361807388,0.9320966668177844,0.5535322775468944,right,-0.0004659295082092285,-0.5188049982942848,1.703492893640697,-8.344101413202285,-0.272040617215802,0.0036246979143470526,0.002741590142250061,4.862557520803809,-0.001513153314590454
1746229493770247000,12.404246826171875,0.20106850154194214,0.03820950537919998,0.023439010363823586,-0.028892526403069496,0.2387032968288206,0.9319700092571958,0.554963039125925,right,-0.0026441216468811035,-0.5184385101834728,1.701183447654545,-8.346390985444188,-0.2718512263737627,0.0020029430743306875,0.0028891414403915405,4.859436173912883,-0.00021517276763916016
1746229493810247000,12.444246826171875,0.20079255171730234,0.04690612852573395,0.023105268965775777,-0.035001207143068314,0.2396299187081858,0.9317869680899743,0.5568148818824326,right,-0.002306818962097168,-0.5181164421303041,1.699192273837328,-8.348392972916365,-0.27169198246987397,0.0010144379921257496,0.0031754374504089355,4.8566924281626935,0.00048601627349853516
1746229493850247000,12.484246826171875,0.20045618609003962,0.04471511393785477,0.022712296561272775,-0.029261350631713867,0.24059526639989254,0.9315783958729802,0.55875594997498,right,-0.0015541911125183105,-0.5179273852377695,1.6965668937698006,-8.349863629990816,-0.271587104951286,-0.002402890706434846,0.0018527209758758545,4.855081778095662,0.000711590051651001
1746229493890247200,12.5242470703125,0.20020046956494217,0.043635621666908264,0.022371810392853516,-0.03449881821870804,0.24149801422252876,0.9313810420847696,0.5605868684143247,right,-0.0036587119102478027,-0.5177400021479981,1.694612398701161,-8.351188741114735,-0.2714909762059559,-0.0013885135995224118,-0.0006435215473175049,4.853484864293039,-0.0012811720371246338
1746229493930247200,12.5642470703125,0.19968744227741986,0.03893860802054405,0.021917014354797173,-0.0319124236702919,0.24241036232394536,0.9311906356925598,0.5623659175721251,right,-0.0014424920082092285,-0.5175645432513278,1.690496780075878,-8.352891453379392,-0.2713681461433902,-0.003319953568279743,-0.00015014410018920898,4.85198965729922,-0.0009437799453735352
1746229493970247000,12.604246826171876,0.1992049371321809,0.023381628096103668,0.02151915093845698,-0.023231886327266693,0.24296743950108743,0.9310447418740113,0.5634528034357082,right,-0.0018610358238220215,-0.5177410951638025,1.686296698037535,-8.352866318938135,-0.27140234735486574,-0.013252120465040207,-0.0012405812740325928,4.8534942166432735,-0.002335160970687866
1746229494010247000,12.644246826171875,0.19897326977076735,0.03584963083267212,0.021188363676509017,-0.02192831039428711,0.2435882892416443,0.9308540135080793,0.5647717634407424,right,-0.0024893879890441895,-0.5180418046568475,1.6840730306386946,-8.351825869974494,-0.2715260900136208,-0.017962981015443802,-0.002140834927558899,4.856056468346715,-0.00054168701171875
1746229494050247000,12.684246826171876,0.198900984865258,0.034225545823574066,0.020870204341989978,-0.021415449678897858,0.2443224039493672,0.930608877515475,0.5664035482743726,right,-0.002449929714202881,-0.5184714033746317,1.683056985463947,-8.349901623913645,-0.2717313049525966,-0.016237566247582436,-0.0026397109031677246,4.859716159898042,0.0006875693798065186
1746229494090247000,12.724246826171875,0.19880349165143418,0.027367625385522842,0.02060885158174243,-0.02031067945063114,0.24497944517730014,0.9304191872010503,0.5678160602813523,right,0.0007195472717285156,-0.5186352669088454,1.6820855100832879,-8.349284953320026,-0.27180911085631154,-0.0039835115894675255,-0.000715106725692749,4.861111998170614,0.002750188112258911
1746229494130247200,12.7642470703125,0.19896597867270682,0.03497190773487091,0.020479294005261335,-0.01112070307135582,0.2456306070726777,0.9302335619769156,0.5692720549398725,right,0.0005930066108703613,-0.5186845052464338,1.6833948391161857,-8.348777003797888,-0.2718665506036966,-0.007458521984517574,-0.0021888762712478638,4.861531392626464,0.0022190511226654053
1746229494170247200,12.8042470703125,0.19825787047655719,0.008502664044499397,0.020009848754512113,-0.03460047394037247,0.2460286910940013,0.9301213736032413,0.5699743225155508,right,-0.0021265745162963867,-0.5189875133738487,1.677192331214249,-8.348522152253985,-0.27192538315396203,-0.011309539899230003,-0.0017826706171035767,4.864111764508485,0.0019697248935699463
1746229494210247000,12.844246826171876,0.1976015401410712,0.048226937651634216,0.01960670195654054,-0.0010806545615196228,0.24641789542396647,0.9300407211510453,0.5706298991235442,right,0.0009914040565490723,-0.5190472602424967,1.6716555937446653,-8.349336391246318,-0.27187841327018764,0.007145887240767479,-0.0019140690565109253,4.864620590813458,-0.0012203454971313477
1746229494250247000,12.884246826171875,0.19947426623290426,0.11153838783502579,0.02010294073624972,0.02102022059261799,0.2478459385355025,0.9296642558342427,0.5741284797852514,right,-0.00004458427429199219,-0.5183638474589587,1.6879470955930649,-8.34944803492725,-0.27183171241922716,0.015485481359064579,-0.001535460352897644,4.858800214096903,-0.0022747814655303955
1746229494290247000,12.924246826171874,0.2019523222305423,0.09443525969982147,0.020899276081705005,0.010364770889282227,0.24955031870831137,0.9292745362543464,0.5782724298890626,right,-0.0017467141151428223,-0.5169697479090787,1.7099892699226735,-8.35186737102866,-0.2715446146579095,0.014352074824273586,-0.00047360360622406006,4.846919806689024,-0.0028707385063171387
1746229494330247000,12.964246826171875,0.20383985926377823,0.02446465939283371,0.02149881618713367,0.013194050639867783,0.25081372926879825,0.9289698803530534,0.581372100195125,right,-0.0005301237106323242,-0.5160130922177552,1.7266884757891297,-8.353161502492428,-0.2713762254839345,0.006940645631402731,0.0019827187061309814,4.838762219196558,0.006301164627075195
1746229494370247000,13.004246826171874,0.20249745794220084,-0.13359609246253967,0.021086297151281123,-0.03356584906578064,0.2499180408515837,0.9291971422605421,0.5791585946524318,right,-0.0036658048629760742,-0.5166085001763041,1.7148939930990337,-8.352648292273283,-0.2714568020448773,-0.022703353315591812,0.0009189993143081665,4.843839960852265,0.00787883996963501
1746229494410247200,13.0442470703125,0.19680716968414808,-0.19536787271499634,0.01908614793346572,-0.04248875379562378,0.24687961558321173,0.9299181375332279,0.571439514866703,right,0.0009377598762512207,-0.519325852983148,1.6647575047940015,-8.34933229959309,-0.2719158432259276,-0.02986278012394905,0.0004295259714126587,4.8669925806418055,0.005347788333892822
1746229494450247200,13.0842470703125,0.19212686366836965,-0.1927119493484497,0.017665124378665815,0.07088961452245712,0.2437540184817626,0.9306882364942424,0.5637027220642873,right,0.017399370670318604,-0.5213471025394443,1.6237801822394131,-8.347358953693508,-0.2721967455436506,0.06941258907318115,0.01091495156288147,4.884190968202054,0.004358202219009399
1746229494490247000,13.124246826171875,0.1908778437465443,-0.059080570936203,0.01785335289889798,0.045092009007930756,0.2416850956590407,0.9313732321112537,0.5587755568454527,right,0.004370212554931641,-0.5206595406041287,1.6139897328481076,-8.352675764802099,-0.27168601849207413,0.05320638045668602,-0.000528976321220398,4.87834282669574,0.000549018383026123
1746229494530247000,13.164246826171874,0.19195261624374813,0.009663976728916168,0.018524711499409423,0.020903587341308594,0.24164602271189758,0.9314934531828263,0.5587988560851587,right,-0.0019360780715942383,-0.5194550938003615,1.624085741057247,-8.356697859925031,-0.2712633288152069,0.024217432364821434,-0.000016003847122192383,4.868092943099141,-0.002564042806625366
