time,seconds_elapsed,roll,rotationRateZ,quaternionY,rotationRateY,quaternionZ,quaternionW,yaw,devicelocation,accelerationZ,pitch,gravityX,gravityZ,quaternionX,rotationRateX,accelerationX,gravityY,accelerationY
1746229577869565700,0.207565673828125,-0.9839872308792731,0.45441219210624695,-0.4713128393917453,0.010888122022151947,-3.979556535031477e-17,0.8809594938027472,0.039827429911958846,right,-0.43230754137039185,0.0742872363168919,-8.143590531295537,-5.415031244322657,0.04212391650633813,0.0339212566614151,0.6276381611824036,-0.7278391313184053,0.09204871952533722
1746229577909565700,0.247565673828125,-0.21103000537747332,0.37850046157836914,-0.10512367784503528,-0.0941532775759697,0.14957012114211726,0.9831037245251444,0.3005520566285135,right,-0.005489051342010498,-0.013348442459151138,-2.0539882930487394,-9.588241642352939,0.00920486615627318,-0.04569403827190399,0.006592512130737305,0.13089958554208278,0.0028902338817715645
1746229577949565700,0.287565673828125,-0.2078824220140314,0.4601396918296814,-0.10365030183159102,0.13070440292358398,0.15662566315752904,0.9821645617264396,0.31469586535362815,right,0.004899442195892334,-0.015153205813656171,-2.023746299520135,-9.59441243994236,0.008815207394188392,0.10482378304004669,-0.009602323174476624,0.14859646980953403,-0.004420354962348938
1746229577989566000,0.32756591796875,-0.1978487161675199,0.6380578279495239,-0.09872850133883329,0.16993406414985657,0.17220378362638492,0.9800622104865223,0.34618981136203536,right,0.005294382572174072,-0.01685924442956055,-1.9273259066849946,-9.613972295936941,0.008746586187263306,0.17803557217121124,-0.004229128360748291,0.16532485610470174,0.009802144020795822
1746229578029565700,0.367565673828125,-0.20060302643688596,0.5562260150909424,-0.09975817284338069,0.23001746833324432,0.18052081213880516,0.9784354795340238,0.3634668991638164,right,0.01126331090927124,-0.014194197629546372,-1.953879274828732,-9.609024902662634,0.011152054586316119,0.2084396332502365,0.014182284474372864,0.13919282777872868,0.03107627108693123
1746229578069565700,0.407565673828125,-0.20313409569396823,0.3534761071205139,-0.10110627344685481,-0.08944427222013474,0.19351170144575477,0.9758083777476028,0.38980637113788713,right,0.004588305950164795,-0.016993416050977084,-1.9781078532867133,-9.603629765620827,0.011343362245831299,-0.023577820509672165,0.022021159529685974,0.16664043221529573,0.029111633077263832
1746229578109565700,0.447565673828125,-0.20293391479924852,0.2296445667743683,-0.10182044370341342,-0.09179064631462097,0.1977926685299496,0.9749129377257979,0.3977075055094367,right,0.0007694363594055176,-0.025766376074395296,-1.9758146277830004,-9.602223990476132,0.007444331122884703,-0.06320202350616455,0.011514827609062195,0.25265385119598355,0.009250458329916
1746229578149565700,0.487565673828125,-0.19825387622725882,0.23472101986408234,-0.10002289455259253,0.1892157793045044,0.20209952314844604,0.9742317080499159,0.4060119442798395,right,0.015587449073791504,-0.030925127473580883,-1.9305719028688966,-9.609960137686134,0.0048802354077557295,0.13533641397953033,-0.006544455885887146,0.3032235432865098,-0.0019832849502563477
1746229578189565700,0.527565673828125,-0.1877756855824217,0.32658421993255615,-0.09454987000930666,0.17624881863594055,0.20890369456472777,0.9733357020535023,0.42023472066700374,right,0.0025885701179504395,-0.027648088148296713,-1.829948505385965,-9.630585577085613,0.006091972413483649,0.15527558326721191,-0.010033667087554932,0.27110055831689384,-0.006825292482972145
1746229578229566000,0.56756591796875,-0.1851863039983392,0.2860483229160309,-0.09304574481401157,0.12111133337020874,0.21287839313018364,0.9726114419720089,0.4285756516816118,right,-0.000824272632598877,-0.02556952423017254,-1.8051050099000334,-9.635824646782874,0.007221855814141796,0.12513989210128784,-0.013012334704399109,0.2507240339108743,-0.0008037574589252472
1746229578269565700,0.607565673828125,-0.1826144739943011,0.24551242589950562,-0.0915397620145013,0.06597384065389633,0.2168487487578751,0.9718678824936117,0.4369105081479987,right,-0.004250526428222656,-0.023469404668458572,-1.780408960060775,-9.640931614533066,0.008351606126469981,0.09500419348478317,-0.0159759521484375,0.23013509059688075,0.005239430814981461
1746229578309002000,0.647001953125,-0.1874482027001979,0.4864405393600464,-0.09376387295860479,-0.29208943247795105,0.22446563804573658,0.9699106514392252,0.4526880753278958,right,-0.021710168570280075,-0.02300576829796521,-1.8270093831941485,-9.632316930922865,0.009841007580451443,-0.057482101023197174,-0.00999318528920412,0.22558959265435113,0.0032474645413458347
1746229578349002000,0.687001953125,-0.19584706103998317,0.20146101713180542,-0.09860442910180543,-0.20666110515594482,0.22895096021692213,0.9684003317386735,0.4613490794201121,right,-0.015142083168029785,-0.03021844093933161,-1.9074781736597417,-9.614786534929275,0.0077123658605010815,-0.1334858238697052,0.0006352812051773071,0.29629655703492463,0.01742078922688961
1746229578389001700,0.727001708984375,-0.2041851138725369,-0.08351853489875793,-0.1034400138588581,-0.12123280018568039,0.23342482535231263,0.9668410970838198,0.46995138224399036,right,-0.00868368148803711,-0.03750334291471988,-1.98708917825222,-9.596179449614882,0.005583328145490663,-0.20948952436447144,0.011176273226737976,0.367695942392759,0.03152351453900337
1746229578429001700,0.767001708984375,-0.19139465104003517,0.0726093053817749,-0.09710534127291658,0.46521103382110596,0.23278331764158086,0.9676572644794825,0.4686828612059805,right,-0.013506174087524414,-0.036178095006256066,-1.8642814214900134,-9.621279404079914,0.004670457087939596,0.2714056968688965,-0.017896384000778198,0.354708523591049,0.0072477273643016815
1746229578469001700,0.807001708984375,-0.176396983432131,-0.0318746343255043,-0.08895833762958104,0.4093996286392212,0.23539756460155925,0.9677951325395472,0.47466350339512625,right,-0.021154284477233887,-0.02862677848989785,-1.7202014518573878,-9.650518358045815,0.006849736512887912,0.20425984263420105,0.001225203275680542,0.28069444395648313,0.012096403166651726
1746229578509002000,0.847001953125,-0.16144757828152947,-0.1363585740327835,-0.08080439503950597,0.3535882532596588,0.23799342670071463,0.9678575622038997,0.48052902344986903,right,-0.02908480167388916,-0.020986798165905395,-1.576043740813434,-9.676989016342162,0.00902848353380513,0.13711397349834442,0.02033884823322296,0.20579505112105978,0.01703535206615925
1746229578549002000,0.887001953125,-0.16384744993332234,-0.28665396571159363,-0.08229563892555561,-0.24539636075496674,0.23154876114078562,0.9693061043490727,0.4670575846900825,right,-0.017286837100982666,-0.023329048635201896,-1.5991797017291187,-9.672676998361945,0.007626060456887852,-0.16455495357513428,0.009671211242675781,0.22875903473701326,-0.025330066680908203
1746229578589002000,0.927001953125,-0.169038438142426,-0.1691051423549652,-0.08481226579318907,-0.18537692725658417,0.2287245374803809,0.9697559795816458,0.4612895549409241,right,-0.004722237586975098,-0.023132475644401167,-1.6493762496583162,-9.664289109244942,0.008077743390111147,-0.03176663815975189,0.005853220820426941,0.22683184780040755,-0.021615032106637955
1746229578629001700,0.967001708984375,-0.1742281616006341,-0.0515563040971756,-0.08732763814944429,-0.1253574788570404,0.2258969299813702,0.970191566845521,0.4555226047289115,right,0.007816612720489502,-0.022905984190617894,-1.699517706399411,-9.655649875715374,0.008529299836769972,0.10102169215679169,0.0020296424627304077,0.22461130394041537,-0.017870083451271057
1746229578669001700,1.007001708984375,-0.1807917143267334,-0.0764835774898529,-0.08997938579817877,-0.13651183247566223,0.22419066635782048,0.9703141417037777,0.4524982069477162,right,0.010631442070007324,-0.01800120401764954,-1.763032877846062,-9.645254738429188,0.011514232413200558,0.051549822092056274,-0.0053987056016922,0.17652195742353796,-0.010937372222542763
1746229578709001700,1.047001708984375,-0.1895339505387527,-0.12088680267333984,-0.0942894483862063,-0.1599642038345337,0.22180486018438472,0.9704461359789938,0.44765463380435666,right,0.023489952087402344,-0.01836094652128847,-1.8472734419353305,-9.629410688087344,0.012091243438098368,-0.05122529715299606,-0.0027166008949279785,0.1800492365005426,-0.0158710777759552
1746229578749002000,1.087001953125,-0.19519682021320675,-0.0004280656576156616,-0.09712049452477278,-0.11191745102405548,0.22067768685686778,0.9704212828989458,0.44534324522778684,right,0.014710187911987305,-0.018991753267168607,-1.901751174315065,-9.618681788802146,0.012300864051509854,-0.03765053674578667,0.0018136799335479736,0.18623426354471592,-0.01762665994465351
1746229578789002000,1.127001953125,-0.19958775689384167,0.09198983013629913,-0.09930241106399869,-0.04598143696784973,0.22126746137325246,0.9700624739321622,0.4465627927436176,right,0.003166377544403076,-0.019533604146788848,-1.9439475172705947,-9.610138416862487,0.012582912702420788,0.029646936804056168,-0.0007797777652740479,0.1915470195326954,-0.012919573113322258
1746229578829002000,1.167001953125,-0.19857483850902888,0.17649540305137634,-0.09841438271587594,0.06972350180149078,0.22427882834251042,0.9694368216463515,0.4530719040339993,right,-0.004087328910827637,-0.01633888693831482,-1.9343230720959603,-9.612653614553809,0.014341504415590315,0.10732144117355347,-0.0040343403816223145,0.1602225827959366,-0.01682256907224655
1746229578869002000,1.207001953125,-0.1970276857408568,0.08822839707136154,-0.09737910020561023,0.06041368097066879,0.227210864004901,0.9688405360937375,0.4593066732137383,right,0.002229928970336914,-0.014207112630690232,-1.9195109951503573,-9.615947979924082,0.015505412482645121,0.05332989990711212,0.002368226647377014,0.13931946809939108,-0.018583256751298904
1746229578909001700,1.247001708984375,-0.19262869647955655,0.062736377120018,-0.09490727486913587,0.10721951723098755,0.2284940383749399,0.9687676043829887,0.462153193807092,right,0.006707727909088135,-0.011399433029558505,-1.8772595610067246,-9.624644496598838,0.016501535932541504,0.05919754505157471,-0.010724171996116638,0.11178780210856347,-0.013618681579828262
1746229578949001700,1.287001708984375,-0.18961994827871348,0.022499781101942062,-0.09328233843647539,0.07856403291225433,0.2294442792811165,0.9686941051978,0.464188160667938,right,0.014203786849975586,-0.010078113719222622,-1.8483192977264522,-9.63038567059934,0.01689297711819849,0.009611301124095917,-0.004240944981575012,0.09883083324404433,-0.012579445727169514
1746229578989001700,1.327001708984375,-0.18496403759407437,-0.07230803370475769,-0.090772388464094,0.22780945897102356,0.22938451810650073,0.9689369885684134,0.4641891406255668,right,0.024852633476257324,-0.007850772821046393,-1.803497136311978,-9.639079849186539,0.017438114859069813,0.07793688774108887,0.0027984976768493652,0.07698895812635309,-0.0015834858641028404
1746229579029002000,1.367001953125,-0.17668128368378802,-0.014410674571990967,-0.08633061722610855,0.17911916971206665,0.22921843354826835,0.969366213114111,0.4640314928879401,right,0.005885660648345947,-0.004095557667703963,-1.723636687003076,-9.65390332430899,0.018301438092980616,0.03571402654051781,0.0014608651399612427,0.04016355391971301,-0.01179259829223156
1746229579069002000,1.407001953125,-0.17662205776480572,-0.003711218945682049,-0.0865233800339147,-0.11688098311424255,0.22865109989947305,0.9695005275041368,0.46269857917630314,right,0.008605659008026123,-0.00593001034101716,-1.7230490963734686,-9.653916768312454,0.017347776243036784,-0.125204399228096,0.012616679072380066,0.05815316035631112,-0.013134470209479332
1746229579109002000,1.447001953125,-0.1848149664608644,0.12346114963293076,-0.09123652949941725,-0.2471449375152588,0.2295305704552661,0.968897339496217,0.4640594003575209,right,-0.017084121704101562,-0.012535261993416306,-1.8019741645283995,-9.638888126006721,0.015145160594330529,-0.20933081209659576,0.0067187100648880005,0.1229256749202963,-0.0181509330868721
1746229579149001700,1.487001708984375,-0.19117427733133918,0.01892741769552231,-0.0950185209856611,0.010461926460266113,0.2308212135380644,0.9682590079858048,0.4662367141986506,right,-0.00019598007202148438,-0.01880895565076106,-1.8630508567817508,-9.626287003108859,0.012939065785445117,-0.050889864563941956,0.021570682525634766,0.18444193676784634,0.0027210451662540436
1746229579189001700,1.527001708984375,-0.1874438439702064,0.09378374367952347,-0.09299230174375944,0.06729353219270706,0.2322010229308528,0.968118246707729,0.4691982225970559,right,-0.022616982460021973,-0.01706210706951496,-1.8271850320219993,-9.633471946176886,0.013492430303374317,0.06279880553483963,0.009238243103027344,0.16731396582899613,0.005661778151988983
1746229579229001700,1.567001708984375,-0.18545634216277088,-0.031114958226680756,-0.09178410273719528,0.005597718060016632,0.23261688290568172,0.968121968148172,0.47021839247293346,right,-0.028386175632476807,-0.014992146150621445,-1.8080948393657803,-9.637404609450698,0.014310944348787347,0.03766021504998207,0.016295000910758972,0.14701719212830067,0.012733567506074905
1746229579269002000,1.607001953125,-0.187939484445001,-0.09382954984903336,-0.09296299661797182,-0.1224040761590004,0.23175919016598934,0.9682098977838524,0.468512062817824,right,-0.01802647113800049,-0.014684495955719697,-1.8320286726608872,-9.632928925341368,0.014669385984335908,-0.045903440564870834,0.023965254426002502,0.1440005111882463,0.011329476721584797
1746229579309002000,1.647001953125,-0.19446604397190478,-0.18448612093925476,-0.09645459588526806,-0.13094094395637512,0.2289477995464514,0.9685482989176383,0.4625645930261165,right,0.009341657161712646,-0.01720988313284935,-1.8947827966071664,-9.620379240369797,0.01391624010401095,-0.05006282776594162,0.02493835985660553,0.16876294079460202,-0.000034768134355545044
1746229579349002000,1.687001953125,-0.1951039872335467,-0.16687147319316864,-0.09670849945060293,0.019857436418533325,0.22541432999072428,0.969348814051991,0.45537000102797154,right,0.012255072593688965,-0.01627412786927007,-1.9009493564128874,-9.619319502183794,0.0140947991583964,0.021287329494953156,0.009353965520858765,0.15958760936064645,-0.018342727795243263
1746229579389001700,1.727001708984375,-0.19302214245134566,-0.014232173562049866,-0.09555762308751253,0.03997010737657547,0.22370096293812983,0.9698549681141739,0.45194743008056004,right,0.01945716142654419,-0.014786015598821088,-1.880962799438834,-9.623478375428915,0.01441823194437136,0.027837853878736496,-0.007845073938369751,0.14499597023269162,-0.026818986982107162
1746229579429001700,1.767001708984375,-0.19163737896735494,0.07115474343299866,-0.09487764543217134,0.006417326629161835,0.2244630959589716,0.9697470366133174,0.45349641357994874,right,0.017820656299591064,-0.014809619690767772,-1.8676340929187834,-9.626070730009674,0.014325375932692872,-0.06335693597793579,0.0002636462450027466,0.14522742263469846,-0.011210567317903042
1746229579469001700,1.807001708984375,-0.1938941592500878,0.09938189387321472,-0.09660192703428791,-0.11957637220621109,0.22569136835322356,0.9693246922917723,0.45551540261179907,right,0.013720095157623291,-0.020570108113790612,-1.8891607189416884,-9.620850949534773,0.011882388259903435,-0.231739342212677,0.0022971630096435547,0.20170960843833163,-0.008321470580995083
1746229579509002000,1.847001953125,-0.1998815017733636,0.016139723360538483,-0.10047126969035383,-0.03472813963890076,0.22662801319290957,0.9687490991492698,0.45667614230819625,right,0.005974233150482178,-0.029277609087029074,-1.946307378269732,-9.607281858387589,0.008395250071855473,-0.12467636913061142,0.013089627027511597,0.2870742263877764,0.0053283218294382095
1746229579549002000,1.887001953125,-0.1938033124691288,0.05436708778142929,-0.09703193298853412,0.27979475259780884,0.22666273871825562,0.9690776913330628,0.45711113161328526,right,-0.022753655910491943,-0.024879254605600233,-1.8881018575385211,-9.620079965162276,0.009860075951688833,0.3239416480064392,-0.0024347305297851562,0.24395695092873645,0.017665894702076912
1746229579589002000,1.927001953125,-0.18170537574668388,0.13553333282470703,-0.08922311389886774,0.2717316150665283,0.22980866309674788,0.968989171482298,0.4649779680871661,right,-0.044023752212524414,-0.008167724945954519,-1.7720726550005375,-9.64488064441979,0.016945934938676695,0.4937472343444824,-0.0037034153938293457,0.08009709847583435,0.014638460241258144
1746229579629001700,1.967001708984375,-0.17449425381255979,0.04219482094049454,-0.08408306736152846,0.026331648230552673,0.2324237005399703,0.9686995839031287,0.4714483705302991,right,-0.04966771602630615,0.005530610196342616,-1.7025075358651578,-9.657582889604567,0.023029006144363196,0.2165737748146057,-0.001707121729850769,-0.05423652576869353,0.007133373990654945
1746229579669001700,2.007001708984375,-0.18200457570723308,-0.27810120582580566,-0.08784246235795981,-0.33065295219421387,0.22997862685280204,0.9689402219466273,0.4665310095067314,right,-0.0014075040817260742,0.0049762276175436505,-1.7749955567099154,-9.644552727639674,0.023417329468331607,-0.21866506338119507,0.0173729807138443,-0.04879996530453209,0.004402533173561096
1746229579709001700,2.047001708984375,-0.19557645893905998,-0.34528884291648865,-0.09569441271707399,-0.3267008066177368,0.22237701820572284,0.9700571239507169,0.45023083287517573,right,0.031485557556152344,-0.004732353814038966,-1.9057250463820994,-9.619586628687381,0.019497893079465332,-0.32764118909835815,0.013225153088569641,0.04640833006079774,-0.013190565630793571
1746229579749002000,2.087001953125,-0.20560633916246276,-0.1937258541584015,-0.10162017582246599,-0.14062325656414032,0.2164538372300786,0.9708617907409308,0.4373443412698964,right,0.052652835845947266,-0.013383977454872771,-2.0019540082983673,-9.599236499097943,0.015763611467433238,-0.18526965379714966,0.01244385540485382,0.13124803365357218,-0.021717172116041183
1746229579789002000,2.127001953125,-0.2046951173103174,-0.055264443159103394,-0.10144615212306794,0.1344829946756363,0.21402538871870685,0.971439895546689,0.43211183835647604,right,0.03977155685424805,-0.015526507111163972,-1.9931443866379557,-9.600759178620576,0.014359211068523413,-0.01620553433895111,0.005250394344329834,0.15225687374691477,-0.026313479989767075
1746229579829002000,2.167001953125,-0.19787918217640105,-0.06761728972196579,-0.0981084148106607,0.26031213998794556,0.2128928995851941,0.9720407650252872,0.429722707681234,right,0.03246021270751953,-0.01512228915840767,-1.9276723820351063,-9.61418097025156,0.013709022280459988,0.03243472799658775,0.016718566417694092,0.1482933221444953,-0.018846873193979263
1746229579869002000,2.207001953125,-0.18679845245540774,0.10633128136396408,-0.09242512051004874,0.2349548041820526,0.21362861816216341,0.9724333772990399,0.4313346744076494,right,-0.005024373531341553,-0.012427578431122488,-1.8210916835829614,-9.635307929432392,0.013914600038336061,0.06255029886960983,0.002113357186317444,0.121869745259732,-0.012296658009290695
1746229579909001700,2.247001708984375,-0.177791455403681,0.08735127002000809,-0.08775963725018651,0.2813112437725067,0.21589785170463996,0.9723587080680296,0.43608448224734175,right,-0.02651238441467285,-0.010062659435466281,-1.7342799538314342,-9.65157575814426,0.014311459572193567,0.10908633470535278,0.00560489296913147,0.09867928681098856,0.0038156965747475624
1746229579949001700,2.287001708984375,-0.16931984954912505,0.09412211179733276,-0.08322676397619018,0.10570216178894043,0.21828923089131122,0.9722082417578927,0.4411742909787636,right,-0.04607188701629639,-0.006580261832289737,-1.6525021265938877,-9.666201664867996,0.015302687723087011,0.04682596027851105,0.0041686296463012695,0.06452982381533365,0.004500182345509529
1746229579989001700,2.327001708984375,-0.17061345250941312,0.014908678829669952,-0.08387470216831394,-0.09965071082115173,0.21924311744432518,0.9719367687839116,0.44313081670104215,right,-0.037204742431640625,-0.006893773366748108,-1.6650015426829456,-9.664035426744817,0.015373522513256126,-0.005441494286060333,0.003991052508354187,0.06760425369145814,0.00964428298175335
1746229580029002000,2.367001953125,-0.17692934636048963,0.002622983418405056,-0.08704332614025756,-0.20239141583442688,0.21947340656595318,0.9716020997218534,0.4436237508562946,right,-0.025044918060302734,-0.007841457792778951,-1.7259928947404026,-9.653259765708446,0.015626774164647916,-0.039768196642398834,0.007056966423988342,0.07689760831478051,0.012889591977000237
1746229580069002000,2.407001953125,-0.1864626538956748,-0.041679639369249344,-0.09195582238626594,-0.20290593802928925,0.21908053422449555,0.9712416699681817,0.44274023648968996,right,0.010979533195495605,-0.01036078661700525,-1.8178988788910209,-9.636145549300313,0.015408554358315295,-0.029676716774702072,0.017536655068397522,0.10160276390910147,0.012281592935323715
1746229580109002000,2.447001953125,-0.19226360268699336,-0.05148225277662277,-0.09480749937188333,-0.05584783852100372,0.2195410032690221,0.9708555785641857,0.4437451924885449,right,0.022153139114379883,-0.010755079115976712,-1.8737590055398643,-9.625397945314646,0.01590009676343401,0.01214631274342537,0.026253581047058105,0.10546923007890581,0.016684697940945625
1746229580149001700,2.487001708984375,-0.19463871328745258,-0.023788444697856903,-0.09606973819595495,-0.09239165484905243,0.21904064411252655,0.970848383125006,0.44266457563106265,right,0.018741965293884277,-0.011678582907588502,-1.8965953989870845,-9.6208211389184,0.01566054893831046,-0.05759800598025322,0.010223641991615295,0.11452514551742933,-0.0006108665838837624
1746229580189001700,2.527001708984375,-0.19696695982723564,0.005841659381985664,-0.0975014974655637,-0.041335329413414,0.21846591354217695,0.9708523755334012,0.4412579266040324,right,0.018197178840637207,-0.014353744318898534,-1.9189231122598052,-9.61604442603588,0.01454817266898729,-0.07170932739973068,0.0005752593278884888,0.14075728235016577,-0.005988894961774349
1746229580229001700,2.567001708984375,-0.19880071952766307,0.04366583377122879,-0.09879805647881297,-0.035769201815128326,0.21892796402308362,0.9706399481748674,0.44186716401678805,right,0.01178288459777832,-0.01813661807817465,-1.9364343651615081,-9.611918286016582,0.012941817901651316,-0.10346291214227676,-0.0010695159435272217,0.17784969889596103,-0.007744897156953812
1746229580269002000,2.607001953125,-0.19871608678702057,0.10684695094823837,-0.09919266204839766,0.006545692682266235,0.22015886223595232,0.9703448065905859,0.44400104764462356,right,0.00625079870223999,-0.022258781309562128,-1.9354596749104558,-9.611281741678715,0.011036975602983423,-0.09604111313819885,-0.0010562241077423096,0.21826602656692265,-0.007673363201320171
1746229580309002000,2.647001953125,-0.19900948502722665,-0.0024638622999191284,-0.09985688543448673,-0.010308682918548584,0.2210099598367491,0.9701061632074905,0.4452887842304814,right,-0.0020200014114379883,-0.027100967570731216,-1.9380477917075156,-9.609565000888704,0.008783101722688993,-0.13671833276748657,0.002968817949295044,0.2657371498539112,-0.0024855434894561768
1746229580349002000,2.687001953125,-0.19947544198283965,0.005252795293927193,-0.1005447331846384,-0.039111003279685974,0.2206956571258016,0.9701229773697955,0.4442385502615882,right,-0.012605905532836914,-0.03130015601741543,-1.9422870367124676,-9.60748234939575,0.006743746283460307,-0.10533668100833893,-0.006222039461135864,0.3068995283855125,-0.005642589181661606
1746229580389001700,2.727001708984375,-0.20080646951246756,-0.0029003657400608063,-0.1013523895925216,0.006733667105436325,0.22019084208593698,0.9701577380253739,0.4430656580317723,right,-0.010779857635498047,-0.03275642773755551,-1.9549819753736257,-9.604440497481823,0.0061243472877752485,0.04709453880786896,-0.008574172854423523,0.3211733702685684,-0.00028770044445991516
1746229580429001700,2.767001708984375,-0.19859265811676202,0.12428964674472809,-0.09971822780357484,0.022228043526411057,0.22167029624324677,0.9699723115637151,0.4465854425148623,right,-0.027416884899139404,-0.02773302913297885,-1.9340085993193088,-9.610205636879801,0.00849491461701031,0.15618056058883667,-0.013393238186836243,0.2719332280150615,-0.005439845845103264
1746229580469001700,2.807001708984375,-0.20038833295219202,0.00531584769487381,-0.10026102819262167,-0.10885503888130188,0.2229818369530652,0.9695989429258983,0.44958496420977684,right,-0.01502448320388794,-0.024876750759539868,-1.951408939192444,-9.607439094775915,0.010230307917021907,0.025847628712654114,-0.008627742528915405,0.24393240100936964,0.0010573044419288635
1746229580509002000,2.847001953125,-0.20242683363808622,0.01391358021646738,-0.10096130999038763,-0.02376926690340042,0.22272351670114027,0.9695688482980506,0.4493333399598272,right,0.0012516975402832031,-0.022252827318489064,-1.9711115646585822,-9.60403483929038,0.011717540872038315,0.09173917770385742,-0.014764770865440369,0.21820766570949926,0.006380271166563034
1746229580549002000,2.887001953125,-0.20544695345449995,-0.1006690114736557,-0.10228366446054922,-0.1389240026473999,0.22215683876130096,0.96954847795046,0.4483363915922698,right,0.011204302310943604,-0.020910894319578214,-2.0001658097073434,-9.598316461643575,0.012653653348708476,-0.04238319396972656,-0.0021247416734695435,0.20505086342394352,0.004659395664930344
1746229580589002000,2.927001953125,-0.21089603963723905,-0.09190212935209274,-0.10516180368099937,-0.09933795779943466,0.21988191271430368,0.969766316008021,0.44352117423886167,right,0.024358630180358887,-0.022798164213047013,-2.0523532391928136,-9.586879121828078,0.012090628092121268,-0.06175695359706879,-0.004571259021759033,0.22355423263553528,-0.00486217625439167
1746229580629001700,2.967001708984375,-0.21460832415297335,-0.03532537817955017,-0.10723435609317981,-0.07457870244979858,0.21883480935979135,0.9697867064323402,0.44115788223938435,right,0.026884019374847412,-0.025184229711356934,-2.0878087295860053,-9.578646131011842,0.011214657804979695,-0.07253206521272659,0.0015375465154647827,0.2469467986607924,-0.0058746784925460815
1746229580669001700,3.007001708984375,-0.21444973166455192,0.0050033628940582275,-0.10732788416651586,0.08821876347064972,0.21832860015039693,0.9698995423882066,0.43995303702583466,right,0.019160211086273193,-0.026702918329314748,-2.086207285738736,-9.578599369260669,0.010395792291586131,-0.01777965947985649,0.00030593574047088623,0.261835027848836,-0.004522291943430901
1746229580709001700,3.047001708984375,-0.20924016608295473,0.010858846828341484,-0.10481817148155542,0.15462777018547058,0.21840470246289362,0.970163524676746,0.44003911413146984,right,0.006037712097167969,-0.026864736091328435,-2.036270119398087,-9.589296119841933,0.009753025064269777,-0.005543357692658901,-0.004652887582778931,0.26342136545851824,-0.00789003074169159
1746229580749002000,3.087001953125,-0.20293103780495644,0.02304917946457863,-0.1017187580191943,0.15917937457561493,0.21872705315662802,0.9704256397978734,0.4406748133959209,right,-0.004092574119567871,-0.026535545833400898,-1.975747261635214,-9.602036358949542,0.009256173686441702,0.009526521898806095,-0.0028516948223114014,0.26019425663817675,-0.0003815069794654846
1746229580789002000,3.127001953125,-0.19988244126757673,-0.013933535665273666,-0.10035474335900658,0.021238133311271667,0.2189559914787794,0.9705236775568873,0.4410129491033858,right,-0.012391090393066406,-0.02761584196060586,-1.9464083544261752,-9.607734278330206,0.00841515414830315,-0.06371639668941498,0.0005660951137542725,0.2707844598387368,-0.002405203878879547
1746229580829002000,3.167001953125,-0.19772526015817224,0.0631444901227951,-0.099296386996253,0.11610177904367447,0.2191270356684204,0.9705954265203817,0.44135592198959955,right,-0.01103132963180542,-0.027522565645770335,-1.9256832540445028,-9.611935237151384,0.008241309582305106,0.08399718999862671,-0.004349023103713989,0.26987008494017645,0.0013746730983257294
1746229580869002000,3.207001953125,-0.19430587120386875,0.023879367858171463,-0.0972561215440659,0.0191539004445076,0.22061784103865245,0.970451131447346,0.44471780788994153,right,-0.02019137144088745,-0.024156346660693592,-1.8929697558358312,-9.619300212961434,0.009665027485866791,0.05250883102416992,-0.002165168523788452,0.2368697874130681,0.004047073423862457
1746229580909001700,3.247001708984375,-0.19649373993028701,-0.018626566976308823,-0.09825835130922041,-0.08157772570848465,0.22030133113371042,0.9704170590685673,0.444142210835009,right,-0.01124107837677002,-0.02358605992109338,-1.9140370937839148,-9.615267011922597,0.01015492145379253,-0.003041476011276245,0.0013369321823120117,0.2312787624729797,0.003096451982855797
1746229580949001700,3.287001708984375,-0.19992297709004123,-0.04539237916469574,-0.09994618239865331,-0.10528749227523804,0.21967465179655832,0.9703843407973797,0.44287145082564805,right,-0.002125382423400879,-0.023746311899123795,-1.9469914150111376,-9.608610476642847,0.010391349350516294,-0.02772410400211811,0.0058203041553497314,0.23284986598091198,0.0000959206372499466
1746229580989001700,3.327001708984375,-0.20424856578857675,-0.03237265720963478,-0.10217024973944698,-0.06427039206027985,0.21869291193853005,0.970375976135648,0.4407897016074831,right,0.006880581378936768,-0.024803436317431773,-1.9884848703943192,-9.599852000647783,0.010247020831947952,-0.00795193575322628,0.005032598972320557,0.24321365828076377,-0.000861436128616333
1746229581029002000,3.367001953125,-0.20537553607427345,-0.041462451219558716,-0.1027154013948124,0.0007524490356445312,0.2183261761398417,0.9703998220770347,0.4400508560915406,right,0.007250010967254639,-0.024752935442810906,-1.9993048089638352,-9.597616788941622,0.010356820650799656,-0.014620520174503326,0.008360639214515686,0.24271856824019922,0.0004695020616054535
1746229581069002000,3.407001953125,-0.204595808872914,-0.09705141186714172,-0.1024280735664494,0.04708055034279823,0.21619918713810804,0.9709127040845923,0.4355961441640655,right,0.01131284236907959,-0.025392914411553745,-1.9917887342453002,-9.59901905695498,0.00973287650045034,-0.0322263166308403,0.006036624312400818,0.2489926435410045,-0.00440569594502449
1746229581109002000,3.447001953125,-0.200870406006144,0.020561546087265015,-0.10056987449551026,0.12642738223075867,0.21555996782081355,0.9712512493842428,0.43429433314807286,right,0.006613790988922119,-0.024871637379090934,-1.9560403983853756,-9.606498599055408,0.009517930933045102,0.035640135407447815,0.004846230149269104,0.243882278257329,-0.0062791816890239716
1746229581149001700,3.487001708984375,-0.19736560559728683,-0.014745164662599564,-0.09888719440876033,0.05304458737373352,0.2158846537999971,0.9713562542413033,0.4349090652116094,right,0.003920614719390869,-0.02508068176388616,-1.922349579577148,-9.613244566184282,0.009068970832295511,-0.035546720027923584,0.00967058539390564,0.24593166680149733,-0.0033556148409843445
1746229581189001700,3.527001708984375,-0.1959530847990689,0.027974635362625122,-0.09837660956451091,0.018735919147729874,0.21609726077608593,0.9713691510286999,0.4351758108070783,right,0.00037169456481933594,-0.02673490631091898,-1.9086869649276137,-9.615538230079412,0.008125700759674554,-0.050780005753040314,0.004283547401428223,0.26214862384265286,-0.000049991533160209656
1746229581229001700,3.567001708984375,-0.19610871432535415,-0.02857699990272522,-0.09869272250159497,0.015469166450202465,0.2162930560863506,0.9713018648121514,0.4353648807677053,right,-0.000353395938873291,-0.028994463861207388,-1.9100630755864083,-9.614635728281735,0.0070537801362188,-0.03997288644313812,0.0039130449295043945,0.28429869725983586,0.0026098228991031647
1746229581269002000,3.607001953125,-0.19538474875667028,0.046389564871788025,-0.09831759295628299,0.013335542753338814,0.2168762457393013,0.9712094019875079,0.4365776194990367,right,-0.0066918134689331055,-0.028814413262264724,-1.903111795143783,-9.616066053345799,0.007122601334648593,0.03337617218494415,-0.0010532885789871216,0.2825337516802363,0.007047345861792564
1746229581309002000,3.647001953125,-0.19759256931864566,-0.03942512720823288,-0.09942829733694244,-0.09088177233934402,0.21739630152666747,0.9709792010603612,0.43762717902264625,right,-0.005162298679351807,-0.029210555014815922,-1.9243156189531088,-9.611730069968104,0.00722172371202589,-0.03786449134349823,0.0037470757961273193,0.2864169315228239,0.008577508851885796
1746229581349002000,3.687001953125,-0.2006545656888658,0.04153952747583389,-0.10094265449646818,-0.024479687213897705,0.21736782188606765,0.970827738690298,0.4375666541275122,right,-0.00021457672119140625,-0.02946860547361879,-1.9537227690927683,-9.605720015898346,0.007426152311219433,0.04917067289352417,-0.001417696475982666,0.2889464682667516,0.00452437624335289
1746229581389001700,3.727001708984375,-0.20049425619396086,-0.011844877153635025,-0.10061485595190908,0.04134433716535568,0.21858000272040062,0.9705797496561195,0.44027952771704704,right,0.008050143718719482,-0.02724653443591761,-1.9523060341626404,-9.606638884308934,0.008624550226327686,0.07560499012470245,0.00875014066696167,0.2671641504497267,0.013473378494381905
1746229581429001700,3.767001708984375,-0.19981516411980108,0.0005457401275634766,-0.10004723097431005,0.02545478567481041,0.21878717295203995,0.9705821967309425,0.44091224578448984,right,0.007147669792175293,-0.025070284395365402,-1.9458925138585268,-9.608509354355931,0.009638773218058986,0.05566851794719696,0.00032047927379608154,0.24582972253067417,0.009968692436814308
1746229581469001700,3.807001708984375,-0.19946059880232014,-0.057049933820962906,-0.09977762883715348,-0.0005556903779506683,0.2185502997119519,0.9706593947424379,0.44051021587522426,right,0.013836085796356201,-0.024150130958122296,-1.9425296132966874,-9.609416532328725,0.010026729232427648,-0.004078719764947891,0.0035080909729003906,0.23680883273975922,0.007105816155672073
1746229581509002000,3.847001953125,-0.1997442631526653,-0.052668094635009766,-0.09999236562797256,0.02825748175382614,0.21749989731106398,0.9708770659348132,0.438289283000374,right,0.013609588146209717,-0.02476343383730604,-1.945226158904284,-9.608720951279997,0.009648881506991173,-0.017678361386060715,0.003742426633834839,0.24282148062540218,0.0016189925372600555
1746229581549002000,3.887001953125,-0.19906171815593404,-0.04016901180148125,-0.09979610902317546,-0.0009286068379878998,0.21685387128349892,0.9710486639594939,0.4368357857047219,right,0.007364988327026367,-0.025959021766168447,-1.9386084943301976,-9.609754970502852,0.008921406024529718,-0.05201737955212593,0.0004108846187591553,0.2545424231552519,-0.007028127089142799
1746229581589002000,3.927001953125,-0.19937870206654257,-0.01409865915775299,-0.10017794554121125,-0.007529707625508308,0.21607403499236075,0.9711922593693058,0.4350325872387771,right,0.0014933347702026367,-0.028019872338406363,-1.941546593608707,-9.60860521594584,0.007864302692450005,-0.05737454071640968,-0.0038219690322875977,0.27474510709801686,-0.008965520188212395
1746229581629001700,3.967001708984375,-0.20047178614403002,0.04511341080069542,-0.10095803041390813,-0.05224227160215378,0.2162115373745303,0.9710885550324375,0.43509682845829106,right,-0.0027323365211486816,-0.03035979574614281,-1.9519149890184402,-9.605821138185263,0.006848731642354831,-0.06032133847475052,-0.006437182426452637,0.2976821479081176,-0.009576614946126938
1746229581669001700,4.007001708984375,-0.2019530475411149,0.033706631511449814,-0.10185095642429519,-0.019149649888277054,0.2169237848228662,0.9708403811305203,0.4364112093437262,right,-0.009008705615997314,-0.03202819631390503,-1.9660392298303544,-9.602419220787286,0.0062652261561399565,-0.023881077766418457,-0.005457833409309387,0.31403559081051496,-0.0005113929510116577
1746229581709001700,4.047001708984375,-0.20281932802787206,0.008353002369403839,-0.10235575220535269,-0.04452507197856903,0.21727307184398323,0.9707108423207492,0.43705722911930955,right,-0.007485508918762207,-0.032835058821077186,-1.9743052461333572,-9.600461072456836,0.006000313324929511,-0.03108265995979309,-0.006057232618331909,0.32194406238012013,-0.001975683495402336
1746229581749002000,4.087001953125,-0.20503250216080132,0.036333002150058746,-0.10350113834323015,-0.04809103533625603,0.2178449755438188,0.97046145441826,0.43818054004338997,right,-0.002495884895324707,-0.0335324181261481,-1.9955016172885893,-9.595846272137761,0.005960191141149599,-0.0021346043795347214,-0.0017873793840408325,0.3287790594993159,-0.00012600421905517578
1746229581789002000,4.127001953125,-0.20746961464916028,-0.029948309063911438,-0.1047790621163683,-0.046815693378448486,0.21832651488713944,0.9702168552728117,0.4390965939322654,right,0.004164338111877441,-0.03444739167463347,-2.0188190722510218,-9.590655717757343,0.005829374879650407,-0.029809080064296722,0.005925312638282776,0.33774668473303315,0.008031204342842102
1746229581829002000,4.167001953125,-0.20881419275255617,-0.025050465017557144,-0.10547166347049516,0.019957728683948517,0.21798614414225959,0.9702187660406294,0.43836716502076584,right,0.006660521030426025,-0.0348035477968367,-2.031687613913417,-9.587814356851577,0.005764782553205413,0.020394999533891678,0.0024838894605636597,0.341237303327769,0.00492476299405098
1746229581869002000,4.207001953125,-0.2065748729713843,0.018731124699115753,-0.10419512273910451,0.06858519464731216,0.21833767790371056,0.9702735537524195,0.4392532034058076,right,0.006470620632171631,-0.03305717439681637,-2.010331522151828,-9.592908465120196,0.006414834356254615,0.058144018054008484,0.003293827176094055,0.32412107762563974,0.002649366855621338
1746229581909001700,4.247001708984375,-0.20395218490652542,0.043192699551582336,-0.10274758454850054,0.06853803247213364,0.21904486267210863,0.9702646969606894,0.440849561117032,right,0.0016581416130065918,-0.0314807417295051,-1.9852663467392324,-9.598636779639124,0.006975992692361441,0.038657523691654205,0.003860160708427429,0.3086696067979559,0.0005259998142719269
1746229581949001700,4.287001708984375,-0.2000424530615879,0.03939565643668175,-0.10071443513160337,0.04642714560031891,0.21948006360691608,0.9703779232722581,0.44183830887495174,right,-0.003681957721710205,-0.030252414674616684,-1.9477970323055982,-9.606689153191446,0.007194012034899941,0.005441218614578247,0.0035540908575057983,0.2966295701152645,-0.006302041932940483
1746229581989001700,4.327001708984375,-0.1986315565323987,0.011178934946656227,-0.10006671410236842,0.02009996399283409,0.21945326653554775,0.9704533570065297,0.4417402767624869,right,-0.003803551197052002,-0.030589708737024254,-1.9342212191566823,-9.60932943856716,0.00687049827044604,-0.007089055143296719,0.0034051090478897095,0.29993577205380423,-0.003972513601183891
1746229582029002000,4.367001953125,-0.197696207894488,0.05043879151344299,-0.09963069633227879,-0.023455586284399033,0.2199228716391008,0.9703929229819195,0.44268292497428413,right,-0.009315550327301025,-0.03078372194507491,-1.9252208972297609,-9.611077159017324,0.006720616549058602,-0.01789950206875801,0.002643883228302002,0.3018374957555905,-0.0037592723965644836
1746229582069002000,4.407001953125,-0.19879543178105483,0.03963565453886986,-0.10027234602821483,-0.018803123384714127,0.2206941078971187,0.9701537915535017,0.44418002902089576,right,-0.009131014347076416,-0.03182648113446141,-1.9357212484560906,-9.608641456303,0.006410284421477037,-0.006583124399185181,0.0006070882081985474,0.3120584455186501,-0.0011245813220739365
1746229582109002000,4.447001953125,-0.1994201543589966,0.04332239553332329,-0.10058959143222354,-0.036660511046648026,0.22157719229576261,0.9699191498757596,0.4459871720550133,right,-0.010640859603881836,-0.03201053878444006,-1.9417121594339608,-9.60737362832427,0.006480770152607205,-0.0020469604060053825,-0.0012634843587875366,0.3138625357985496,0.0004204772412776947
1746229582149001700,4.487001708984375,-0.2030528579172169,0.00299709290266037,-0.10252234534021744,-0.12663599848747253,0.2219113272251189,0.9696425483118721,0.44654584932935776,right,-0.006575226783752441,-0.03359432721186468,-1.9764973493501543,-9.599757892623543,0.006143362250366312,-0.05395442247390747,0.0010361522436141968,0.32938582975342867,0.0020152218639850616
1746229582189001700,4.527001708984375,-0.206978869456679,0.03517409786581993,-0.10459972955995471,-0.11094501614570618,0.2219603181406513,0.9694116057218707,0.44651335796095937,right,-0.003444850444793701,-0.03518795400835443,-2.014060333416611,-9.591398060557246,0.0058041834610142945,-0.037879012525081635,-0.004609599709510803,0.3450047295698896,0.000001560896635055542
1746229582229001700,4.567001708984375,-0.21152707878011956,-0.0015012435615062714,-0.10702280915235841,-0.08902174234390259,0.22206990393748624,0.9691246651134628,0.44656311330681353,right,0.007537484169006348,-0.037194102215574724,-2.057513544565439,-9.581442483732104,0.0053386128672465345,-0.03510356694459915,-0.0013999640941619873,0.3646654521230608,0.0014543645083904266
1746229582269002000,4.607001953125,-0.21281961895854756,0.04103054851293564,-0.10763709060063982,0.002850934863090515,0.2224521139601964,0.968967674014451,0.44736839659428246,right,0.007667481899261475,-0.037104482362232086,-2.069903070539236,-9.578806874531507,0.0055689306864429985,0.03198564797639847,-0.0029920339584350586,0.3637871714511886,-0.0011485852301120758
1746229582309002000,4.647001953125,-0.2120653123264827,0.05976627767086029,-0.10717892571293544,0.018631374463438988,0.22354852323054783,0.9687635488208621,0.4497075733305916,right,0.007395923137664795,-0.036319849030201565,-2.062736686041206,-9.580641688743233,0.005990892563766341,0.0331629253923893,-0.004099145531654358,0.3560977494597435,-0.0027663148939609528
1746229582349002000,4.687001953125,-0.2104626686428732,0.06277016550302505,-0.10628188083915033,0.061861537396907806,0.22489518030080732,0.9685476941497033,0.45258121203082335,right,0.004708826541900635,-0.03530511604916645,-2.0474540689744054,-9.58428384463787,0.0064564623033947985,0.03832061588764191,-0.006220966577529907,0.34615298628956076,0.002259857952594757
1746229582389001700,4.727001708984375,-0.2079269297780038,0.012008074671030045,-0.10499528471304227,0.06376463174819946,0.22577606138735434,0.9684828243530895,0.4544312430139635,right,0.0058272480964660645,-0.03483029179979967,-2.023177998112887,-9.589604747399687,0.006498614916179706,0.0059827156364917755,-0.005554288625717163,0.34149942486267537,-0.0010525062680244446
1746229582429001700,4.767001708984375,-0.2049795331707921,0.021995311602950096,-0.10349300617911443,0.08019097149372101,0.2261267129250158,0.9685625619954459,0.4552004356869653,right,-0.0006507635116577148,-0.034178893258199436,-1.9949496824942528,-9.595741642719506,0.006521430858882717,0.03253255784511566,-0.005707189440727234,0.33511516718566414,0.001069825142621994
1746229582469001700,4.807001708984375,-0.20362735676920984,-0.01805727742612362,-0.1028395711752186,-0.00850067287683487,0.22635291397020008,0.9685802582680714,0.4556559653824841,right,-0.002927839756011963,-0.03420467527115727,-1.981970958455652,-9.598421675583719,0.006379475076885773,-0.03292073309421539,-0.0017755180597305298,0.33536786330509927,0.0014626234769821167
1746229582509002000,4.847001953125,-0.2041362859240747,-0.020225608721375465,-0.10316972789127803,0.011998249217867851,0.2256152745808228,0.9687195664158074,0.45406660053415004,right,-0.002239048480987549,-0.03491229937367728,-1.9868070003099738,-9.597177228480577,0.006012124572662487,0.0012122578918933868,-0.004281669855117798,0.3423031424609944,-0.0006188862025737762
1746229582549002000,4.887001953125,-0.20513423031262518,-0.04918932542204857,-0.10370819897523822,-0.06433594226837158,0.22519085327799016,0.9687618790173791,0.4531499176385329,right,-0.005574166774749756,-0.035384423686437155,-1.9963503430724143,-9.595030279579758,0.005848307836813066,-0.045409489423036575,-0.00005605816841125488,0.3469302542723715,0.0038350559771060944
1746229582589002000,4.927001953125,-0.2067223591642429,-0.002739138901233673,-0.10455946501926883,0.015499234199523926,0.22424767050549924,0.9688906901458817,0.4511438045250844,right,-0.005320310592651367,-0.03607375819551709,-2.011536367896944,-9.591611411046982,0.005588090699296217,0.02552558109164238,-0.010209739208221436,0.35368597561027854,0.0020836256444454193
1746229582629001700,4.967001708984375,-0.20375532107424082,-0.007077563554048538,-0.10281099958139406,0.08050411194562912,0.22437299143509742,0.9690420025742287,0.45166121718112745,right,-0.00688403844833374,-0.03327169400395244,-1.9832617289185523,-9.598470190900564,0.006640820180048247,0.08004716038703918,-0.009893879294395447,0.32622363939546045,0.004596095532178879
1746229582669001700,5.007001708984375,-0.2016257186672745,-0.03193141520023346,-0.1015454673791354,0.05352722108364105,0.2236795856408534,0.9693303223669871,0.45042608964223363,right,-0.008079707622528076,-0.031117557092913865,-1.9629525158613919,-9.603338673719763,0.007383840335496575,0.03844842687249184,-0.014216765761375427,0.3051097223592922,0.00542512908577919
1746229582709001700,5.047001708984375,-0.20086386206062853,-0.03765799477696419,-0.10108213789041927,-0.0112801194190979,0.22336060752771772,0.96944989495757,0.44984715956564614,right,-0.000326693058013916,-0.03024466592531965,-1.9556879316858946,-9.605088732257485,0.007692754623116584,0.0017782337963581085,-0.00691869854927063,0.29655361880222336,0.007431263104081154
1746229582749002000,5.087001953125,-0.20048971990586487,-0.044948186725378036,-0.10080594528864126,0.04628097638487816,0.22233728311065543,0.9697113647644758,0.4478241991577188,right,0.0035903453826904297,-0.029310343943631453,-1.9521483593828974,-9.60608709564507,0.00800222270681265,0.04770820587873459,-0.00845019519329071,0.2873951106389053,0.0049966126680374146
1746229582789002000,5.127001953125,-0.19874393621933284,-0.021671798080205917,-0.09973646408896977,0.02580139972269535,0.22189853079805644,0.9699158510353809,0.4471040416909015,right,0.0019361376762390137,-0.027250341338986746,-1.9354881703525781,-9.61004021718502,0.008771782012011326,0.04101840406656265,-0.0034624487161636353,0.2672014685191214,0.0006492063403129578
1746229582829002000,5.167001953125,-0.19819078001867765,-0.04920519143342972,-0.0993685266695843,0.012258115224540234,0.22125535594404727,0.9700973387345426,0.4458655653162248,right,0.0007168054580688477,-0.026289611350336358,-1.9302216281265019,-9.611356560480594,0.00911509269796754,0.006341453641653061,0.0012930333614349365,0.2577833047726191,0.0015896111726760864
1746229582869002000,5.207001953125,-0.19833645683685716,-0.04728084057569504,-0.09944999500730035,-0.011214197613298893,0.22033498316780492,0.9702992696441269,0.4439677002165694,right,0.007298946380615234,-0.026309704447170037,-1.9316206812694667,-9.611070144754647,0.00902708948315303,-0.009275272488594055,0.0077991485595703125,0.2579802886494435,-0.0026174746453762054
1746229582909001700,5.247001708984375,-0.19811266894044563,-0.01905779168009758,-0.09926990212641121,0.02696029096841812,0.21971681426351736,0.9704554100607149,0.44275989085432577,right,0.003832101821899414,-0.025601311784547047,-1.929505296550691,-9.6116792165637,0.009286371050342242,0.03571264073252678,0.004277735948562622,0.25103565714331344,-0.005898632109165192
1746229582949001700,5.287001708984375,-0.19740820044339624,-0.05161992087960243,-0.09881449799284728,-0.015323091298341751,0.21927521616976686,0.9705977608851248,0.4419472704044848,right,0.0003821849822998047,-0.02451961907840555,-1.9227857790373264,-9.613296588632464,0.009694015036919723,-0.0068375058472156525,0.007730752229690552,0.24043120622169226,-0.0060233063995838165
1746229582989001700,5.327001708984375,-0.19822631926087503,-0.041050985455513,-0.09921300256823991,-0.021568426862359047,0.21819882581375877,0.9707994357924079,0.43974593589505273,right,-0.004148006439208984,-0.024434103304314437,-1.9306540281943976,-9.611740591362118,0.009716038429781257,-0.0072899190708994865,0.0038139522075653076,0.2395928374351002,-0.010447031818330288
1746229583029002000,5.367001953125,-0.19885631094183748,-0.05343644693493843,-0.09950604221801536,-0.02728879079222679,0.21713277730327538,0.9710077491126333,0.43757729180223515,right,-0.007159292697906494,-0.024217070971731394,-1.936719173452258,-9.610572716626525,0.009782281691526824,-0.006744857877492905,0.0053374022245407104,0.23746510469140483,-0.014664150774478912
1746229583069002000,5.407001953125,-0.1996173804207106,-0.005851898342370987,-0.09980366656138505,-0.04142488166689873,0.21644320073237258,0.9711273101197413,0.436236175872934,right,-0.009620964527130127,-0.023484228385709342,-1.9440669058665632,-9.609263972115516,0.010153962331793387,0.007614213973283768,0.0022222697734832764,0.23028041735170407,-0.013270795345306396
1746229583109002000,5.447001953125,-0.20340907012344983,-0.04341000318527222,-0.1017356482784535,-0.12051568925380707,0.21612070294923952,0.9709990081376093,0.4355311178610935,right,-0.002076864242553711,-0.024301589070410877,-1.9804495941072702,-9.601636545976996,0.010131401932255622,-0.05363362282514572,0.008230328559875488,0.23829370100265368,-0.0059666018933057785
1746229583149001700,5.487001708984375,-0.20713510613341146,0.0004916824400424957,-0.10363918916944259,-0.08861874043941498,0.21560553120379122,0.9709128294217703,0.4344250092700269,right,0.0017711520195007324,-0.02513614869421447,-2.0161701651774346,-9.593992753225564,0.010071379450145544,-0.024024566635489464,0.00392661988735199,0.24647543655568732,-0.006556401029229164
1746229583189001700,5.527001708984375,-0.21106332522259433,0.028569765388965607,-0.10562324390334692,-0.09828364849090576,0.21602206303164265,0.9706053953605258,0.43524599782799156,right,0.005998492240905762,-0.025900935262786712,-2.0538016844354567,-9.585811200335622,0.01016677983425236,-0.017576228827238083,0.009126350283622742,0.2539729892368428,0.0015658307820558548
1746229583229001700,5.567001708984375,-0.21380443520998424,0.016959436237812042,-0.10706173161462049,-0.05924678221344948,0.21656885970566006,0.9703275895638138,0.43629092237705713,right,0.007452189922332764,-0.026965521254670895,-2.080011207577586,-9.579875965067744,0.010001890625188997,-0.05175231769680977,0.009416833519935608,0.26440937184887003,-0.0009177681058645248
1746229583269002000,5.607001953125,-0.21630869363649585,0.004710632376372814,-0.10856087192918501,-0.05104701966047287,0.21648477421209197,0.9701899026099243,0.4358649627386351,right,0.008998870849609375,-0.02960860235489863,-2.1038377811059354,-9.573920856055617,0.008966943102237964,-0.06807814538478851,0.006996482610702515,0.2903187612669542,-0.004931708797812462
1746229583309002000,5.647001953125,-0.2159817583470014,0.09854553639888763,-0.10854065233558811,0.04192274063825607,0.21735034058266148,0.9700040129602646,0.43750337313589804,right,0.005289733409881592,-0.030969712904738027,-2.1006210110165178,-9.57421370152235,0.00835972468850928,0.0009099170565605164,0.0038850009441375732,0.3036605647305958,-0.004259789362549782
1746229583349002000,5.687001953125,-0.2125862228768819,0.03726358339190483,-0.10686064050067268,0.09490087628364563,0.2185579729359385,0.9699203577375919,0.4399866631126705,right,-0.0051808953285217285,-0.030756053441138333,-2.0681129722520706,-9.58135422092676,0.008227111134161977,0.01698039285838604,0.005227640271186829,0.30156629586508493,0.0020516104996204376
1746229583389001700,5.727001708984375,-0.20938562725852122,0.04152032732963562,-0.10526201691401645,0.07669257372617722,0.2194642268516394,0.9698912362641151,0.44186524161460133,right,-0.013337969779968262,-0.03039669332852501,-2.037458890791237,-9.588030045428871,0.008150646724459558,0.017280304804444313,0.002250760793685913,0.2980438208273612,0.0021773893386125565
1746229583429001700,5.767001708984375,-0.2070626047153666,0.0818324089050293,-0.1040315289142993,0.0600743442773819,0.22058163270901177,0.9697679875619803,0.4442374998188567,right,-0.023501217365264893,-0.02952858252119268,-2.0152325920663774,-9.592986791053415,0.008440471165344122,0.07490522414445877,-0.001175805926322937,0.28953436942361294,0.005359360948204994
1746229583469001700,5.807001708984375,-0.20570496518681566,0.09084314107894897,-0.10304552954727962,-0.052225276827812195,0.22271415408794126,0.9693720993413943,0.4489047782551663,right,-0.03259718418121338,-0.026727739150267927,-2.002364634925872,-9.596469956994056,0.009890339787314803,0.07487118244171143,0.00217379629611969,0.26207835335172713,0.008261088281869888
1746229583509002000,5.847001953125,-0.21179636718462172,-0.004911191761493683,-0.10590473392911612,-0.21444186568260193,0.2230122883297433,0.9689833255878744,0.44966758524488887,right,-0.02836000919342041,-0.02592257697610625,-2.060826760766655,-9.584297873163223,0.010999384469586447,0.006031230092048645,0.002193763852119446,0.25418515241649,0.010275289416313171
1746229583549002000,5.887001953125,-0.22079242474173533,0.05100669711828232,-0.11022667282291145,-0.24665406346321106,0.22338193386532534,0.9684018629390195,0.4505672354123514,right,-0.020672857761383057,-0.02564992031807822,-2.146978273043781,-9.565438274392484,0.012184087909384076,0.012883033603429794,-0.0009019076824188232,0.2515121886138804,0.00878174789249897
1746229583589002000,5.927001953125,-0.23056553597380824,0.004113394767045975,-0.11499554154630885,-0.2688820958137512,0.22368681108160032,0.9677644159924282,0.451282061590816,right,0.0016136765480041504,-0.026037727824825618,-2.240335917307436,-9.543903318932651,0.013128807855281298,-0.016428040340542793,0.0036303550004959106,0.2553140103159472,0.009649982675909996
1746229583629001700,5.967001708984375,-0.23893902602042782,-0.012874409556388855,-0.1190738070888116,-0.18116845190525055,0.22347246378970123,0.9673092692141839,0.45092995928826496,right,0.01948791742324829,-0.026264721789273814,-2.3201583726935087,-9.52475321278274,0.013934391395723793,0.0041563138365745544,0.00216597318649292,0.2575393034162931,0.002494111657142639
1746229583669001700,6.007001708984375,-0.24434219813273741,-0.011310631409287453,-0.12165388770981368,-0.12334713339805603,0.22318473959982424,0.9670437456980747,0.4504538495577462,right,0.023498475551605225,-0.02593567277912236,-2.3716085739456116,-9.512159688669442,0.014668321569429937,0.00821131281554699,-0.003588840365409851,0.2543135280365124,-0.006861375644803047
1746229583709001700,6.047001708984375,-0.2493055512675506,0.0003999657928943634,-0.12415035812028341,-0.11073235422372818,0.22303365602824418,0.9667595237631451,0.45011299578428715,right,0.023667097091674805,-0.026794292483720682,-2.4187366742148995,-9.500056578421592,0.014785646960527121,-0.03186802566051483,-0.00777667760848999,0.26273078937847166,-0.007946968078613281
1746229583749002000,6.087001953125,-0.25066276206696914,0.003657424123957753,-0.12481273403075178,0.06459865719079971,0.22325070342229342,0.9666220278192353,0.4505719924741002,right,0.023775577545166016,-0.02688328355866973,-2.431622167012095,-9.496742339307069,0.014922593822300174,0.034142278134822845,-0.010257333517074585,0.2636031882988289,0.0011106859892606735
1746229583789002000,6.127001953125,-0.24649317206626173,0.004456096328794956,-0.12261661176057352,0.11990781128406525,0.22356221116381958,0.9668256052309974,0.45134502700932544,right,0.016340553760528564,-0.025295426078664952,-2.392102788180858,-9.507192421650887,0.015272740481343765,0.028666678816080093,-0.013643056154251099,0.24803691371874884,-0.0009720958769321442
1746229583829002000,6.167001953125,-0.24231543987635243,0.02396301180124283,-0.1205177144899376,0.08495989441871643,0.22397744096528538,0.9669948870635062,0.4522169251587078,right,0.0040367841720581055,-0.02463858372977205,-2.3524020614333447,-9.517259057635068,0.015176092449444303,-0.005521558225154877,-0.016813457012176514,0.2415975100547075,0.0005456879734992981
1746229583869002000,6.207001953125,-0.24125839199508445,0.0032760612666606903,-0.12013845081563879,0.03442513570189476,0.22401675353990116,0.9670436716114286,0.452141124768333,right,-0.0003781318664550781,-0.025826353683316955,-2.3422702512584626,-9.51945510637462,0.01447844059634546,-0.02121884562075138,-0.015939176082611084,0.2532418436843902,0.004027869552373886
1746229583909001700,6.247001708984375,-0.23957610883460798,0.05008470639586449,-0.11926349577446901,0.06313860416412354,0.22457192047675764,0.9670214977856518,0.4533204594645282,right,-0.0018018484115600586,-0.025347619232851698,-2.3262810933575033,-9.523498244285584,0.014592002162015522,0.04357089847326279,-0.012571364641189575,0.24854858956793321,0.003955557942390442
1746229583949001700,6.287001708984375,-0.23931945429405468,0.013368446379899979,-0.11908426469674746,0.01825748383998871,0.22547685845454693,0.9668289748542401,0.4552317755898067,right,0.0035869479179382324,-0.024977721018332826,-2.3238583962552246,-9.524183888462185,0.014855971763802933,0.01860753260552883,-0.005766123533248901,0.2449222705632448,0.00529477559030056
1746229583989001700,6.327001708984375,-0.23774160071764855,-0.0028768815100193024,-0.11823384608292711,0.05811653286218643,0.225505957073421,0.9669233667776408,0.4553586722814338,right,0.002019345760345459,-0.024199119067284152,-2.308871985656023,-9.528021274667978,0.015062267045436633,0.010070554912090302,-0.00765344500541687,0.237289108803682,0.00007014907896518707
1746229584029002000,6.367001953125,-0.23629623999620755,-0.026115845888853073,-0.11757866311636848,0.056928131729364395,0.22519899694536477,0.9670804722648412,0.4546613629551785,right,0.012315034866333008,-0.024544764982215604,-2.2950787303641436,-9.531268293765187,0.014691069787324158,-0.007174652069807053,-0.0020846575498580933,0.24067772832866757,0.00964513048529625
1746229584069002000,6.407001953125,-0.23268033983208436,0.01591060683131218,-0.11576282297479386,0.10593755543231964,0.22498585425541734,0.9673510087423886,0.45423863044488255,right,0.008962750434875488,-0.02391278943583037,-2.2606343167096377,-9.539650337663293,0.014565284190982332,0.02595355734229088,-0.0076458752155303955,0.2344819789610803,0.006439493969082832
1746229584109002000,6.447001953125,-0.2287184397821943,-0.024521395564079285,-0.11378581155088395,0.12064413726329803,0.22500294332599297,0.9675844105022422,0.4542760347580467,right,0.006498098373413086,-0.02337108460151893,-2.2228500911079347,-9.548654312852024,0.014383927454257098,0.011639902368187904,0.0001267939805984497,0.2291711592018604,0.0030116885900497437
1746229584149001700,6.487001708984375,-0.22249177521276836,0.007475625723600388,-0.11065589477585867,0.18710611760616302,0.22492202931536584,0.9679689950213259,0.45413422057165254,right,0.004088759422302246,-0.02231092006103692,-2.163403484274447,-9.562541968429088,0.014188898523238463,0.03822227567434311,-0.0012187957763671875,0.21877720922576263,-0.005010198801755905
1746229584189001700,6.527001708984375,-0.21716209154156105,-0.025274883955717087,-0.10806091618727079,0.11782221496105194,0.22470709238160114,0.9683198725182096,0.45363155189547893,right,-0.0015619397163391113,-0.022144378390416913,-2.1124154937066137,-9.57397170946002,0.013642981366064058,-0.009722311049699783,0.00005342066287994385,0.21714440212585032,-0.0019362755119800568
1746229584229001700,6.567001708984375,-0.212966995762776,-0.007352886721491814,-0.10602933668554163,0.10446836054325104,0.22439689179699857,0.9686231059011905,0.4529374852022666,right,-0.009444355964660645,-0.022101077698851317,-2.0722353128790854,-9.582758242505788,0.013155802563984081,0.008247163146734238,0.000003069639205932617,0.21671987483715638,-0.0016546230763196945
1746229584269002000,6.607001953125,-0.2099245812202461,-0.013230813667178154,-0.10447140090629592,0.06468714773654938,0.22406534567428713,0.9688689466995233,0.4522943055229783,right,-0.016549110412597656,-0.0213037303775322,-2.0431063951589166,-9.589184476161002,0.013167272123322383,0.026175163686275482,0.002418339252471924,0.20890240601925178,0.001785971224308014
1746229584309002000,6.647001953125,-0.20771989600129465,-0.004235406406223774,-0.10326694975004556,0.06462714076042175,0.22391592236516486,0.9690278010837089,0.4520826978197195,right,-0.016828835010528564,-0.020062074426002025,-2.022012169203907,-9.593912089204787,0.013511222232560616,0.04207228869199753,-0.0005879700183868408,0.19672851382382212,0.0006525404751300812
1746229584349002000,6.687001953125,-0.20401320122085467,0.008677606470882893,-0.10116190501790406,0.11364954710006714,0.22430348845649264,0.9691464603068444,0.4531038751952614,right,-0.015700340270996094,-0.017345648197507686,-1.9865375357188284,-9.601828853678702,0.014464871476324258,0.09364556521177292,0.001235082745552063,0.1700941528657451,0.005778824910521507
1746229584389001700,6.727001708984375,-0.1988816827275945,-0.02857951819896698,-0.09823415144273917,0.11955069750547409,0.2242257820940914,0.9694445464173821,0.4532553904573817,right,-0.00919795036315918,-0.013398513510204104,-1.9373573252253233,-9.612480011552572,0.015810675481424438,0.10274417698383331,0.0027429014444351196,0.13139057479626498,0.005297827534377575
1746229584429001700,6.767001708984375,-0.1944481285283357,0.006948322057723999,-0.09561527028121228,0.09568062424659729,0.22426030482140827,0.9696718724100196,0.45365758766594044,right,-0.004116952419281006,-0.009219900407847668,-1.8948104152664542,-9.621429626205563,0.017359299827352043,0.11232700198888779,0.0022239387035369873,0.09041502407365479,0.00262441486120224
1746229584469001700,6.807001708984375,-0.1918898254475913,-0.025963686406612396,-0.09401973679580453,0.03809186816215515,0.22459168652693867,0.969727777596152,0.45459121500766636,right,0.002060532569885254,-0.0061198847111071245,-1.8702341924145818,-9.626474050113558,0.018619790436057146,0.05634401738643646,0.004341557621955872,0.060015159402485,0.0018380489200353622
1746229584509002000,6.847001953125,-0.19214278998540757,-0.018808361142873764,-0.094008282276438,-0.030142605304718018,0.22427999150320238,0.9697892141875453,0.4540721262858101,right,0.008636653423309326,-0.004878188198312221,-1.8726820239581166,-9.626066638356447,0.019225922553059806,0.011262718588113785,0.0048032402992248535,0.047838458762038495,-0.004036792553961277
1746229584549002000,6.887001953125,-0.1934914978880895,-0.012937349267303944,-0.0947021890072962,-0.04641231149435043,0.22413786520159332,0.9697550531773832,0.45377388751341347,right,0.007979333400726318,-0.005209596247732729,-1.8856600173443554,-9.623515784829854,0.019202333693896616,-0.03575493395328522,0.005583912134170532,0.05108842330158222,-0.010089915245771408
1746229584589002000,6.927001953125,-0.1953365485772811,0.010094606317579746,-0.09579255622833378,-0.04181264340877533,0.2239471999843604,0.9697046803054361,0.45325123951959634,right,0.006468474864959717,-0.006917577326218226,-1.9033929501727223,-9.619920975208283,0.018555869672955014,-0.04341105371713638,0.0018450617790222168,0.06783768342141992,-0.015298333019018173
1746229584629001700,6.967001708984375,-0.19637108584120233,0.04328606277704239,-0.09641488091720926,-0.040958985686302185,0.22438858625776287,0.9695484949915013,0.45406941997006206,right,0.0035875439643859863,-0.008065653564358101,-1.9133276303403077,-9.617864042678475,0.01815444596902212,-0.03765829652547836,-0.0013871043920516968,0.0790961504055187,-0.015609711408615112
1746229584669001700,7.007001708984375,-0.19681580954258945,0.045439932495355606,-0.096718935834637,0.03676089644432068,0.22489122644091783,0.9694077498261744,0.4550298644971869,right,-0.006277799606323242,-0.008933458586790993,-1.9175905484817921,-9.616941082614659,0.01783003098732498,0.008937302976846695,-0.004016682505607605,0.0876061041327659,-0.005843903869390488
1746229584709001700,7.047001708984375,-0.1948035385774375,-0.0181427039206028,-0.0956202835544501,0.004600640386343002,0.2257685660033102,0.9693067874313178,0.4568949705598039,right,-0.016200363636016846,-0.007984156412861508,-1.898250034326315,-9.62085737927556,0.01815319848595401,-0.00819443166255951,0.003079041838645935,0.07829696285184472,-0.0009142844937741756
1746229584749002000,7.087001953125,-0.19867509619090098,-0.027522407472133636,-0.09767123745625224,-0.16957060992717743,0.22507673987319618,0.9692693443237244,0.4553991184029707,right,-0.023533284664154053,-0.00941941721120873,-1.9354592365190386,-9.613316462376714,0.017821552746330967,-0.07207642495632172,-0.0058127641677856445,0.0923715284362901,0.003809921443462372
1746229584789002000,7.127001953125,-0.20694413342827137,0.043576695024967194,-0.10195462183401899,-0.24978068470954895,0.22509264559793404,0.9688293885689613,0.45533495502674387,right,-0.0077100396156311035,-0.011885668034838478,-2.014832194571942,-9.596731238278746,0.0175537010591811,-0.05383627861738205,-0.004165425896644592,0.11655581109481863,0.011372610926628113
1746229584829002000,7.167001953125,-0.21737113715101716,0.062309183180332184,-0.10719817737790528,-0.24939413368701935,0.22606775156171255,0.9680293824788415,0.4573407607507834,right,0.00855875015258789,-0.013780119178142949,-2.114734584303945,-9.574968319281934,0.017917027845392845,-0.018662601709365845,0.0031707286834716797,0.13513250127094797,0.01195051521062851
1746229584869002000,7.207001953125,-0.22593401967239385,0.04431695491075516,-0.11151254931922704,-0.2129831463098526,0.22705209920683134,0.9673064398586246,0.45935033866086117,right,0.01807713508605957,-0.015464575610182853,-2.1965911758661267,-9.556274140205979,0.018181600036414232,-0.0444980263710022,0.005912676453590393,0.15164961030245758,0.004267355427145958
1746229584909001700,7.247001708984375,-0.2323150674796464,-0.027237921953201294,-0.11485127600170562,-0.09074903279542923,0.22695369580343583,0.9669456673062921,0.4590142416495114,right,0.024065613746643066,-0.017685770910521252,-2.2574420965395867,-9.541711946368217,0.017812269774191432,-0.03885777294635773,0.005260750651359558,0.17342910597473382,-0.006667637266218662
1746229584949001700,7.287001708984375,-0.23365364701695004,0.030374057590961456,-0.11563862074136627,0.013520695269107819,0.2268981255117514,0.9668731572326962,0.45878242163649974,right,0.021716833114624023,-0.018914688715617835,-2.2701612928591666,-9.538466680836677,0.01735636749046077,-0.01362575776875019,0.00033180415630340576,0.18547864113813264,-0.015853531658649445
1746229584989001700,7.327001708984375,-0.22966712128942093,0.07187879830598831,-0.11365910623982461,0.1740894615650177,0.2278748540377265,0.9668815480325208,0.4607672489523933,right,0.006184756755828857,-0.018602705361976658,-2.232131129672378,-9.547496959510445,0.01716780722518258,0.04834391176700592,0.0034683793783187866,0.18241967369262127,-0.004637505859136581
1746229585029002000,7.367001953125,-0.2207989343148658,-0.01742454618215561,-0.10917017055276818,0.2239811271429062,0.22823213288227578,0.9673168774911421,0.4615399660238109,right,-0.0048184990882873535,-0.016885738173150835,-2.1474407759889957,-9.567207622152566,0.017030275579832447,0.027957061305642128,-0.002866312861442566,0.16558462128574028,-0.001465662382543087
1746229585069002000,7.407001953125,-0.2128392240581788,0.08962877839803696,-0.10512513858225951,0.18484064936637878,0.22919423194939495,0.967538141653594,0.463556392446232,right,-0.009574949741363525,-0.015320535730172153,-2.0712736282400788,-9.584238836452364,0.01698548769086321,0.05845639854669571,-0.006654515862464905,0.15023722275388426,0.0012196479365229607
1746229585109002000,7.447001953125,-0.20924536635963809,-0.001554340124130249,-0.10340754979454124,0.031734347343444824,0.23049809589553172,0.9674214429114817,0.46615064001055423,right,-0.004589080810546875,-0.015694159823177383,-2.0368040801443157,-9.591565233817697,0.016526908372551077,-0.04602150619029999,0.0028393715620040894,0.15390079589588568,0.005713922902941704
1746229585149001700,7.487001708984375,-0.2080170450220853,-0.03183429688215256,-0.10302804945635649,0.04154861718416214,0.2296472892291687,0.9676821574927159,0.4641925265845972,right,0.00038939714431762695,-0.017437466755673026,-2.0249625434421,-9.593782909867167,0.01544083521220551,-0.04996320977807045,-0.010097265243530273,0.17099444444002582,-0.011002452112734318
1746229585189001700,7.527001708984375,-0.2059899530780564,-0.0296496469527483,-0.10222080900341678,0.0771341323852539,0.22901476961040265,0.9679330851871878,0.4627086742762616,right,0.011940240859985352,-0.01886681590105273,-2.0054589476794003,-9.59761912702918,0.014440282003216865,-0.021157817915081978,-0.0018158406019210815,0.18500925179440528,-0.006840948946774006
1746229585229001700,7.567001708984375,-0.20114905190896448,0.04287021607160568,-0.09974622606897846,0.14648950099945068,0.2290355351768542,0.9681861861162718,0.4627945000194973,right,0.00180131196975708,-0.01771529650037076,-1.9590157609343528,-9.607416882944106,0.014447887725068864,0.05547931790351868,-0.008578479290008545,0.17371860870691017,-0.0023857802152633667
1746229585269002000,7.607001953125,-0.19576040580098242,0.007054954767227173,-0.09699554754912418,0.11814627051353455,0.2297694974435498,0.9682915530769051,0.46434213012575754,right,-0.0020254850387573242,-0.016567182300784994,-1.9072541556455194,-9.61802303263247,0.014461972687381112,-0.005515478551387787,-0.00009191036224365234,0.16246110070403663,0.00543791800737381
1746229585309002000,7.647001953125,-0.19051146140681008,0.008545138873159885,-0.09441491825210595,0.1598847657442093,0.22992394581019798,0.9685162791518672,0.46461477226068076,right,0.001297295093536377,-0.01624185180851841,-1.8567535102032124,-9.627953475016355,0.014029378729492096,0.02861211448907852,-0.0003954172134399414,0.15927112728999926,0.0063371676951646805
1746229585349002000,7.687001953125,-0.1848895513810243,0.01696721278131008,-0.09156151687201236,0.1145123541355133,0.23051481562013568,0.9686508463314493,0.4658521239640441,right,-0.002483844757080078,-0.01517452765337546,-1.802627221609652,-9.638401219272613,0.013956848933401796,0.019057322293519974,0.0018324106931686401,0.1488055459829513,0.0038994960486888885
1746229585389001700,7.727001708984375,-0.18333786655128778,0.015381020493805408,-0.09089350047749246,-0.005686841905117035,0.2309388625468035,0.9686200757412897,0.46663561280751154,right,-0.0035401582717895508,-0.015949438298822057,-1.7876476791426539,-9.641070146220923,0.013438148653997332,-0.028918374329805374,0.0005157291889190674,0.15640390129061416,0.004866231232881546
1746229585429001700,7.767001708984375,-0.18418578060575258,0.025345150381326675,-0.09146837438652851,-0.031148718670010567,0.23148876762752596,0.968442523506857,0.4676484973361841,right,-0.007402598857879639,-0.017437478043938703,-1.795777209584415,-9.639311904376745,0.01286147993034015,-0.03828997164964676,-0.000712662935256958,0.17099455403788014,0.005491213873028755
1746229585469001700,7.807001708984375,-0.1858439897795298,-0.0434441901743412,-0.09249285902529597,-0.044885605573654175,0.23101359497170784,0.9684685173942416,0.4665192711812789,right,-0.004114210605621338,-0.01930581742346404,-1.8116965171195565,-9.635990066477655,0.01209621022192646,-0.04263416305184364,0.0010614246129989624,0.18931361619113013,0.006537647917866707
1746229585509002000,7.847001953125,-0.18681371440597902,0.011965569108724594,-0.09300160032121005,-0.013576287776231766,0.2307124862438372,0.9684925300428838,0.46588147500118926,right,0.0003279447555541992,-0.019614193624695884,-1.8210289936102926,-9.63417044983506,0.012029171185531795,0.015099052339792252,0.0006037056446075439,0.19233718352969734,0.005380287766456604
1746229585549002000,7.887001953125,-0.18892219583321931,-0.02006351947784424,-0.09409059349391999,-0.09014441072940826,0.23071628228703622,0.9683869993026959,0.46586095139627154,right,0.0000069141387939453125,-0.020207487526646382,-1.841316725488007,-9.630195700985192,0.011984026831742987,-0.03612430766224861,0.004194021224975586,0.19815425404431297,0.0009186305105686188
1746229585589002000,7.927001953125,-0.1910773491826042,0.027891140431165695,-0.09518472641373207,-0.0058820247650146484,0.230785947225303,0.9682630294024128,0.4659897886557193,right,0.00476151704788208,-0.020657214629716713,-1.8620498630456626,-9.62611690723896,0.01202093246797612,0.027800876647233963,0.001309230923652649,0.20256364971809088,-0.0005868561565876007
1746229585629001700,7.967001708984375,-0.1898783216331087,0.00860072672367096,-0.09447038164303978,0.02888292446732521,0.23157476460622073,0.9681386538996447,0.4677042749973332,right,0.003673732280731201,-0.019580972908170537,-1.8505466183871029,-9.628550856387614,0.012484880664795205,0.023099221289157867,0.0037273168563842773,0.1920114587066695,-0.002020476385951042
1746229585669001700,8.007001708984374,-0.1886380522376176,0.01752595044672489,-0.09377009855622566,0.03746329993009567,0.23191135168646593,0.9681223218421897,0.4684600709485546,right,0.000995635986328125,-0.01875359663994007,-1.8386323087096212,-9.630991235277056,0.012777415960569577,0.028626875951886177,0.0010648220777511597,0.18389915339434518,-0.0011168085038661957
1746229585709001700,8.047001708984375,-0.18722893023654905,-0.003704329952597618,-0.09303119431811292,0.023408254608511925,0.2320942891369198,0.9681487035094787,0.4688626792847196,right,-0.0034042000770568848,-0.01828284675793798,-1.8250752002611754,-9.633656655094027,0.012860725581400419,-0.008355079218745232,-0.00153389573097229,0.17928345802612602,-0.0015708524733781815
1746229585749002000,8.087001953125,-0.1864688470495343,0.053540974855422974,-0.09269578781628975,0.0322088859975338,0.2323305169031649,0.9681270298943099,0.4693125605530048,right,-0.0019458532333374023,-0.018589884898215725,-1.81774193476364,-9.634986442393064,0.012644676602721441,0.008677473291754723,-0.002811253070831299,0.18229396495372055,-0.0014167223125696182
1746229585789002000,8.127001953125,-0.18674039856776872,0.012727998197078705,-0.09289651275377443,-0.053734179586172104,0.23358031651772124,0.9678096858095575,0.4718311801791944,right,-0.0014058947563171387,-0.019325835986872448,-1.8203329741701482,-9.63435808136165,0.012436825670843796,-0.04821379482746124,0.004669189453125,0.18950988768190144,0.006914043799042702
1746229585829002000,8.167001953125,-0.1897704880258501,-0.033485714346170425,-0.09465829294479919,-0.054457295686006546,0.23314177743364534,0.9677560353277384,0.47073286853968715,right,-0.00012254714965820312,-0.021822567567631367,-1.8494224366627632,-9.628303603628277,0.011530163068903464,-0.05497763305902481,-0.0006387978792190552,0.21398928082948548,0.001420542597770691
1746229585869002000,8.207001953125,-0.19070532105629362,0.027425017207860947,-0.0951734632145835,-0.0235912948846817,0.2332696278560145,0.9676764270266358,0.4709566804866431,right,-0.00042951107025146484,-0.022377348647789563,-1.8583996699750422,-9.62645242280364,0.011381219456336257,0.00008860230445861816,0.0002487450838088989,0.21942849447503684,-0.0011595133692026138
1746229585909001700,8.247001708984374,-0.19236936768229945,-0.030432112514972687,-0.09607169825630589,-0.05106762796640396,0.2331985167803615,0.9676071407265593,0.4707547800042447,right,-0.003842949867248535,-0.023173442301468943,-1.8743819597437976,-9.62317208595872,0.011180253774334252,-0.04493923485279083,0.003405138850212097,0.22723346913754938,0.0013683978468179703
1746229585949001700,8.287001708984375,-0.19365438316062775,-0.03902459889650345,-0.09684271221943559,0.01625707745552063,0.23260533327028565,0.9676788108336415,0.4694274984428021,right,-0.0002681612968444824,-0.02440500964527154,-1.8866911139577627,-9.620473348394036,0.010669695034573651,-0.02320525422692299,0.002255171537399292,0.23930760901924222,-0.0007289554923772812
1746229585989001700,8.327001708984374,-0.19215246629742366,-0.014256073161959648,-0.09611218834349738,0.06207487732172012,0.23207171238701407,0.9678817679216882,0.46831616897786876,right,0.0012780427932739258,-0.024321205612498037,-1.8722436325408518,-9.62331587834358,0.010482185428108125,0.022785961627960205,0.001279100775718689,0.23848600870436057,0.0013320259749889374
1746229586029002000,8.367001953125,-0.18904872428041514,-0.015577624551951885,-0.09441725130769409,0.09321659058332443,0.23204034745127966,0.9680510836426419,0.4683724482930403,right,0.000744938850402832,-0.02264664489970863,-1.8424388613857328,-9.629459203404188,0.010935639040912114,0.048374973237514496,0.002513796091079712,0.22206870678551494,0.006784655153751373
1746229586069002000,8.407001953125,-0.18580237971451172,-0.008311700075864792,-0.09268379030125352,0.07787707448005676,0.2318334747956037,0.9682647101934908,0.46803815328381926,right,-0.0018603205680847168,-0.02122168599102042,-1.8112252463459968,-9.635690791270136,0.011233662122155168,0.028284944593906403,-0.0016322731971740723,0.20809801256749777,-0.00492497906088829
1746229586109002000,8.447001953125,-0.18297702572273336,0.024420496076345444,-0.09124142223445603,0.050095535814762115,0.23215443356928106,0.9683247992951322,0.4687235495487592,right,-0.00655674934387207,-0.020607846098524563,-1.7840167752943932,-9.640893620610237,0.011234770561946304,-0.0028524231165647507,-0.0004891306161880493,0.20207961079450323,-0.0025585610419511795
1746229586149001700,8.487001708984375,-0.18329631538046706,-0.07368642091751099,-0.09164914669056225,-0.036278434097766876,0.23165771602156504,0.9684170577924318,0.4675097854855891,right,-0.0031655430793762207,-0.022752760027082205,-1.7870117193266748,-9.639875383478403,0.010177261386312666,-0.08962241560220718,0.007719933986663818,0.22310908268392085,0.000294586643576622
1746229586189001700,8.527001708984375,-0.18517326063647768,-0.03185516595840454,-0.09282561709970902,-0.05482432246208191,0.23030116900328954,0.9686384292353342,0.4645291495346556,right,-0.010190248489379883,-0.02496477560758075,-1.805006810222566,-9.635995327174664,0.009184806844404387,-0.05178540199995041,-0.0021567195653915405,0.24479537451425565,-0.004117662087082863
1746229586229001700,8.567001708984375,-0.18660898043855595,-0.012388370931148529,-0.0935868990178703,-0.014772877097129822,0.22973272315047485,0.9687015453172815,0.4633211037629857,right,-0.006123960018157959,-0.02549528601488689,-1.818815263083577,-9.633265025427937,0.009036540890894073,0.01695844531059265,-0.00048536062240600586,0.2499962493592873,0.002596670761704445
1746229586269002000,8.607001953125,-0.18593846165136893,0.050267577171325684,-0.09298777062175473,0.020036309957504272,0.23012665045637698,0.9686546447376908,0.46434210264193365,right,-0.00410306453704834,-0.023128669625449724,-1.8124599027074872,-9.635036711275577,0.010153939206631282,0.08146323263645172,-0.0057496726512908936,0.22679452973101286,-0.0014297068119049072
1746229586309002000,8.647001953125,-0.18558456313311789,0.023101219907402992,-0.09254597411470887,-0.0002064146101474762,0.23088804161902662,0.9685030239669277,0.46611714152726197,right,0.004461169242858887,-0.02084541904799901,-1.809140695156902,-9.636161915913224,0.011301775776011595,0.060954879969358444,0.0005422234535217285,0.20440889399228615,-0.0019538886845111847
1746229586349002000,8.687001953125,-0.18570091487260765,0.04030103608965874,-0.09235051927844515,-0.009497310034930706,0.2317338570407416,0.9683059900713986,0.4680554225340283,right,0.009080708026885986,-0.01875156809800273,-1.8103369192041456,-9.636350716483593,0.012419119112131451,0.05878779664635658,-0.0009614229202270508,0.1838792613837868,-0.002099446952342987
1746229586389001700,8.727001708984375,-0.1859104871806279,0.012790607288479805,-0.0922779902922187,-0.007502802647650242,0.23223390977978994,0.9681828109496424,0.46922271619606243,right,0.011770784854888916,-0.01730588970313429,-1.812403642475605,-9.636222121667862,0.013197471992778584,0.027249328792095184,0.0010833293199539185,0.16970431329794228,-0.006728176958858967
1746229586429001700,8.767001708984376,-0.18597108610502883,-0.027860647067427635,-0.09224249977813799,0.014853320084512234,0.2321567121237462,0.9682008491013098,0.4691159094783501,right,0.010212838649749756,-0.01673759052729601,-1.8130051155000924,-9.63620575505495,0.013474798083767803,0.0018790420144796371,0.0006460100412368774,0.1641320113246329,-0.0011241268366575241
1746229586469001700,8.807001708984375,-0.18589064013604029,-0.03981664031744003,-0.09224950431342274,-0.015650708228349686,0.23171439782710146,0.9683091867857716,0.4681697925281769,right,0.001820385456085205,-0.017081588286476292,-1.8122193719498811,-9.636295186904071,0.013255228502889198,-0.03641520440578461,-0.0008516162633895874,0.16750499488906934,0.0014387555420398712
1746229586509002000,8.847001953125,-0.1870337728402374,-0.017205791547894478,-0.0929512108487351,-0.0026665544137358665,0.2308580053934504,0.9684536806010481,0.46630805578069984,right,-0.003022909164428711,-0.018266830996997257,-1.8231956701248884,-9.634015551534295,0.012727117270194052,-0.017124181613326073,-0.006111025810241699,0.1791264225671999,0.005780154839158058
1746229586549002000,8.887001953125,-0.18595650775571584,0.016358187422156334,-0.09236653647455054,0.034893542528152466,0.23096049468427382,0.968483279344342,0.4665544729431211,right,-0.008889079093933105,-0.01773083996364545,-1.8128337044559417,-9.636067223367094,0.012873805625405941,0.01645265333354473,-0.006048232316970825,0.17387100452333687,0.00513366237282753
1746229586589002000,8.927001953125,-0.1859552470414272,-0.03992253541946411,-0.09243738374288167,-0.020010922104120255,0.2306140916303226,0.9685632116216593,0.4657861830105862,right,-0.006543576717376709,-0.018311850483819673,-1.812802578665316,-9.635968439167737,0.012556691796853666,-0.04066403955221176,0.0002034902572631836,0.1795678461917676,0.0037924479693174362
1746229586629001700,8.967001708984375,-0.18649204942184486,-0.00536346435546875,-0.092844987990488,0.01720195636153221,0.2300027510281724,0.9686770496581709,0.4644196182599121,right,0.00457996129989624,-0.01953011539534357,-1.8179329272910951,-9.63477192285955,0.011964943037607404,-0.0022144578397274017,0.0020826607942581177,0.19151280673583967,-0.0002957172691822052
1746229586669001700,9.007001708984374,-0.18458853485704352,0.0591486394405365,-0.0917978474220809,0.08294819295406342,0.23077871657186871,0.968587965382421,0.4660893654515131,right,0.008792340755462646,-0.018523421661934665,-1.7996242404013871,-9.638399465706945,0.012310506262936461,0.06334501504898071,0.0038431137800216675,0.18164229611195623,-0.00035457126796245575
1746229586709001700,9.047001708984375,-0.18160161296836516,0.004678942263126373,-0.0902001738879931,0.07497283071279526,0.23172741216948384,0.9685072955718751,0.4681180974596169,right,0.004987061023712158,-0.017317035548148275,-1.7708653250373898,-9.643940148699283,0.012641895316673141,0.012545350939035416,0.00612446665763855,0.1698136006250046,-0.0010504722595214844
1746229586749002000,9.087001953125,-0.17883167012128567,0.01784447580575943,-0.08884889521997529,0.08636289834976196,0.2316884002075896,0.9686451297583939,0.4680098409139349,right,0.0005448460578918457,-0.017225749327111444,-1.7441481446340679,-9.648823829087615,0.012360367383920105,0.018042122945189476,-0.001080527901649475,0.16891851494880392,-0.004515634849667549
1746229586789002000,9.127001953125,-0.17607150824476525,0.04881841689348221,-0.08745287648139896,0.03827499598264694,0.23264189597641174,0.9685442018772602,0.469979050937933,right,-0.007307231426239014,-0.01681727029022412,-1.7175212728627025,-9.653668346509336,0.012324645767549838,-0.0027258992195129395,-0.00014013051986694336,0.1649132796291262,-0.0004426483064889908
1746229586829002000,9.167001953125,-0.17647995255253193,-0.004765741527080536,-0.08782160039469215,-0.023313257843255997,0.2328014653814041,0.9684807237323872,0.4701851311930637,right,-0.00706326961517334,-0.01830649152323363,-1.7214190109536052,-9.652713237741589,0.011659770264968781,-0.04418764263391495,0.0031592249870300293,0.17951529402062297,0.0031886138021945953
1746229586869002000,9.207001953125,-0.1773026269069204,0.011926122009754181,-0.08832941147421003,-0.013127125799655914,0.23282458103206602,0.9684333050804115,0.47016088221107205,right,-0.0062400102615356445,-0.019252086044409505,-1.729328761164844,-9.651122753679752,0.011296399830489943,-0.011025309562683105,-0.0012971311807632446,0.18878677930543197,0.0017319340258836746
1746229586909001700,9.247001708984374,-0.17904271717968764,-0.0035951361060142517,-0.08929317976311454,-0.07788635045289993,0.2329136763775328,0.9683269834610345,0.4702732200588285,right,-0.001548171043395996,-0.020306431628276344,-1.7460834966108203,-9.647897361892461,0.010993274905159903,-0.04240534454584122,0.0026630908250808716,0.19912435945179313,-0.000019438564777374268
1746229586949001700,9.287001708984375,-0.18174146189443433,-0.005821661092340946,-0.09078124706970409,-0.04578381031751633,0.2326633040447586,0.9682539468225583,0.46965042120453265,right,0.00283968448638916,-0.02184909126944734,-1.7720567267790435,-9.642836571371555,0.01053214238359701,-0.028700506314635277,0.00109139084815979,0.2142493200051598,-0.004300767555832863
1746229586989001700,9.327001708984374,-0.18182194142589156,0.003195958212018013,-0.0908606385453271,0.015343699604272842,0.23263334254774207,0.9682553564991164,0.46955870829743135,right,0.005900144577026367,-0.02219535242367847,-1.7728192355841397,-9.642620298272371,0.010369629179572636,-0.001764647662639618,0.000883638858795166,0.21764416834153233,-0.005756169557571411
1746229587029002000,9.367001953125,-0.1809185897064853,0.023539556190371513,-0.09041358932362327,0.020001757889986038,0.23269531491510584,0.9682829518608562,0.4696839971628241,right,0.003053128719329834,-0.02211682219219416,-1.7641108823411165,-9.644234747731685,0.010308256534878735,0.005256540607661009,-0.004786238074302673,0.21687422514865173,-0.006760653108358383
1746229587069002000,9.407001953125,-0.17963754156731723,0.03286095708608627,-0.08976062641664474,0.021259412169456482,0.23312839954337836,0.9682394406328044,0.4705862857729341,right,0.000585019588470459,-0.021873392916966092,-1.7517641725957394,-9.64653834849894,0.010317620189606809,0.0011506401933729649,-0.006087198853492737,0.2144875857404433,-0.0037082768976688385
1746229587109002000,9.447001953125,-0.17926275759162028,-0.006274368613958359,-0.08963417162608085,0.012945578433573246,0.2334001627944943,0.9681884224205356,0.4711002187506152,right,-0.00020802021026611328,-0.022371344467168236,-1.7481294693551956,-9.647087799075246,0.010055781287817686,-0.016197390854358673,-0.0013789087533950806,0.21936962216095998,0.003339480608701706
1746229587149001700,9.487001708984375,-0.1786811070314167,0.003864692524075508,-0.08938153869292591,0.012649300508201122,0.23319458393332815,0.9682634112115488,0.4706495034799669,right,-0.0010405182838439941,-0.022602270554516943,-1.742508852994442,-9.648052844715117,0.009855910629040357,-0.006503730081021786,-0.003756880760192871,0.22163365810280664,0.0005516242235898972
1746229587189001700,9.527001708984375,-0.17862467007064367,0.012150012888014317,-0.08941907701161714,-0.022126637399196625,0.2332936401884256,0.968238844593637,0.4708042699405909,right,-0.004430651664733887,-0.023169716334247064,-1.7419417206309735,-9.648025956708192,0.009581396535436005,-0.03243725374341011,-0.0020456314086914062,0.22719695478575302,-0.0009651966392993927
1746229587229001700,9.567001708984375,-0.1803357338152908,-0.011173506267368793,-0.09047877641475373,-0.05793163925409317,0.23295569632779733,0.9682292402153932,0.4699509138985755,right,-0.0034204721450805664,-0.025138566725559232,-1.758363863121718,-9.644572601383924,0.008788814114614218,-0.06152983382344246,-0.00004392862319946289,0.24649914622483773,0.0009965188801288605
1746229587269002000,9.607001953125,-0.18105837118280946,-0.016266822814941406,-0.09095944159392322,0.03213130682706833,0.2325105608348899,0.9682955144292196,0.46894171865294293,right,0.0011789202690124512,-0.026236283535743712,-1.765283140990883,-9.643027125507592,0.008295395157207536,0.0034756846725940704,0.002064839005470276,0.2572605230075307,0.003834223374724388
1746229587309002000,9.647001953125,-0.17801124077858224,0.013801530003547668,-0.08929176586330685,0.08084054291248322,0.23252382024862867,0.968443563261209,0.4690871187274989,right,-0.004014015197753906,-0.024571718773034105,-1.7359648381784558,-9.648769468551874,0.008754087194451345,0.05435211583971977,-0.0026282966136932373,0.24094198702173306,0.0021521709859371185
1746229587349002000,9.687001953125,-0.17510235307945057,-0.02796528860926628,-0.08769074729197479,0.06396018713712692,0.23232265439357383,0.9686337864271236,0.4687887980146825,right,-0.0028194189071655273,-0.022890418907055624,-1.70795849474743,-9.654164021071791,0.009217453815390112,0.03340940177440643,-0.0020312219858169556,0.22445870719458907,-0.0003701820969581604
1746229587389001700,9.727001708984375,-0.17296895391815773,0.0021354444324970245,-0.08648739811063083,0.036620259284973145,0.23220519442236584,0.9687656415747596,0.46865086343565443,right,-0.0012698769569396973,-0.021408712601241688,-1.6874138654991984,-9.658102529564498,0.009681685708839809,0.03184027224779129,-0.00007984042167663574,0.20993169426806269,-0.004437258467078209
1746229587429001700,9.767001708984376,-0.17280654961888828,-0.014588037505745888,-0.08637709125980818,-0.03739780932664871,0.23231531221909166,0.9687478733806691,0.46889878826527487,right,-0.0019488930702209473,-0.021144609257074166,-1.6858547994889317,-9.658431030866502,0.009801522504018851,-0.026678021997213364,-0.0005052536725997925,0.2073423170956783,-0.00303756445646286
1746229587469001700,9.807001708984375,-0.17354097460794532,-0.02954830601811409,-0.08682563545013824,0.008100122213363647,0.2316831265406407,0.9688624822908908,0.4675378686805508,right,0.0012431144714355469,-0.021893811827466053,-1.6929205000914633,-9.657034608072042,0.009464710900016047,-0.01663375273346901,-0.0017815381288528442,0.2146877662213519,-0.0038678105920553207
1746229587509002000,9.847001953125,-0.17358942225849888,-0.000558776780962944,-0.08690528223053746,-0.017903484404087067,0.23154099370566616,0.9688916292963543,0.46720481520816587,right,0.00260770320892334,-0.022369300858102955,-1.6933704358160495,-9.656850483676791,0.009225405046666022,-0.023333916440606117,-0.000987038016319275,0.21934958401992916,-0.0053098611533641815
1746229587549002000,9.887001953125,-0.17434298876591672,-0.005411407444626093,-0.08736833070745802,-0.014124219305813313,0.2313862824018127,0.9688900939396462,0.46682162812686995,right,0.0023193359375,-0.02320795948372025,-1.7006145617254078,-9.655387425386905,0.008889444937811405,-0.023247094824910164,-0.0011058002710342407,0.22757188904536887,-0.00011805817484855652
1746229587589002000,9.927001953125,-0.17465648719102744,-0.013745957985520363,-0.08760985597729469,-0.01686115562915802,0.2312131226411205,0.9689127869897353,0.4664021342456523,right,0.0026906728744506836,-0.02397396296330572,-1.7036106748014688,-9.654678984856606,0.008536077989462163,-0.03460966423153877,-0.0008103847503662109,0.23508171668620778,-0.0016623008996248245
1746229587629001700,9.967001708984375,-0.17474637265310744,0.009952565655112267,-0.08772808928360953,0.014123640954494476,0.23102540723763046,0.9689496595337238,0.46596158328979104,right,0.0029240846633911133,-0.024610010267827758,-1.7044520940616725,-9.654376787039636,0.00821885264741198,0.0003329068422317505,-0.004337400197982788,0.2413173779390752,0.0005205459892749786
1746229587669001700,10.007001708984374,-0.1736763711072058,0.022374644875526428,-0.08719066563928846,0.032362692058086395,0.2314792052441944,0.9688900502146762,0.4669004352636211,right,0.0017682313919067383,-0.02447741025179001,-1.694126514880359,-9.656226798820494,0.00820045880984706,0.000020087871234863997,-0.0030561238527297974,0.24001740125641224,0.003319544717669487
1746229587709001700,10.047001708984375,-0.17279114104819476,0.030938077718019485,-0.08678581378536783,0.0260873194783926,0.23189784424513865,0.9688278516348345,0.46773722035250814,right,0.00039196014404296875,-0.024715858297443515,-1.6855679453715682,-9.657665891712904,0.008018733272903306,0.002102035330608487,-0.0032284557819366455,0.24235506869005038,0.0017718225717544556
1746229587749002000,10.087001953125,-0.1717291669921667,0.05199388042092323,-0.08625923876244083,0.012876433320343494,0.2328187738867972,0.9686541228381919,0.4696330445716277,right,-0.0055654048919677734,-0.024675914031199765,-1.6753123626865445,-9.659459789392352,0.007996729758581438,-0.000306922709569335,-0.001231357455253601,0.24196347555657846,0.006612192839384079
1746229587789002000,10.127001953125,-0.17219063164843906,-0.019438263028860092,-0.08661227578221137,-0.02509259060025215,0.23294560916340154,0.9685959991734203,0.4698047398103058,right,-0.0028684139251708984,-0.025804362995079586,-1.6797218496918678,-9.658410572600364,0.00751107753519837,-0.04246700182557106,0.0033478736877441406,0.2530262464386411,0.009023189544677734
1746229587829002000,10.167001953125,-0.17256045189154126,0.012377988547086716,-0.08687631974283318,0.014384623616933823,0.2327408348236767,0.9686240734748509,0.46932465566446985,right,-0.001116931438446045,-0.026525581269208086,-1.6832618603862821,-9.657606270480155,0.00718383114989661,0.011869806796312332,0.0015851259231567383,0.26009656841736284,0.006236514076590538
1746229587869002000,10.207001953125,-0.17177207768054178,-0.0023206323385238647,-0.08644313497837641,-0.0011115055531263351,0.2331510770592821,0.9685630735494573,0.470200588975054,right,-0.007415294647216797,-0.026107828357096966,-1.675665998429805,-9.659036595544219,0.007332386454517162,0.0016789669170975685,0.002644151449203491,0.2560012253951281,0.005160011351108551
1746229587909001700,10.247001708984374,-0.17337985277934267,-0.06600039452314377,-0.08738980166062912,-0.07010267674922943,0.23220093513805903,0.9687105964759576,0.4681342484815499,right,-0.008509039878845215,-0.027502763579153208,-1.6911301095433533,-9.655969024667144,0.006753663510284666,-0.05990961566567421,0.0009800195693969727,0.2696759506075643,0.0009144730865955353
1746229587949001700,10.287001708984375,-0.1755985182999479,0.005905278027057648,-0.08859404683817437,-0.04859330877661705,0.23146711486393207,0.968779106662942,0.4665431229727772,right,-0.001798093318939209,-0.02858658060075328,-1.7124973072208463,-9.651899583271145,0.006415564416672292,-0.000707678496837616,-0.00038523972034454346,0.2803003848712891,-0.0005949698388576508
1746229587989001700,10.327001708984374,-0.17723941199925938,-0.019821176305413246,-0.0893851469855808,-0.025503939017653465,0.23150588130181207,0.9686957306733235,0.46663670818545694,right,-0.004003643989562988,-0.0285569305825015,-1.7283341971695423,-9.649085110372305,0.0066240227265925685,-0.0014561470597982407,0.004018664360046387,0.2800097496279515,0.006344497203826904
1746229588029002000,10.367001953125,-0.1767241004187097,-0.03859167918562889,-0.08909107400644634,0.047180503606796265,0.23089277531933636,0.9688685316163618,0.4654037024717225,right,0.002380669116973877,-0.02813229260800312,-1.7233824199810623,-9.650090488022565,0.0067152499324558655,0.023617327213287354,0.005542546510696411,0.2758471317894757,0.0057753343135118484
1746229588069002000,10.407001953125,-0.17466652131304178,-0.021511292085051537,-0.0879220725046967,0.06369657069444656,0.2305844270468645,0.9690453357512256,0.46488175457792913,right,0.002238631248474121,-0.026609001491152445,-1.7035940159276126,-9.654018475121259,0.007193192797514494,0.05300576984882355,0.0056879520416259766,0.2609143510736525,0.0008331704884767532
1746229588109002000,10.447001953125,-0.17193060719344674,0.02152245305478573,-0.08637887081209238,0.06743129342794418,0.23082522950771076,0.9691219166514822,0.46551539803379965,right,-0.0015759468078613281,-0.02472610561649459,-1.6772560441002249,-9.659110245302319,0.007818035540593028,0.052298612892627716,0.0032502412796020508,0.24245553338984027,0.002427084371447563
1746229588149001700,10.487001708984375,-0.17067234990904626,0.007803213782608509,-0.08564949254618812,0.011059660464525223,0.23128561037647383,0.9690736634713586,0.46653889512013597,right,-0.00714719295501709,-0.0237167398479257,-1.6651418279364705,-9.661449501904844,0.008206019002031818,0.013287466019392014,-0.0002678334712982178,0.23255994312362743,-0.001282334327697754
1746229588189001700,10.527001708984375,-0.17022573465229315,0.002894320525228977,-0.08538642709899562,0.012107555754482746,0.23114315489432088,0.9691297063552708,0.4662755255925041,right,-0.00861823558807373,-0.02330023756328856,-1.6608429616987703,-9.662286537250877,0.008345037227918815,0.024330902844667435,-0.005813971161842346,0.22847658280013128,-0.002145780250430107
1746229588229001700,10.567001708984375,-0.17034659234528834,0.00762281846255064,-0.08532492578647016,-0.02912183851003647,0.2314748703460865,0.9690511586751441,0.46704532251605035,right,-0.003374040126800537,-0.022282509579259847,-1.662049268748611,-9.662309918126462,0.008885230879659735,0.024695653468370438,-0.003677472472190857,0.2184986662790179,-0.001329014077782631
1746229588269002000,10.607001953125,-0.17170877844246787,0.0004911706782877445,-0.08588392304418692,-0.027366232126951218,0.23154015819029633,0.968980580306093,0.4672653537739968,right,0.0015324950218200684,-0.021411917898739835,-1.6752414894074201,-9.660220836892723,0.009474324260663008,0.03291802853345871,-0.007556498050689697,0.20996311231963335,-0.0040569547563791275
1746229588309002000,10.647001953125,-0.17305888336216976,-0.014988142997026443,-0.0863040744503107,-0.038427602499723434,0.2313953109585112,0.9689659845261713,0.4671518450569323,right,0.014508068561553955,-0.019370402541450674,-1.688352607654035,-9.658352120411395,0.010615194645296306,0.0632769837975502,-0.0031455010175704956,0.18994685432706027,-0.0014536958187818527
1746229588349002000,10.687001953125,-0.17526374559700325,-0.03666713833808899,-0.08710170441366727,-0.04299681633710861,0.2308082869606461,0.9690185429148107,0.46617084014958815,right,0.01549685001373291,-0.016964444344301517,-1.7097184901572764,-9.655028528946637,0.011993557757157696,0.05855996534228325,-0.0012033283710479736,0.16635635457690803,-0.005418437533080578
1746229588389001700,10.727001708984375,-0.17674078358170064,-0.005864528939127922,-0.0875638622019327,-0.019863752648234367,0.2305476174287151,0.9690228609490886,0.4658445318632085,right,0.013056814670562744,-0.014735799428589222,-1.724038399671763,-9.652833649250864,0.013229828987423788,0.05059323459863663,0.00047519803047180176,0.14450357447271234,-0.007859855890274048
1746229588429001700,10.767001708984376,-0.17668629498609115,-0.01255439966917038,-0.08738175186216908,0.045342184603214264,0.23033972136931283,0.9690796967616565,0.46553439794164014,right,0.011275291442871094,-0.013358976336832392,-1.7235457938492298,-9.653114219757914,0.01387728885889514,0.03766636177897453,0.0016414374113082886,0.13100288151977582,-0.005628057289868593
1746229588469001700,10.807001708984375,-0.17311889711833156,0.06430015712976456,-0.08540532618832347,0.14985615015029907,0.23088139418598783,0.9691174175928153,0.4667795327229761,right,0.0038991570472717285,-0.011276725629141532,-1.6891417122051118,-9.659449267998337,0.014528948928482038,0.08515850454568863,-0.001157119870185852,0.11058452726602554,-0.0056466953828930855
1746229588509002000,10.847001953125,-0.1667206122703752,0.11357267200946808,-0.08187598259022538,0.14798402786254883,0.232593042242056,0.9689956696336486,0.47050448360551367,right,-0.004554450511932373,-0.007803197204805141,-1.6273576023347676,-9.670379242813587,0.01562672088624432,0.10727707296609879,-0.001665651798248291,0.07652241376026067,0.0034639518707990646
1746229588549002000,10.887001953125,-0.1606592763811822,0.02752877026796341,-0.07854803171788163,0.2114996314048767,0.23493467063530288,0.9686904334139377,0.47548263741673324,right,-0.0007438063621520996,-0.004788415480960476,-1.5687423317588864,-9.680249479442834,0.016578523763300886,0.06632129848003387,-0.00010316073894500732,0.04695810029751155,0.019215071573853493
1746229588589002000,10.927001953125,-0.153713770429026,-0.09837781637907028,-0.07497981049208238,0.11688263714313507,0.23369380008660232,0.9692728190984247,0.47295254245747925,right,-0.001279592514038086,-0.00287261155729021,-1.5014818363040685,-9.69098247038126,0.016595960108898144,0.00031476467847824097,0.0043191611766815186,0.02817062148149125,0.0007093667518347502
1746229588629001700,10.967001708984375,-0.1482744504912896,-0.02008199691772461,-0.07206855521189884,0.21721534430980682,0.23345946607715573,0.9695413541914412,0.4725543336077103,right,0.010668456554412842,-0.0004897121133028818,-1.4487534318096935,-9.699044780805707,0.01710110693285955,0.11476897448301315,-0.0028771311044692993,0.004802397025513346,0.008563890121877193
1746229588669001700,11.007001708984374,-0.1430026504366175,0.27387145161628723,-0.06904057947128915,0.01601359248161316,0.23626668673875925,0.9690572508953452,0.47851137258329074,right,-0.009719610214233398,0.0030861935939769155,-1.397595491502434,-9.706502695596217,0.018425209958583186,0.08141317218542099,-0.007166355848312378,-0.030265212290699128,-0.008275703527033329
1746229588709001700,11.047001708984375,-0.1425368133404084,0.2232385128736496,-0.06859334492481786,-0.0006856359541416168,0.24091774334259125,0.9679275161138794,0.4881856964470975,right,-0.011079490184783936,0.00417960095701181,-1.393068223336339,-9.70711410549283,0.019231965154146685,0.02149803936481476,-0.003837093710899353,-0.04098780741598457,-0.004930850584059954
1746229588749002000,11.087001953125,-0.14394866031154496,0.16276639699935913,-0.06937847434949118,-0.06020113453269005,0.24383758974964292,0.9671451970285989,0.49415451998374604,right,-0.008752882480621338,0.002867815510514854,-1.4067783303894101,-9.705182260647415,0.018974385451149545,-0.058965735137462616,0.007517710328102112,-0.02812366565078264,-0.008805319666862488
1746229588789002000,11.127001953125,-0.14810832404568627,0.12025263905525208,-0.0717959590683776,-0.09377118945121765,0.24633496576517633,0.9663565168755158,0.49912975356869993,right,0.00005322694778442383,-0.0008247760854773339,-1.4471417588293551,-9.699283265736698,0.01787483896631924,-0.07153534889221191,0.005252569913864136,0.008088250866590534,0.0012243733508512378
1746229588829002000,11.167001953125,-0.14819022447053176,0.07775092124938965,-0.07197361393844293,0.1043485701084137,0.24821005247972497,0.9658729304823253,0.5029103033942894,right,0.01124262809753418,-0.0022115922643932634,-1.4479330553375183,-9.699144734048843,0.017350915149557777,0.03702734410762787,0.0078602135181427,0.021688255458557976,0.012553549371659756
1746229588869002000,11.207001953125,-0.1443736580577509,0.13012608885765076,-0.06995936980445722,0.10355744510889053,0.2507059859740975,0.9653725615563441,0.5080849673566074,right,0.008578717708587646,-0.0011975974971565526,-1.4109076852791012,-9.7046164434582,0.01754807921223765,0.06383409351110458,-0.003681361675262451,0.011744378204364329,0.005541540216654539
1746229588909001700,11.247001708984374,-0.14069276576642376,0.09922173619270325,-0.06796985718556718,0.07734702527523041,0.2531428497669197,0.9648721065677093,0.5131624893803597,right,0.0026931166648864746,0.00013831557875697395,-1.3751774695977568,-9.709751468259096,0.017904177162728165,0.056312523782253265,0.0015031993389129639,-0.0013564516863822063,-0.003396792570129037
1746229588949001700,11.287001708984375,-0.1370186944131544,0.06831738352775574,-0.0659796431621067,0.05113660916686058,0.255577155609022,0.9643617086246719,0.518235146059087,right,-0.0032085776329040527,0.001492898037329509,-1.339492408232391,-9.714727503105998,0.018260096923563948,0.04879095032811165,0.006692379713058472,-0.014640363365708616,-0.012316450476646423
1746229588989001700,11.327001708984374,-0.13441075978669617,-0.015485033392906189,-0.06465877145889205,0.076889269053936,0.2560421196425806,0.9643296094575801,0.5191793856846311,right,-0.004216611385345459,0.0019211563770811185,-1.3141516307488084,-9.718180858430266,0.018163858419034406,-0.013595018535852432,-0.005497798323631287,-0.018840137160086305,-0.010579370893537998
1746229589029002000,11.367001953125,-0.1326915581771646,0.31124913692474365,-0.063817272636064,0.023777451366186142,0.25821954266911823,0.9638083626681507,0.5236499111843692,right,-0.00006645917892456055,0.0017064397283102657,-1.2974426341407,-9.72042951413989,0.017982917637861036,0.04095398262143135,-0.006298258900642395,-0.016734489525679963,-0.021702036261558533
1746229589069002000,11.407001953125,-0.13181616234929053,0.23378399014472961,-0.06345179104645991,0.039661869406700134,0.26415255962202233,0.9622295531343054,0.5358715957542528,right,0.0034061074256896973,0.00044403124618942546,-1.2889347719058393,-9.721574592521787,0.017649601987388564,-0.019043415784835815,-0.004949137568473816,-0.0043544985652086326,0.016275443136692047
1746229589109002000,11.447001953125,-0.13202094128251457,0.0262337327003479,-0.0638404139283418,-0.05302996188402176,0.2674452575435883,0.9613120199417803,0.5425500244016409,right,-0.01022183895111084,-0.0021704022841645913,-1.290922584722191,-9.72128876131773,0.01663207712272257,-0.112575963139534,0.00879659503698349,0.021284321150032336,0.011768441647291183
1746229589149001700,11.487001708984375,-0.13402156401673926,-0.15622857213020325,-0.06546838529195965,-0.038001857697963715,0.26563239168951486,0.9617399550065477,0.5384970299317494,right,-0.0010463595390319824,-0.006937587364213866,-1.3103401096366345,-9.718475457462668,0.014475594817582834,-0.12265926599502563,0.0072526633739471436,0.06803390924641863,-0.0032361475750803947
1746229589189001700,11.527001708984375,-0.13599083148563143,0.00901748239994049,-0.06672418175019464,-0.04944469407200813,0.26332632268561573,0.962300826001897,0.5335933587833889,right,-0.0077454447746276855,-0.009014954491465582,-1.3294538292989133,-9.715715345099568,0.013574567192370579,-0.049271225929260254,-0.009977355599403381,0.08840527342013083,-0.00770294014364481
1746229589229001700,11.567001708984375,-0.13975266148707421,0.009374395944178104,-0.06894144359171868,-0.1427426040172577,0.2640178138031014,0.9619683636628921,0.5348680827200328,right,-0.0055869221687316895,-0.012178128980553033,-1.3659474305681885,-9.71031962353587,0.012591739699531009,-0.095522940158844,0.004268646240234375,0.11942366728186607,-0.0007867077365517616
1746229589269002000,11.607001953125,-0.1411930544448956,-0.22256796061992645,-0.0699347814166787,0.07048192620277405,0.26197401962053535,0.9624674730967634,0.5304948437477415,right,0.009631037712097168,-0.014267980679723633,-1.3798945612475275,-9.708073890435696,0.011623610999924119,-0.006620392203330994,0.004621133208274841,0.13991631974768823,0.025083687156438828
1746229589309002000,11.647001953125,-0.14024614592168866,-0.018882781267166138,-0.06940971344139374,-0.04487039893865585,0.2589899524639074,0.9633121072985485,0.5243407832047255,right,-0.001387178897857666,-0.01345864781506335,-1.3707166907966135,-9.709484926277398,0.011675652722559538,0.010810686275362968,-0.012294024229049683,0.1319802386519499,-0.012192223221063614
1746229589349002000,11.687001953125,-0.14351027439595562,0.12905649840831757,-0.07131291274123477,-0.2174052596092224,0.25989296318588984,0.9629390163748446,0.5260718232677533,right,-0.004395484924316406,-0.016098276475775154,-1.4023475083351133,-9.704580787622929,0.010888471073231815,-0.14006391167640686,-0.0021345913410186768,0.1578633245849982,-0.003019914962351322
1746229589389001700,11.727001708984375,-0.15438964102532338,0.23155292868614197,-0.0776514053839491,-0.16772189736366272,0.26347599891691026,0.9614991886788627,0.5329997300029226,right,0.004614889621734619,-0.0248421678377528,-1.5075722621336578,-9.687015904837846,0.008361395739720714,-0.14026522636413574,-0.013755664229393005,0.24359336004704235,0.015951139852404594
1746229589429001700,11.767001708984376,-0.15292552332030895,0.14374777674674988,-0.07709176211865183,0.014673352241516113,0.2659234845380199,0.9608752908160312,0.5379882871341998,right,-0.018459975719451904,-0.02609103423955083,-1.493340323163569,-9.688904495063424,0.0077600839757940715,0.00729776918888092,-0.0041978806257247925,0.2558365911516361,-0.02493858151137829
1746229589469001700,11.807001708984375,-0.15580473749923898,0.33960437774658203,-0.07863441229921937,0.005620850250124931,0.27191988625194996,0.9590694052997231,0.5503892095513888,right,0.01821136474609375,-0.02765799585680623,-1.5211663415916263,-9.6841564237535,0.007877454463943782,0.1062411218881607,0.01051284372806549,0.2711976802821271,0.013426346704363823
1746229589509002000,11.847001953125,-0.1552861695624255,0.6596155166625977,-0.07807093430584575,-0.17080050706863403,0.28059232616842883,0.956601047610229,0.5686207202478885,right,-0.0032303929328918457,-0.02593254745358045,-1.516214418272674,-9.685392103028297,0.009346931624667664,0.1323746144771576,0.008615940809249878,0.254282895436231,-0.017289606854319572
1746229589549002000,11.887001953125,-0.15933242600480832,0.2750994861125946,-0.07996427530028362,-0.07322437316179276,0.2893895496973716,0.9538080326311993,0.5870545033664953,right,0.004020750522613525,-0.02630107340778657,-1.5553765080988406,-9.67908452731669,0.010475698109472877,0.013558357954025269,0.012866199016571045,0.25789566083960236,0.00011236034333705902
1746229589589002000,11.927001953125,-0.15846615520363524,0.0434790700674057,-0.07933151992905542,0.06393792480230331,0.2924427935904796,0.9529207559593141,0.5935466092502855,right,0.008265912532806396,-0.02502335374266888,-1.5470419566042721,-9.680745738527179,0.011217680026941559,0.056565504521131516,-0.00015592575073242188,0.24536964900456368,-0.012155761942267418
1746229589629001700,11.967001708984375,-0.158185476739047,-0.4505689740180969,-0.07926374156042482,0.08526637405157089,0.28984465634589274,0.9537242197939608,0.5880739572458062,right,0.002237379550933838,-0.025271105674748072,-1.5443150158584118,-9.681119248014689,0.010841670729308375,-0.10859860479831696,0.0075065940618515015,0.24779848358668385,0.03221813589334488
1746229589669001700,12.007001708984374,-0.15085267480508263,-0.4880123436450958,-0.07555599967585967,0.3176960051059723,0.27917613629335575,0.9572103111153693,0.5658301209071576,right,0.014860689640045166,-0.023003779011814073,-1.4733651643663643,-9.692713824218512,0.010021368173403067,0.05941896140575409,-0.011990010738372803,0.22557008423628283,0.012525895610451698
1746229589709001700,12.047001708984375,-0.1390871226587261,0.03650924563407898,-0.06913216536587757,0.043620288372039795,0.2748566724453742,0.9589338693267871,0.557106127166015,right,-0.028722524642944336,-0.016956037096841767,-1.359389825618267,-9.710550509682298,0.010974505085621583,0.02775319665670395,-0.011298835277557373,0.16627391872415317,-0.024008769541978836
1746229589749002000,12.087001953125,-0.14204490698728486,0.002773366868495941,-0.07062761739976016,0.09954892098903656,0.2766546849435987,0.9583053729282011,0.5608428255806188,right,0.022127985954284668,-0.01767304216833693,-1.388088389097154,-9.70636708651781,0.011169091237117474,0.11854293197393417,0.018952228128910065,0.17330429228497668,0.021457457914948463
1746229589789002000,12.127001953125,-0.13247682213460252,0.1962297558784485,-0.06471554642656788,0.2097764015197754,0.2775417314885637,0.9584220578403304,0.5632012864580482,right,-0.005311369895935059,-0.008173521657605624,-1.2953139515489338,-9.720397365435957,0.014476450505986718,0.263039767742157,-0.014648541808128357,0.08015394322960637,-0.012548604980111122
1746229589829002000,12.167001953125,-0.1273285155112574,0.020929738879203796,-0.06150233904012955,0.07996881008148193,0.2804565547066435,0.9577546522902038,0.5695249368515467,right,-0.002112865447998047,-0.0031622516511850265,-1.245288814663887,-9.727213475191592,0.01635868944692926,0.060439497232437134,0.01277865469455719,0.031011005139723418,0.008765351958572865
1746229589869002000,12.207001953125,-0.12465626154325554,-0.06876904517412186,-0.060104690908167856,0.0853128433227539,0.28050367483927313,0.9578291340366317,0.5696300154960994,right,-0.0029357075691223145,-0.002327087340243401,-1.2192935918595642,-9.730528883349894,0.016387102351660857,-0.002385050058364868,0.005334921181201935,0.022820871651102786,0.0026950587052851915
1746229589909001700,12.247001708984374,-0.1220512554604213,-0.19595280289649963,-0.05902782658302339,-0.024298623204231262,0.277379035305317,0.9588215879461438,0.5630134618038853,right,-0.004340708255767822,-0.003178998355061868,-1.1939385666549205,-9.733649061197042,0.015418494200947432,-0.08668989688158035,0.00472935289144516,0.031175235241127666,-0.009427454322576523
1746229589949001700,12.287001708984375,-0.1249899488282855,0.10597676038742065,-0.06097860505523412,-0.07806625217199326,0.2763285010418521,0.9590255312773885,0.560635653467121,right,-0.004744172096252441,-0.006970955698337155,-1.2225140882760286,-9.729911043712496,0.013935684165271748,-0.08955460786819458,-0.017517507076263428,0.06836113647336606,-0.014692340046167374
1746229589989001700,12.327001708984374,-0.1277990800740432,0.08490662276744843,-0.06273833964921993,-0.11697947978973389,0.27799605418101997,0.9584441492355004,0.563958300168078,right,-0.003103911876678467,-0.010118928559060287,-1.2498081917844712,-9.726177117881178,0.01291847098268924,-0.07013596594333649,-0.005535334348678589,0.09923106634169816,-0.00920757744461298
1746229590029002000,12.367001953125,-0.12724838068871433,0.12167374789714813,-0.062293854885151115,0.22942206263542175,0.2795102919126298,0.9580247399322593,0.5671827450824578,right,0.016947686672210693,-0.008973248894009085,-1.2444653694517909,-9.726970314085483,0.013491519359799859,0.18114157021045685,-0.007800683379173279,0.08799629989359527,0.010007288306951523
1746229590069002000,12.407001953125,-0.11535618268816519,0.20553919672966003,-0.055161869474388,0.2928718030452728,0.2839152375715473,0.9571148651688034,0.5767785155774402,right,-0.00920867919921875,0.000730069061461752,-1.1287502012990414,-9.741471133124827,0.016744416326862323,0.2574194073677063,-0.015869617462158203,-0.007159571164753287,-0.011399012058973312
1746229590109002000,12.447001953125,-0.10661847141353178,-0.10891568660736084,-0.05020227630389328,0.09785012900829315,0.28440407145831226,0.9572177278335391,0.577943528012657,right,-0.02072209119796753,0.006129998660818701,-1.0435706758592278,-9.750780813261866,0.018117834018263425,0.0093003511428833,-0.013753913342952728,-0.06011441852587741,-0.004929910413920879
1746229590149001700,12.487001708984375,-0.11076738108881856,-0.08544008433818817,-0.05282454327109553,-0.18211431801319122,0.28237056756019546,0.9577065224514287,0.5735391543807579,right,0.0025492310523986816,0.0019137637519019137,-1.084035080455616,-9.746532508167624,0.016573947429942566,-0.21203292906284332,-0.0014986619353294373,-0.018767640462744747,0.003568349638953805
1746229590189001700,12.527001708984375,-0.11636435513259084,-0.09969928860664368,-0.05650835636057215,-0.016548514366149902,0.28028162366577075,0.9581517287750251,0.5688773587924277,right,0.01602715253829956,-0.0049663952378286615,-1.138556944238022,-9.740210319408774,0.013938362849501626,-0.10611503571271896,-0.01061943918466568,0.04870346439380664,0.01644982397556305
1746229590229001700,12.567001708984375,-0.11575742905460094,-0.019221097230911255,-0.05647892171720029,-0.0318199060857296,0.27880302216394603,0.9585987573781365,0.5656848151894042,right,-0.0023713111877441406,-0.006685086310934805,-1.1326338377993552,-9.740802440083026,0.012939695267607248,-0.033975377678871155,-0.008793316781520844,0.06555777862358372,0.0031535355374217033
1746229590269002000,12.607001953125,-0.11284042030900578,0.14273948967456818,-0.05465389369206893,0.2128037065267563,0.27981319919764763,0.958395156410111,0.5679183719528573,right,0.009986937046051025,-0.0037318689838113043,-1.1042320653099567,-9.744214294353126,0.014009827357713374,0.19533276557922363,-0.011427558958530426,0.03659701141139958,-0.000019670231267809868
1746229590309002000,12.647001953125,-0.10633899869821056,0.042107149958610535,-0.05060629514688271,0.03862947225570679,0.2820538450414914,0.957924589220844,0.5728417984523122,right,-0.006918132305145264,0.002644751188923646,-1.0408614899657667,-9.75122154276669,0.01628110851087489,0.08493233472108841,0.0012820884585380554,-0.025936160977289544,-0.010128553956747055
1746229590349002000,12.687001953125,-0.10536049034889658,-0.03934554010629654,-0.04993439431750034,0.061175934970378876,0.2817963108932787,0.9580260420673904,0.5723657377480666,right,0.009173870086669922,0.004113395747714087,-1.0313142016805708,-9.752186588406563,0.016834636503746444,0.043281931430101395,-0.007740102708339691,-0.040338563426746986,-0.0013279253616929054
1746229590389001700,12.727001708984375,-0.10410313272026252,0.033896856009960175,-0.04926782001457108,-0.060884639620780945,0.28193857483433116,0.9580179533212304,0.5726638283286652,right,-0.010516762733459473,0.004551387935209667,-1.019049471130222,-9.75345733899474,0.01687461598687942,-0.06336282193660736,-0.00895605981349945,-0.044633758136327376,-0.009621727280318737
1746229590429001700,12.767001708984376,-0.11101462429993128,-0.04941666126251221,-0.05349348453362669,-0.1734510213136673,0.28122189945141635,0.9580372582820225,0.570935931293281,right,0.0024173855781555176,-0.001848833591154849,-1.0864449911415577,-9.746265381664037,0.014737551110695597,-0.19247227907180786,0.002071268856525421,0.01813081528037437,0.004220622591674328
1746229590469001700,12.807001708984375,-0.11270533882953772,-0.04673623666167259,-0.054824434182887335,0.03536331653594971,0.28039948890097316,0.9582256047320598,0.5690431824194799,right,0.0051288604736328125,-0.005467827139849088,-1.102906954186037,-9.744285606023668,0.013189841008738634,-0.05392850935459137,0.005448542535305023,0.05362076392394956,0.0014132694341242313
1746229590509002000,12.847001953125,-0.10843784952474164,-0.221150204539299,-0.052751800603263406,0.2212563008069992,0.2781820562535698,0.958995014818104,0.5643817182088602,right,0.018635332584381104,-0.005056867533401415,-1.0613156644515693,-9.748924956262112,0.012665531295415453,0.09122754633426666,0.012448422610759735,0.04959068185738288,0.01079748198390007
1746229590549002000,12.887001953125,-0.09864758622103258,-0.007839411497116089,-0.04715264672921971,0.1333751082420349,0.2761295350164158,0.9598545658866018,0.560311152878623,right,-0.011594951152801514,0.0016576874354850462,-0.9658328447274863,-9.758959443542361,0.014428312628260241,0.10475677996873856,-0.008959092199802399,-0.016256394002400337,-0.0017604671884328127
1746229590589002000,12.927001953125,-0.09935758924895763,-0.03478216379880905,-0.047616956949457626,-0.08185705542564392,0.2754516012172272,0.9600313318839638,0.5588684380544475,right,-0.011007964611053467,0.000836658528291178,-0.9727624978601932,-9.758280813628435,0.01409797347509533,-0.09801023453474045,-0.008334733545780182,-0.008204856704539269,0.006011549849063158
1746229590629001700,12.967001708984375,-0.10065031984841014,-0.04840639978647232,-0.04862934412353015,0.03601307421922684,0.2745477527994115,0.9602561886612768,0.556866395981135,right,0.004931271076202393,-0.001914629645862385,-0.9853750189349054,-9.75700071069002,0.012906725369258193,-0.05140628293156624,0.005601778626441956,0.018776053239707834,0.004606364760547876
1746229590669001700,13.007001708984374,-0.09855229727498031,-0.1119179055094719,-0.04783084027907189,0.07472832500934601,0.27252263096193713,0.9608862609847955,0.5525568065024654,right,-0.0016848444938659668,-0.0032492268882234787,-0.9648991440739482,-9.759013219556213,0.01187484545444681,-0.03336683660745621,-0.006834395229816437,0.03186393674120772,0.0012848549522459507
1746229590709001700,13.047001708984375,-0.09442717380195616,0.060775063931941986,-0.045748874413949855,0.12167555838823318,0.2721516910535198,0.9610953390857326,0.5517710483604289,right,0.0057593584060668945,-0.002481526675962422,-0.9246359611380844,-9.762931854304671,0.011663641488122468,0.06380266696214676,-0.008906200528144836,0.024335402116610203,-0.0033261002972722054
1746229590749002000,13.087001953125,-0.09093805159631368,0.07470320910215378,-0.04381203000520044,0.08117498457431793,0.27370436022273803,0.9607391351415153,0.5550410780431939,right,0.002481222152709961,-0.0007148346256385884,-0.8905688563633709,-9.766126266431808,0.012109558083671864,0.03776154667139053,-0.007556833326816559,0.007010093391197733,0.006712344940751791
