time,seconds_elapsed,roll,rotationRateZ,quaternionY,rotationRateY,quaternionZ,quaternionW,yaw,devicelocation,accelerationZ,pitch,gravityX,gravityZ,quaternionX,rotationRateX,accelerationX,gravityY,accelerationY
1745972209678270200,0.470270263671875,-0.730548621713983,-0.016639281064271927,-0.3477465505761133,0.0434238575398922,-4.7260060024415434e-17,0.9273319130461676,-0.09968362965215695,right,-0.20292514562606812,-0.25940563626725244,-6.324828459703922,-7.059699900811911,-0.13830329559105406,-0.0027274806052446365,0.5722870826721191,2.515465986868739,0.11783289909362793
1745972209718270000,0.51027001953125,-0.32479514385274977,-0.006883658468723297,-0.1680403266340848,0.014118436723947525,0.07948040217685819,0.9674343243253655,0.10309248133740768,right,-0.03775894641876221,-0.3673319323108687,-2.9206770190656184,-8.673911459717154,-0.17180226166853405,0.00474843243137002,0.23131725192070007,3.5218297255575655,0.011285066604614258
1745972209758270200,0.550270263671875,-0.13594475351410587,0.021151317283511162,-0.0859135394863023,0.020073657855391502,0.11386171762771649,0.972877651989938,0.20660138574967107,right,-0.00652843713760376,-0.3832134044931761,-1.2326609498895704,-9.011437195175885,-0.18210830378487292,-0.005448681768029928,0.06177227199077606,3.6667335787937043,0.0008447170257568359
1745972209798270200,0.590270263671875,-0.07904975257516893,0.03926048427820206,-0.06104719185386363,0.008413737639784813,0.12413017526718688,0.9732546546494719,0.23844715359882548,right,-0.00371551513671875,-0.3813464614211822,-0.7187764847449958,-9.07375833453238,-0.18341291508559512,-0.011770671233534813,0.0112687349319458,3.6497467881575223,0.006988525390625
1745972209838270200,0.630270263671875,-0.07408417624280024,0.028829138725996017,-0.05895048734439131,-0.009545654058456421,0.12531956965398094,0.9731763007408487,0.24182537105063606,right,-0.0012835264205932617,-0.3815193080218873,-0.6736646927341818,-9.076586251434684,-0.18370549545928902,-0.001097133383154869,0.008450262248516083,3.651320028823614,0.008829653263092041
1745972209878270200,0.670270263671875,-0.07158442057587369,0.016953440383076668,-0.0580215704107265,-0.015321789309382439,0.12620534617074017,0.9729723706896487,0.24410103210319178,right,0.0006125569343566895,-0.3829089814580012,-0.6506098342306912,-9.073172059077024,-0.18447342929196808,-0.002169256564229727,0.005837775766849518,3.663964698602259,0.004930675029754639
1745972209917824500,0.709824462890625,-0.07047688825281108,0.010712970048189163,-0.05776747380193187,-0.03368901461362839,0.12690321685214292,0.9726711263574948,0.245718760003613,right,-0.0011441358365118504,-0.3852949075817115,-0.6399431865267455,-9.06514131283462,-0.18565919867464803,-0.02238812856376171,0.0015461653238162398,3.6856577672332524,0.004157061222940683
1745972209957824500,0.749824462890625,-0.0708800089872748,0.003252204041928053,-0.058018815844692165,-0.022557707503437996,0.1269652327436797,0.9725686303379205,0.24575903851166908,right,-0.0002071857452392578,-0.3862035317419329,-0.6433600092329085,-9.061538319906592,-0.1860750694650458,-0.02606344036757946,-0.00014701485633850098,3.693913554403186,0.0038191676139831543
1745972209997824500,0.789824462890625,-0.0712832595999068,-0.00420856149867177,-0.058270140548088246,-0.011426400393247604,0.1270271453787696,0.9724658547544958,0.2457987721437088,right,0.0007288455963134766,-0.38711212791394867,-0.6467747130472212,-9.057926559150218,-0.18649088470793534,-0.02973875217139721,-0.0018404275178909302,3.702165834441781,0.0034815967082977295
1745972210037824500,0.829824462890625,-0.07168660894977359,-0.011669326573610306,-0.05852144791212042,-0.00029509421437978745,0.12708905489479919,0.9723628642861049,0.24583819505523632,right,0.00166398286819458,-0.388020734706719,-0.6501870057087391,-9.054306030565499,-0.18690664440331348,-0.03341406211256981,-0.0035341009497642517,3.7104154841318726,0.003144383430480957
1745972210077824300,0.86982421875,-0.07176259107681997,-0.014283659867942333,-0.05858226103989329,0.011013753712177277,0.12689313102498143,0.9722769750136427,0.24540740536375352,right,0.000600278377532959,-0.3891543096019481,-0.6505729362864047,-9.050055387383699,-0.18746649816254463,-0.03747977688908577,-0.0021081939339637756,3.720703361651301,0.0036483407020568848
1745972210117824500,0.909824462890625,-0.07173438797324777,-0.008791036903858185,-0.058602100547688774,0.028023362159729004,0.12649527652278678,0.9721355888162246,0.24457142329520962,right,0.000786125659942627,-0.3911406187463905,-0.6497867543447763,-9.042684566354751,-0.1884600062894166,-0.043780505657196045,-0.0012673214077949524,3.7387186185523866,0.0011054277420043945
1745972210157824500,0.949824462890625,-0.07112871853482594,-0.02578337863087654,-0.05832336083104484,0.02023501880466938,0.1260281926267703,0.972037118873343,0.243708442641803,right,-0.0012413859367370605,-0.3928683168865759,-0.6438496924459934,-9.036620151749252,-0.18936468430867928,-0.024734802544116974,-0.002335086464881897,3.754376206411421,0.006198674440383911
1745972210197824500,0.989824462890625,-0.07129933186246622,-0.03132928907871246,-0.058310027126183446,0.008359714411199093,0.1255288707290395,0.9720913866638055,0.24264700127565914,right,-0.0008515715599060059,-0.39294438536496273,-0.6453711298596113,-9.036225014951825,-0.1894219377021576,0.005225701257586479,-0.0006268620491027832,3.7550653577193613,0.0013940632343292236
1745972210237824500,1.029824462890625,-0.07154552751162006,-0.011551901698112488,-0.058268606276188156,0.004947928711771965,0.1249071709442954,0.972231088226885,0.24132756908761385,right,-0.0018872618675231934,-0.39229392605352137,-0.6477702268905937,-9.038499974146484,-0.1891282622423312,0.02343534491956234,0.0005882680416107178,3.7491719157665964,-0.0027309954166412354
1745972210277824500,1.069824462890625,-0.07162083686980573,0.005865506827831268,-0.05828533281004816,-0.007449911907315254,0.12489954523678633,0.9722615702077851,0.24130094922922174,right,-0.0011383891105651855,-0.3919814806042602,-0.6485347084570676,-9.039619333565234,-0.18897215783413568,0.013644375838339329,0.001110754907131195,3.746340491732955,-0.003910273313522339
1745972210317824300,1.10982421875,-0.07173268717290644,0.025288447737693787,-0.0583996718145671,-0.020551344379782677,0.12537607044842317,0.9722530331889954,0.2422660231490989,right,0.000006139278411865234,-0.39142153078189235,-0.6496960803866386,-9.041637687650322,-0.18866435073396215,0.014938795939087868,0.00034099072217941284,3.741265088164806,-0.0010197758674621582
1745972210357824500,1.149824462890625,-0.0718851202350804,0.03658616915345192,-0.05861583222276115,-0.029275625944137573,0.12633794018369432,0.9722000039243942,0.24422406043107217,right,0.00023871660232543945,-0.39066395126020204,-0.6512776504896581,-9.04436331322193,-0.188228562706603,0.013719851151108742,-0.0013124868273735046,3.734396663700044,-0.0007079839706420898
1745972210397824500,1.189824462890625,-0.07215594023340573,0.032026346772909164,-0.05892636096144602,-0.01972101628780365,0.12744474760674923,0.9721042821411788,0.24645508118100393,right,-0.003378748893737793,-0.39011750757083974,-0.6538740967236459,-9.046220339265465,-0.18787973297996222,-0.007670879364013672,-0.004473492503166199,3.729441087119281,0.0025922060012817383
1745972210437824500,1.229824462890625,-0.07269222596299167,0.017158541828393936,-0.05927821258465999,-0.020447945222258568,0.1278614891557979,0.9720046227539485,0.2472045429337977,right,0.002400338649749756,-0.3904827843269027,-0.6586263327520341,-9.044508859172463,-0.18800121561654962,-0.012166641652584076,-0.0044055357575416565,3.7327538649290797,0.00727042555809021
1745972210477824500,1.269824462890625,-0.07307468420650137,0.0016288906335830688,-0.059521608208765835,0.011831333860754967,0.12805839731773394,0.9719259603950929,0.24753010866060415,right,0.0077051520347595215,-0.3909552612579186,-0.6619566462185233,-9.042496350306273,-0.1881970966494981,-0.008447516709566116,-0.00320608913898468,3.737038118119538,0.007087677717208862
1745972210517824500,1.309824462890625,-0.07219245698706472,-0.02455882541835308,-0.05907469927812625,0.04108189046382904,0.12767691857248858,0.9719218091703542,0.24690778962637755,right,0.0008419156074523926,-0.3916655928387915,-0.653787149092555,-9.040427142816782,-0.18861777478400735,0.0008715363219380379,-0.0014658048748970032,3.74347750351727,0.0016953349113464355
1745972210557824300,1.34982421875,-0.07208305728181953,-0.009278837591409683,-0.05894947824803172,0.02512839250266552,0.1273641672215465,0.9719882321334319,0.24628823130527608,right,-0.0001475811004638672,-0.3914254667511085,-0.652862873854488,-9.041395111066102,-0.18852612665462345,0.006774700712412596,0.0004052668809890747,3.741300744000077,-0.002391338348388672
1745972210597824500,1.389824462890625,-0.07197351927300943,0.00600114930421114,-0.05882426087048813,0.009174894541501999,0.12705143048079515,0.9720545226196802,0.2456687649797292,right,-0.0011371374130249023,-0.3911853867803316,-0.6519370642464608,-9.042361910271644,-0.18843444540603424,0.012677865102887154,0.002276189625263214,3.739124276743829,-0.006478071212768555
1745972210637824500,1.429824462890625,-0.07186379848706878,0.021281138062477112,-0.05869902654346156,-0.006778603419661522,0.12673870835023499,0.9721206806290987,0.2450493989505632,right,-0.0021268129348754883,-0.3909453566166328,-0.651009354942292,-9.043328124955297,-0.18834273547055239,0.018581030890345573,0.00414692610502243,3.736948101748526,-0.010564804077148438
1745972210677824500,1.469824462890625,-0.0718878707048703,0.034686699509620667,-0.058800994451745074,-0.027842940762639046,0.12730544814558156,0.9720798015256923,0.24621472659188534,right,-0.005752623081207275,-0.3906024328573235,-0.6513190784785896,-9.04459069223702,-0.18813998975850027,0.006425569765269756,0.003397218883037567,3.733838737556338,-0.0036497116088867188
1745972210717824500,1.509824462890625,-0.07243683101435994,0.03666181117296219,-0.05924565324632703,-0.03889951482415199,0.12833647668690965,0.9719550729134572,0.24823233534923175,right,-0.0017439723014831543,-0.39039455256398237,-0.6563402676414698,-9.045005702778697,-0.18794415716869872,-0.006742071360349655,0.001437269151210785,3.731953654462099,0.0015617609024047852
1745972210757824500,1.549824462890625,-0.07336259071015508,0.010479332879185677,-0.05982074035831199,-0.024584108963608742,0.12911776112918164,0.971851180296783,0.24966302618368322,right,0.0041010379791259766,-0.3902347504509704,-0.664757163657248,-9.044988751643896,-0.1877641838252672,-0.00018940630252473056,-0.0011315122246742249,3.730504332436621,0.00540575385093689
1745972210797824300,1.58982421875,-0.07336259071015508,-0.0067276861518621445,-0.05982074035831199,-0.016880666837096214,0.12911776112918164,0.971851180296783,0.24966302618368322,right,0.004273355007171631,-0.3902347504509704,-0.664757163657248,-9.044988751643896,-0.1877641838252672,0.001569214160554111,-0.0019558370113372803,3.730504332436621,0.004351496696472168
1745972210837824300,1.62982421875,-0.07451529277951723,-0.01901264116168022,-0.06029921217400586,-0.002027583308517933,0.1287974451234053,0.9718714204080366,0.2487809028409058,right,0.006110131740570068,-0.390254591425518,-0.6751773623194545,-9.04414236394763,-0.18772602018701912,0.009321304969489574,-0.0012374520301818848,3.7306843651786443,0.0009714663028717041
1745972210877824500,1.669824462890625,-0.07481631399153309,-0.01117793284356594,-0.0603264551540893,0.010520522482693195,0.1283126323105027,0.9719650743590266,0.2477296897351368,right,0.0042806267738342285,-0.3898970829878472,-0.6779995070680975,-9.045268153107166,-0.18756431755317804,0.018215108662843704,-0.0011320337653160095,3.727441729995608,-0.000503242015838623
1745972210917824500,1.709824462890625,-0.07446858375006828,-0.006594949867576361,-0.060116916934593936,0.027776453644037247,0.12814636519996878,0.972019037914123,0.24745806161293749,right,0.0029709935188293457,-0.3896324766602413,-0.6749274792116134,-9.046486881247162,-0.18746594500101504,0.02067321538925171,-0.0003854110836982727,3.72504139085561,-0.001550525426864624
1745972210957824500,1.749824462890625,-0.07388939889609403,-0.0071196178905665874,-0.05976609693392528,0.023988083004951477,0.1279363362537505,0.9721254844533395,0.24714641774566762,right,-0.002214491367340088,-0.3889271333773838,-0.669881593998894,-9.0494942463696,-0.18716893411374416,0.021994663402438164,-0.0013501867651939392,3.7186417529463767,0.0015239119529724121
1745972210997824500,1.789824462890625,-0.07410492680874081,-0.05059242621064186,-0.05966971076803978,-0.007049156352877617,0.1272444111134126,0.9723249143546686,0.24569627789110235,right,-0.007056295871734619,-0.38776976361827886,-0.6721501965180039,-9.053635583958028,-0.18663485101762364,0.016792576760053635,-0.0014022290706634521,3.7081370178058743,0.0067529380321502686
1745972211037824500,1.829824462890625,-0.07453934938167946,-0.05983652547001839,-0.05966022892035561,-0.0056778015568852425,0.12649548038879171,0.9725369101915883,0.24408917790309312,right,-0.008389413356781006,-0.38651016217019535,-0.6764305041857064,-9.057993194645643,-0.18604169233730558,0.05016589164733887,-0.0008616000413894653,3.696698801207542,0.012693464756011963
1745972211077824300,1.86982421875,-0.07532469286202742,-0.06050949543714523,-0.05962212129408551,0.015201455913484097,0.125210009003526,0.9729738395846336,0.24133717035928895,right,0.0019032955169677734,-0.3835527441883784,-0.6843637083377688,-9.068321111914514,-0.1846333591813946,0.07294495403766632,0.0027746930718421936,3.6698198543712492,0.010518699884414673
1745972211117824500,1.909824462890625,-0.07494389495008434,-0.026905879378318787,-0.05913703439355534,0.0299314446747303,0.1243866251664362,0.9733529579632627,0.2397566936374589,right,0.0037751197814941406,-0.380761696962347,-0.681674688449502,-9.078760088342428,-0.1833435690489507,0.06828795373439789,0.00554802268743515,3.6444235473081465,-0.0034774839878082275
1745972211157824500,1.949824462890625,-0.07384012401949037,0.02403133362531662,-0.05845781123781387,0.008889768272638321,0.12410236143626796,0.9735982853533142,0.23940816817513244,right,0.00012612342834472656,-0.37876528069475024,-0.6721888480279594,-9.086744657355547,-0.18244898708082613,0.013652283698320389,0.006514906883239746,3.6262402403637766,-0.022572606801986694
1745972211197824500,1.989824462890625,-0.07433441920469688,0.043028801679611206,-0.059093398045181385,-0.033983264118433,0.12520125405560054,0.9731030735836326,0.24152289675698801,right,0.0011039972305297852,-0.3823993508531345,-0.6756971484098583,-9.073209468477964,-0.1841276975341685,-0.1037856787443161,0.003201790153980255,3.659328270973265,-0.020015180110931396
1745972211237824500,2.029824462890625,-0.0748211102619569,0.06202627345919609,-0.05972869933788214,-0.07685630023479462,0.12629958360679833,0.9726032407202144,0.2436388277162457,right,0.002069711685180664,-0.3860343227060458,-0.6791141172464936,-9.059555621656775,-0.18580553174453204,-0.2212236225605011,-0.00012065470218658447,3.69237626183331,-0.01745361089706421
1745972211277824500,2.069824462890625,-0.07702061065132874,0.025891058146953583,-0.06138679343952725,-0.08589492738246918,0.12730362098284398,0.9716589120534256,0.24517092506156085,right,0.005348861217498779,-0.3939708719539264,-0.6967620752051472,-9.028536798536777,-0.18948448720556116,-0.23900002241134644,-0.0009032711386680603,3.7643624706357715,-0.015632957220077515
1745972211317824300,2.10982421875,-0.08117668485159656,-0.04603717476129532,-0.06383953302608944,-0.05894564092159271,0.12741384195779765,0.9706687324208855,0.2444451991501473,right,0.006160855293273926,-0.40298753560961553,-0.7314971423693001,-8.991366467049717,-0.19362951024641772,-0.12257349491119385,0.0002566426992416382,3.8458576815396546,0.012749046087265015
1745972211357824500,2.149824462890625,-0.0835534226347403,-0.11357349902391434,-0.06470122703251119,-0.02894064597785473,0.12621989315582322,0.9707932466830822,0.24151377711445407,right,-0.003110229969024658,-0.40283926358546224,-0.752912782298401,-8.990170535263418,-0.19350090323653213,0.026544690132141113,0.002888135612010956,3.844520295456052,0.03466722369194031
1745972211397824500,2.189824462890625,-0.08625317578442411,-0.1360451877117157,-0.06506049470635991,0.008991433307528496,0.1234817751310499,0.9717769640745642,0.23546792951172266,right,-0.012161195278167725,-0.39596027505049514,-0.779441089066118,-9.014240562158822,-0.19018086697535794,0.22379277646541595,0.000006034970283508301,3.782369836491346,0.02988526225090027
1745972211437824500,2.229824462890625,-0.08702187396350194,-0.06717739254236221,-0.06435960525827454,0.01936672441661358,0.12102715064563264,0.9731946935153547,0.23050540137512046,right,-0.007187545299530029,-0.384412469182979,-0.7901137281194329,-9.056549425578117,-0.1846681000375454,0.26871493458747864,-0.0004748702049255371,3.677636957862973,-0.0027832388877868652
1745972211477824500,2.269824462890625,-0.08654515391367813,-0.0076904296875,-0.06382541452954862,0.01900765858590603,0.12081337542060387,0.9737424131011848,0.2302691091511923,right,0.0017745494842529297,-0.37904794521350255,-0.7874901746828109,-9.076450057834386,-0.18208831695502656,0.1844819039106369,0.00012111663818359375,3.6288156438097356,-0.015478938817977905
1745972211517824500,2.309824462890625,-0.08577170925605926,0.02963995188474655,-0.06341369855900418,-0.0004253443330526352,0.12127238021704671,0.9739506147126726,0.23141131360956085,right,0.005505383014678955,-0.3764050391170647,-0.7812886896941811,-9.086579822182655,-0.18080942764558514,0.05188368260860443,0.0005605965852737427,3.604724574126303,-0.022770226001739502
1745972211557824300,2.34982421875,-0.08569467034301426,0.031982649117708206,-0.06363043832853912,-0.0402885302901268,0.12219987328158365,0.9736877008090586,0.23329795539754433,right,0.006819427013397217,-0.37798088609161,-0.7801015257362276,-9.080968996563554,-0.18152297272640858,-0.10548557341098785,0.0018282383680343628,3.6190921221747994,-0.024317115545272827
1745972211597824500,2.389824462890625,-0.08756470162956516,-0.0034791380167007446,-0.06493913787280405,-0.04996807500720024,0.12266471291837631,0.9729515466391756,0.23376227189299642,right,0.01216048002243042,-0.3846918876800616,-0.7949399061668664,-9.055095135116577,-0.18466596858954007,-0.19565418362617493,0.0017972290515899658,3.680176997734606,-0.015033036470413208
1745972211637824500,2.429824462890625,-0.08905772142156751,-0.02804514206945896,-0.0657987140092324,-0.026773059740662575,0.12221540485341972,0.9725092775422207,0.23245042998991236,right,0.002937912940979004,-0.38952830100077546,-0.8068659062821417,-9.03606427143216,-0.18697449454755855,-0.17423132061958313,0.0009407103061676025,3.724096218959987,-0.003704577684402466
1745972211677824500,2.469824462890625,-0.09096720379008598,-0.034737542271614075,-0.0667875341224026,-0.028293220326304436,0.1213992650080285,0.9720764332278163,0.2302910072865822,right,-0.012999176979064941,-0.3945804892681871,-0.8223989909786731,-9.015654520609974,-0.1893909883523345,-0.10745138674974442,-0.0005685463547706604,3.769882110840082,0.017007887363433838
1745972211717824500,2.509824462890625,-0.09320078160460045,-0.028182679787278175,-0.06780795432856779,-0.03135156258940697,0.1205880425658238,0.9718582162928631,0.22812209384228516,right,-0.01530534029006958,-0.3973184130841642,-0.8415703591123223,-9.003484774866699,-0.19066226783135506,-0.007135115563869476,-0.0003385618329048157,3.794654733046889,0.02753889560699463
1745972211872949200,2.66494921875,-0.10006167964329192,0.013247874565422535,-0.07079512923237735,-0.05373365059494972,0.12187511592527459,0.9724861767933662,0.22968923493431606,right,0.019257497042417526,-0.38765870990886503,-0.9069415336892008,-9.033550827306508,-0.1854862177488235,0.02227780409157276,-0.0007418363820761442,3.7071290098071095,-0.019200250506401062
1745972212015554800,2.807554931640625,-0.10031058646928841,0.017780926078557968,-0.07137352995875791,0.030064554885029793,0.12242077038028508,0.9716988369726508,0.23056481215269653,right,0.0013759199064224958,-0.3949624972526406,-0.9064542616289109,-9.006143764942884,-0.18899804888641294,-0.0800107792019844,-0.0028498941101133823,3.773340142339468,0.009238634258508682
1745972212055554800,2.847554931640625,-0.09853043609109621,0.005726787261664867,-0.0705730597076763,0.044458359479904175,0.12243859518133478,0.9716818963417203,0.23093281774269667,right,-0.012076258659362793,-0.3955368536350277,-0.8902072565093636,-9.005584962016343,-0.18937366035173459,0.04226969927549362,-0.0002668425440788269,3.7785385877653956,0.011541873216629028
1745972212095554800,2.887554931640625,-0.09831996885216229,-0.006002658978104591,-0.07029997115757919,0.008868243545293808,0.12240849882148089,0.9720277425821737,0.23100143219698593,right,-0.009268701076507568,-0.3921044992514931,-0.8895796991955488,-9.018625645375252,-0.18771244808135037,0.07363545149564743,0.0003583058714866638,3.747455174976587,0.009043365716934204
1745972212135554800,2.927554931640625,-0.09811005687360815,-0.017732104286551476,-0.07002668456938842,-0.02672187238931656,0.12237809696018853,0.972370766097691,0.23106930022058075,right,-0.006471991539001465,-0.38867218339466714,-0.8889412551615387,-9.031559945750235,-0.1860506910267684,0.10500121116638184,0.000982329249382019,3.716328215306997,0.00654938817024231
1745972212175554800,2.967554931640625,-0.09958823164390193,-0.005419437773525715,-0.07054465236487213,-0.025494003668427467,0.12226764410981951,0.9726512991561119,0.23064410961229634,right,0.005773782730102539,-0.38555120001038223,-0.9034392246566713,-9.04173296471834,-0.18445422032993974,0.03446289151906967,0.002240993082523346,3.6879867947027085,-0.007995545864105225
1745972212215554800,3.007554931640625,-0.1006952663648953,0.00319049134850502,-0.07122830774845543,-0.0220048651099205,0.12244486163850865,0.9723448485856039,0.23072457121214396,right,0.011189877986907959,-0.3882230243939062,-0.9124543788265437,-9.030891252708434,-0.18568576511347562,-0.049340151250362396,0.00184689462184906,3.7122517596483227,-0.014156609773635864
1745972212255554800,3.047554931640625,-0.10180331193799251,0.01180042140185833,-0.0719118086372906,-0.018515724688768387,0.12262171834405529,0.9720363200824432,0.2308016944378249,right,0.01659846305847168,-0.3908949003449489,-0.9214491477955132,-9.019975306418537,-0.18691691741190045,-0.13314318656921387,0.0014507174491882324,3.736490713369846,-0.020315051078796387
1745972212295554800,3.087554931640625,-0.10139238500340546,0.01727777160704136,-0.07201621499297438,0.011760178953409195,0.12280767902597751,0.9714995853976078,0.2311160932267127,right,0.002467632293701172,-0.39622497060120143,-0.9157136728834361,-9.000411358770728,-0.189526717547478,-0.08901241421699524,-0.0006146878004074097,3.784764622673392,0.0017830431461334229
1745972212335554800,3.127554931640625,-0.10107898942320723,-0.001993812620639801,-0.07190089598693777,0.0055830092169344425,0.12281074011285306,0.9714450809532594,0.23116652808463434,right,-0.003237426280975342,-0.39684881587699883,-0.912654504508525,-8.998347411978244,-0.18984787900453107,-0.021916568279266357,-0.0006120949983596802,3.7904078892573714,0.01228746771812439
1745972212375554800,3.167554931640625,-0.10106908864786181,-0.010958414524793625,-0.07180043917675225,-0.0013620983809232712,0.12263462555696937,0.9715917397050061,0.23084024182278817,right,-0.007121264934539795,-0.39559157442994636,-0.9130455496527254,-9.003090222591162,-0.18924805946483717,0.04755108803510666,-0.0002637207508087158,3.77903367780596,0.013206571340560913
1745972212415554800,3.207554931640625,-0.10170602451680044,-0.010868862271308899,-0.07190416875405883,-0.019219359382987022,0.1224625755907143,0.9719216088064304,0.2304536889767514,right,-0.0032159090042114258,-0.39229887197054836,-0.9200381119538098,-9.014836774486303,-0.18761930666240184,0.07841778546571732,-0.0008060187101364136,3.7492166316911577,0.0044869184494018555
1745972212455554800,3.247554931640625,-0.10245986590934034,-0.003793467301875353,-0.07215231855045906,-0.0239607822149992,0.12251300526248107,0.9721257549196872,0.23047852291083312,right,0.0032883286476135254,-0.3899533393807666,-0.9277304930873215,-9.022864013597369,-0.18642961637470146,0.046833425760269165,-0.0005559176206588745,3.7279520176053045,-0.0030187666416168213
1745972212495554800,3.287554931640625,-0.10330608265420152,0.016883250325918198,-0.07255592011249296,-0.024712784215807915,0.12283228326643504,0.9721718275945136,0.23100495630534462,right,0.005831718444824219,-0.38885111254600624,-0.9357886387933045,-9.026157209923863,-0.18582164135467277,0.013735659420490265,0.0013476163148880005,3.7179520171165463,-0.009746521711349487
1745972212535554800,3.327554931640625,-0.10361531882435256,0.0238229688256979,-0.07279821568708757,-0.004852293059229851,0.12329971074695126,0.9720889410439589,0.23190269387671275,right,0.008117496967315674,-0.3890171680570235,-0.938515944865346,-9.025252954560518,-0.18585089714925787,-0.014664461836218834,0.0004773363471031189,3.7194589145481585,-0.008918285369873047
1745972212575554800,3.367554931640625,-0.10332141663237687,0.026769272983074188,-0.07279683771690153,0.0019987914711236954,0.12375645029152507,0.971941747093046,0.23287017497942486,right,0.0034244656562805176,-0.3900100179903336,-0.9354820570621639,-9.021851037162541,-0.18631750589001522,-0.03781614452600479,-0.00015564262866973877,3.728466104607284,-0.00042447447776794434
1745972212615554800,3.407554931640625,-0.1026290310327886,0.01843658834695816,-0.07262064943523132,0.015323885716497898,0.12409324758772988,0.9717516382185674,0.23364855890231728,right,-0.00023061037063598633,-0.39169306164705925,-0.9285909823741764,-9.01624196510911,-0.18715190114859548,-0.05176570266485214,0.0011936351656913757,3.7437265098422765,0.005388379096984863
1745972212655554800,3.447554931640625,-0.10164588776201167,-0.009196477010846138,-0.0722276612316468,0.014085008762776852,0.12396964967278583,0.9716117766928614,0.23353302822850375,right,-0.007445633411407471,-0.3935249767673207,-0.9190288618460297,-9.010312575060128,-0.1881092131461189,-0.027148691937327385,-0.002563200891017914,3.7603243011608716,0.00592041015625
1745972212695554800,3.487554931640625,-0.10226167486599419,-0.014959380961954594,-0.07248857131395743,-0.03067757934331894,0.12377213771834204,0.9715998630026429,0.23300094951097733,right,-0.013096868991851807,-0.3937522861014462,-0.9244898306656628,-9.00889452495575,-0.1882009955925169,0.01113135926425457,0.0024340227246284485,3.762382987256348,0.0034713149070739746
1745972212735554800,3.527554931640625,-0.10503438335266935,-0.019356917589902878,-0.0737548899347728,-0.08119708299636841,0.1236959654816984,0.9715722341463074,0.23231647895233506,right,-0.006288468837738037,-0.3934378808955431,-0.949589273674041,-9.007472383198142,-0.1879013787392209,0.0034840237349271774,0.004911512136459351,3.7595354888707395,0.0005349516868591309
1745972212775554800,3.567554931640625,-0.10820759074254313,0.006161119788885117,-0.07527498681109872,-0.06653477996587753,0.12390470262587448,0.9714736099943018,0.23213537068010442,right,0.00473332405090332,-0.393354125698782,-0.9782010356523096,-9.004726883882284,-0.18767091483581302,-0.008854340761899948,0.005531482398509979,3.7587770717188715,-0.005211949348449707
1745972212815554800,3.607554931640625,-0.10832809589552331,0.01672104373574257,-0.07548484555799477,-0.02254870906472206,0.12446275919309016,0.9713072054171383,0.2332320940089843,right,0.010542154312133789,-0.3942906586538067,-0.9789050922684371,-9.001105186253785,-0.18807812094778467,-0.012229155749082565,0.0019429698586463928,3.767258192077279,-0.003644019365310669
1745972212855554800,3.647554931640625,-0.10844750708274216,0.02728096954524517,-0.07569465749887355,0.02143736556172371,0.12502079179293493,0.9711402886619075,0.23432922742648074,right,0.016350269317626953,-0.3952273504858919,-0.979597531512007,-8.997476474362612,-0.1884852347404952,-0.015603970736265182,-0.0016467273235321045,3.7757375588700173,-0.002075880765914917
1745972212895554800,3.687554931640625,-0.10656327801896864,-0.016879038885235786,-0.07483168247488622,0.06293539702892303,0.12490369920939803,0.9711228429292228,0.23442958821994708,right,0.0014766454696655273,-0.3960442864752244,-0.9623140960168093,-8.996236118912696,-0.18899686398740442,-0.02346455305814743,0.0003775656223297119,3.7831300072088836,0.006062597036361694
1745972212935554800,3.727554931640625,-0.10444824994140323,-0.05641655623912811,-0.0736538492636467,0.0511946901679039,0.12387220989119127,0.971285306739303,0.23271067902746245,right,-0.016832709312438965,-0.3962713417441032,-0.9431951156575232,-8.997396394863724,-0.18930276658536355,-0.0020821895450353622,-0.0035017207264900208,3.785184309390187,0.015542984008789062
1745972212975554800,3.767554931640625,-0.10476286730379515,-0.028277624398469925,-0.07355348924156863,-0.045594267547130585,0.12297966624685584,0.9715401411966996,0.23085583551751052,right,-0.023210585117340088,-0.394758639841364,-0.9466234826710075,-9.002783933120966,-0.18861507638629024,0.07299813628196716,0.003282487392425537,3.771494806733727,-0.0015683472156524658
1745972213015554800,3.807554931640625,-0.10781592992277338,0.05760972574353218,-0.07496918555888445,-0.13821429014205933,0.12369446043676918,0.9716758523750249,0.23183037073737217,right,-0.0247117280960083,-0.39166335627988164,-0.9753566060066222,-9.011414398822188,-0.18688320542343403,0.09392648935317993,0.007179677486419678,3.7434570452511307,-0.010164111852645874
1745972213055554800,3.847554931640625,-0.1115370047504576,0.14968635141849518,-0.07713227781034106,-0.15424104034900665,0.1265619509747908,0.9714622038556737,0.237102796231649,right,0.00027048587799072266,-0.38906787623641886,-1.009960009615123,-9.017347880524396,-0.18518584450135084,0.06205616146326065,0.0075161755084991455,3.7199189332753417,-0.009911835193634033
1745972213095554800,3.887554931640625,-0.1126731821423167,0.13476426899433136,-0.07827200167804921,-0.03462749719619751,0.13008645550755027,0.9710860380265716,0.2441842241990742,right,0.033806800842285156,-0.38783147602842943,-1.020720984539017,-9.020757981228828,-0.1842357766310532,0.024762853980064392,0.00526939332485199,3.708697282037139,0.0065472424030303955
1745972213135554800,3.927554931640625,-0.10974583227936607,0.04267061501741409,-0.07720435595681074,0.08035970479249954,0.13180423754578388,0.9709750992001178,0.24829146936142443,right,0.02458113431930542,-0.38738428234281963,-0.9944912953916937,-9.025355245891213,-0.1840500822591813,0.012975646182894707,-0.010949864983558655,3.7046371929913757,0.009400665760040283
1745972213175554800,3.967554931640625,-0.10617241453549402,-0.04352787137031555,-0.07542638554355656,0.07526294887065887,0.13135114386878766,0.9711638870694871,0.24804659915185112,right,-0.002290070056915283,-0.38701654509787187,-0.9623779550332575,-9.030205024009943,-0.18411548423678742,0.015510862693190575,-0.016068652272224426,3.701297819435596,0.0048638880252838135
1745972213215554800,4.007554931640625,-0.10557959370990799,-0.049342356622219086,-0.07492321577356988,0.016304422169923782,0.13013874618490048,0.9713341020394171,0.2456600995125828,right,-0.011231720447540283,-0.38709813351906647,-0.9569926087331027,-9.030473904079198,-0.18428367132797974,-0.00880596973001957,-0.0011539533734321594,3.702038993191719,-0.0011268556118011475
1745972213255554800,4.047554931640625,-0.10730570470668406,-0.003496125340461731,-0.07565939830287556,-0.048244718462228775,0.12951017285074234,0.9712861535710725,0.24401136558476758,right,-0.014729499816894531,-0.3880109208500495,-0.9722164813499897,-9.025445262262224,-0.18467813120338,-0.02150292508304119,0.00499647855758667,3.710326344543695,-0.012328773736953735
1745972213295554800,4.087554931640625,-0.10972368124733889,0.045702554285526276,-0.0769399551237493,-0.0840197429060936,0.13015133815996832,0.9710876423307508,0.2448561513173554,right,-0.009615898132324219,-0.38853146287900564,-0.993825305763632,-9.02114668828547,-0.18474237056001497,-0.014865083619952202,0.007043510675430298,3.7150513272389767,-0.011506050825119019
1745972213335554800,4.127554931640625,-0.11189545288493424,0.08411819487810135,-0.0783065045533799,-0.07777909934520721,0.1317905704047053,0.9707374359748999,0.24779643074672486,right,0.006211280822753906,-0.38927069954204546,-1.013107879186794,-9.016235535368322,-0.18484589466332071,-0.028162367641925812,0.007769092917442322,3.72175930044502,-0.007200330495834351
1745972213375554800,4.167554931640625,-0.11206132727850796,0.09259380400180817,-0.07882528367836812,-0.009390905499458313,0.1337573101701509,0.970341903613274,0.2517784092941385,right,0.021482467651367188,-0.39052584435655985,-1.0140802313502877,-9.011418490475416,-0.18528922824593314,-0.03489847108721733,0.004806786775588989,3.7331443255513905,-0.0033135712146759033
1745972213415554800,4.207554931640625,-0.10940105545860757,0.059721872210502625,-0.07790945117958799,0.06274428963661194,0.13515099758162194,0.9701081988790202,0.2551259456404568,right,0.014459848403930664,-0.391658499763321,-0.9896415903382003,-9.009875352686644,-0.18588791091578916,-0.01165253296494484,-0.003590136766433716,3.7434132061094045,0.0006997883319854736
1745972213455554800,4.247554931640625,-0.10522168052434783,0.00569818913936615,-0.07601517719051576,0.0932605117559433,0.1355392770273677,0.9701890475777775,0.25673557209989367,right,0.0018402338027954102,-0.391369094505752,-0.9520911734923719,-9.01500979296565,-0.1859680146386665,0.01968006044626236,-0.007525056600570679,3.740789871868491,0.019982725381851196
1745972213495554800,4.287554931640625,-0.10256565089830232,-0.05700289458036423,-0.07456475948000175,0.06865722686052322,0.13493904476468896,0.9705046802989498,0.2560518473290828,right,-0.01324307918548584,-0.3896629252651273,-0.9287957842312753,-9.023842503240704,-0.18534337985317598,0.05247782543301582,0.0005796924233436584,3.7253175774484872,0.023346543312072754
1745972213535554800,4.327554931640625,-0.10330751992214156,-0.10585305839776993,-0.07448556792106723,-0.02038707584142685,0.13319672220725967,0.9708943099493172,0.2523660759074388,right,-0.021726667881011963,-0.38794238867732106,-0.9361496541254222,-9.029512950092554,-0.18459374909679038,0.030718697234988213,0.003108799457550049,3.7097041209921238,0.01848885416984558
1745972213575554800,4.367554931640625,-0.10762682318615525,-0.10967745631933212,-0.07609208488501025,-0.0928686186671257,0.1312135756152336,0.9711254108727805,0.24748147776440943,right,-0.011287212371826172,-0.38722400115352085,-0.9754279907424003,-9.028032356145978,-0.1841424258743793,-0.0012119915336370468,0.003984205424785614,3.703181733486056,0.01002967357635498
1745972213615554800,4.407554931640625,-0.1119499128298483,-0.05557947978377342,-0.07788916638606591,-0.06401969492435455,0.12994701372798564,0.9711576828805684,0.24404541662937143,right,0.01461482048034668,-0.3874841333494744,-1.0143401243954897,-9.022773412704467,-0.18411908985503608,0.0025531791616231203,0.005317747592926025,3.7055437864422798,-0.010611772537231445
1745972213655554800,4.447554931640625,-0.11232700588843944,0.004276197403669357,-0.07797533887147122,0.02959689497947693,0.12951818607918703,0.9712220046193139,0.24309653565104739,right,0.018920063972473145,-0.3873066407349545,-1.0178162030082196,-9.023044046339391,-0.1840451905807012,0.02097400650382042,-0.0028285011649131775,3.703932259592414,-0.00747525691986084
1745972213695554800,4.487554931640625,-0.10909549344497932,0.05738858878612518,-0.07653583624218799,0.0515098050236702,0.13014619012630707,0.9713081858538577,0.24502923962546394,right,0.00012367963790893555,-0.3864257498212217,-0.9890076763488351,-9.029525809574126,-0.18375138164022,0.025318002328276634,-0.00638880580663681,3.695932200749218,-0.0033858120441436768
1745972213735554800,4.527554931640625,-0.10717450924148639,0.06708108633756638,-0.07578238529387557,-0.03257109969854355,0.13117267196869614,0.9713076040875892,0.24753324824114153,right,-0.02429342269897461,-0.38551169356547216,-0.9720212510388344,-9.034764294749499,-0.1833364461071798,0.043735962361097336,-0.018209144473075867,3.687627606001496,-0.005104631185531616
1745972213775554800,4.567554931640625,-0.11049896082789733,0.08070801198482513,-0.07763347455131414,-0.1491537243127823,0.13313854871470301,0.9710918155335166,0.25099903898114545,right,-0.013057172298431396,-0.3840757935089437,-1.0026343429021536,-9.036735887083411,-0.18228472396677228,0.025376765057444572,0.0033714622259140015,3.674576108987629,-0.00044673681259155273
1745972213815554800,4.607554931640625,-0.11472248816493832,0.17210251092910767,-0.07997926011010037,-0.2590726315975189,0.13568175271930816,0.9708196349583991,0.2555119168830294,right,-0.04816854000091553,-0.3820549875240352,-1.0416400731228292,-9.03977890804112,-0.18083926925606647,0.1593218594789505,-0.06256551295518875,3.6561949413836,-0.04944536089897156
1745972213855554800,4.647554931640625,-0.12864553149339036,0.17070269584655762,-0.08704675048649077,-0.3825410008430481,0.14177051068669222,0.970534843386268,0.26588875159890246,right,0.04401981830596924,-0.37152894837124945,-1.1722688788995146,-9.062067312216758,-0.17431582538258658,0.37673091888427734,0.030451089143753052,3.5602114786610004,0.028395920991897583
1745972213895554800,4.687554931640625,-0.13256139869066536,0.08783325552940369,-0.08895342517591046,0.06829753518104553,0.14554703043313305,0.9708251058344731,0.2734071273357523,right,0.08612149953842163,-0.36090118081220784,-1.2126784115035085,-9.09440014054477,-0.1685286498288883,0.20114995539188385,0.031050987541675568,3.462900274465978,0.0426749587059021
1745972213935554800,4.727554931640625,-0.12509548503653237,0.09220383316278458,-0.08543443151487014,0.16855041682720184,0.14718592004272701,0.97124519775152,0.27826240873350966,right,0.025130808353424072,-0.3560348888867953,-1.146836185348779,-9.119812229698896,-0.16649299723533592,0.15277981758117676,0.009464800357818604,3.4182118224337694,-0.01639118790626526
1745972213975554800,4.767554931640625,-0.11707093151721894,0.026928476989269257,-0.08153978648021465,0.11088098585605621,0.14860912359979006,0.9717761003903288,0.2827636981471361,right,-0.012951970100402832,-0.3502225252940048,-1.0759201630610973,-9.148299488514661,-0.16406645553968316,0.17504830658435822,0.016791194677352905,3.3647292385712264,0.016884595155715942
1745972214015554800,4.807554931640625,-0.11872871119287579,-0.026372071355581284,-0.08206179185299393,0.032831721007823944,0.14733145208095672,0.9719883806316151,0.27988010799013574,right,-0.007104218006134033,-0.3494816751749256,-1.0913794518690556,-9.14897578034103,-0.1637006684707965,0.08641383796930313,0.01358293741941452,3.357904068726301,0.0018826127052307129
1745972214055554800,4.847554931640625,-0.12038373723695525,-0.07967261224985123,-0.08258361443401317,-0.04521753638982773,0.14605346980767558,0.9721986152796918,0.27699859815650724,right,-0.001257777214050293,-0.34873631200525285,-1.1068200359765439,-9.149639212685823,-0.16333453272690382,-0.002220623195171356,0.010372757911682129,3.351035352000594,-0.01311492919921875
1745972214095554800,4.887554931640625,-0.12183356440554283,-0.08055059611797333,-0.08306211476574021,0.014640752226114273,0.1445474983679296,0.972312183580618,0.27362811011417615,right,0.007011592388153076,-0.3495286281976651,-1.1197612044837326,-9.145386815938354,-0.16375508769153677,-0.03980015963315964,0.01008228212594986,3.358336614924669,-0.00022414326667785645
1745972214135554800,4.927554931640625,-0.12017317726111985,-0.07058718800544739,-0.08211827210791109,0.09541833400726318,0.1426028558171661,0.9723928200254561,0.26980360911800405,right,0.0007649064064025879,-0.3524336971462262,-1.1034005829218774,-9.137508629909156,-0.16544874229683973,-0.11276157945394516,-0.00033470988273620605,3.3850887205109,-0.006730794906616211
1745972214175554800,4.967554931640625,-0.11642466874591512,-0.03962504863739014,-0.0803259354622625,0.14018873870372772,0.14079110395979397,0.9723206630668936,0.2665453157325196,right,-0.005907237529754639,-0.3574239906163376,-1.0671652672626077,-9.124688895824551,-0.168279789937989,-0.1532745063304901,-0.000502459704875946,3.430976611460745,-0.005524039268493652
1745972214215554800,5.007554931640625,-0.11328553101125334,-0.015252452343702316,-0.07899115329026689,0.05416032671928406,0.13960492916007877,0.9720228257826385,0.2644491097090297,right,-0.020679593086242676,-0.3635878123368672,-1.0361060390669852,-9.106807786697148,-0.1715878801248434,-0.13275645673274994,-0.007003232836723328,3.4875372875943778,-0.013450652360916138
1745972214255554800,5.047554931640625,-0.11398065894499548,-0.01831968128681183,-0.07937698965499265,-0.03824879974126816,0.13921874541568846,0.9718551313696566,0.26345867363242564,right,-0.0120810866355896,-0.365827735156305,-1.041545088315755,-9.09830182415843,-0.17267020491145602,-0.018518924713134766,0.004628702998161316,3.5080586820974946,-0.0009852945804595947
1745972214295554800,5.087554931640625,-0.11614369713685199,-0.010855157859623432,-0.08033548973400834,-0.043268103152513504,0.13906949046576567,0.9718703424335564,0.262787107686112,right,-0.011272549629211426,-0.36524211294622533,-1.0614605528149754,-9.098066261836886,-0.17226115542482834,0.005993301048874855,0.007873721420764923,3.50269510923773,-0.0002066493034362793
1745972214335554800,5.127554931640625,-0.11577169573679758,-0.0006064129993319511,-0.08013540406735947,-0.00012063980102539062,0.13905023405361136,0.9719185017774971,0.262826334663665,right,0.0030108094215393066,-0.36485832818159,-1.058231142439693,-9.099795277586578,-0.17209841045748148,0.01051273476332426,0.005129806697368622,3.4991795023322103,-0.0021603405475616455
1745972214375554800,5.167554931640625,-0.11577169573679758,0.00964233186095953,-0.08013540406735947,0.04302682355046272,0.13905023405361136,0.9719185017774971,0.262826334663665,right,0.017117857933044434,-0.36485832818159,-1.058231142439693,-9.099795277586578,-0.17209841045748148,0.015032168477773666,0.00271519273519516,3.4991795023322103,-0.004472553730010986
1745972214415554800,5.207554931640625,-0.11304800122604367,0.0070650335401296616,-0.0788320986199783,0.07914308458566666,0.13903932403912717,0.9720256953675299,0.2632973244259504,right,0.0219537615776062,-0.364517866959423,-1.0335765205893666,-9.103826725059747,-0.17210314463053214,-0.003193184733390808,0.0057016536593437195,3.496060201267898,0.00882837176322937
1745972214455554800,5.247554931640625,-0.10968221378626773,-0.002319522202014923,-0.07718736232681471,0.08931306004524231,0.13880984680747702,0.9721796096314849,0.2634319547877978,right,0.009286224842071533,-0.36417526831832575,-1.0030602401640265,-9.108444447988271,-0.172164709335596,0.020350798964500427,0.003719910979270935,3.492921026459336,0.009059131145477295
1745972214495554800,5.287554931640625,-0.10626424778655681,-0.04489612951874733,-0.07536145350808164,0.10406271368265152,0.13809895946925954,0.9725135304003705,0.26262129834957093,right,0.019816935062408447,-0.3625886534163073,-0.9725086692295968,-9.117318659317492,-0.1716588385141479,0.0668688639998436,-0.002125784754753113,3.478377829582989,0.006028324365615845
1745972214535554800,5.327554931640625,-0.10335587179794381,-0.07746382057666779,-0.07358728356184302,0.10611604154109955,0.1366780567586766,0.9730307262904526,0.2602883669315232,right,0.008138120174407959,-0.35989442783203035,-0.9469514725163578,-9.129397219645977,-0.1706317610763625,0.08792310953140259,-0.006372138857841492,3.4536616137385368,0.0032303035259246826
1745972214575554800,5.367554931640625,-0.09993734122472588,-0.1088101863861084,-0.07147945755256375,0.11678097397089005,0.13436396608193307,0.9735795361561635,0.2561754479020797,right,-0.027482330799102783,-0.3582999413853939,-0.9162851160958408,-9.138048728135228,-0.17023474014316428,-0.002254076302051544,-0.017193272709846497,3.439022555272281,0.01592850685119629
1745972214615554800,5.407554931640625,-0.09861720744270246,-0.04810665175318718,-0.07057098142982339,0.01502373069524765,0.13250938576875934,0.9738018600678667,0.2525785295159314,right,-0.048540592193603516,-0.35900566952254864,-0.9039816609703004,-9.136832922604679,-0.17079492624888454,-0.051699429750442505,-0.0141492560505867,3.445502857202291,0.0036939680576324463
1745972214655554800,5.447554931640625,-0.10064050856735506,0.010887816548347473,-0.0716254310580944,-0.05804362893104553,0.13218862536724954,0.9735408952478215,0.2514871832863422,right,-0.0159299373626709,-0.36184906312738785,-0.9214783738899975,-9.125200352478027,-0.17208728953644176,-0.09371446073055267,0.0021537765860557556,3.4715953298360107,-0.0010029971599578857
1745972214695554800,5.487554931640625,-0.10264713920203596,0.042607542127370834,-0.07272374881987463,-0.03954285383224487,0.13251380505447363,0.9732907745612677,0.2517518467335538,right,0.03382772207260132,-0.3635807068616838,-0.9391700248599052,-9.117339702105522,-0.17278974968357458,0.07454204559326172,-0.00318019837141037,3.487472113403678,-0.05539730191230774
1745972214735554800,5.527554931640625,-0.09824370993396676,0.1345106065273285,-0.07048791451364321,0.14291568100452423,0.13459211188375506,0.973954667111247,0.2570469402731234,right,0.03770798444747925,-0.3541877931818988,-0.9021868134427815,-9.153583566397428,-0.1683109411130061,0.3077675402164459,0.003239154815673828,3.401227954407036,-0.019087910652160645
1745972214775554800,5.567554931640625,-0.08962597403978124,0.13549119234085083,-0.06630625338331847,0.16137714684009552,0.13704270752857012,0.9746012354860727,0.26376489648849194,right,-0.004684388637542725,-0.34512360626523264,-0.8259966501444578,-9.191347187602519,-0.16424123469677643,0.133294478058815,-0.005132004618644714,3.3177176042884584,0.011209696531295776
1745972214815554800,5.607554931640625,-0.08333520264508196,0.09130917489528656,-0.0636446824488545,0.11334148049354553,0.13890861527345477,0.9744656285108414,0.2686547529879348,right,-0.015784084796905518,-0.34515279716444264,-0.7681519986148924,-9.196264770260452,-0.16453062486823072,-0.09808483719825745,0.007515504956245422,3.3179870688796043,0.016834676265716553
1745972214855554800,5.647554931640625,-0.0810686451485209,-0.0029253140091896057,-0.06305957082905193,-0.0015543922781944275,0.13945725533721967,0.9738703102921044,0.27005641844748407,right,-0.019482553005218506,-0.351588337510763,-0.7455615427527577,-9.176509099432826,-0.16778475656137176,-0.17081767320632935,0.012030988931655884,3.3773069805935023,0.014231711626052856
1745972214895554800,5.687554931640625,-0.0841041440375802,-0.08104270696640015,-0.06470616089093531,-0.10878308862447739,0.13854203365306034,0.9733965298508533,0.26754413171425373,right,-0.02427750825881958,-0.3577122930558638,-0.7716613949753344,-9.153422238355875,-0.17064125421747,-0.1396080106496811,0.008178599178791046,3.433625080142915,0.017285823822021484
1745972214935554800,5.727554931640625,-0.09094508199965383,-0.0632234662771225,-0.06802671505937781,-0.12768304347991943,0.13712403233385112,0.9729278814596786,0.2633081810207084,right,-0.010559797286987305,-0.36353418842410234,-0.8324312132366001,-9.127866941338777,-0.1731492505988149,-0.13148348033428192,0.008216634392738342,3.4870457046851513,-0.0008291304111480713
1745972214975554800,5.767554931640625,-0.09782768904528391,-0.04540422558784485,-0.0713459513952419,-0.14658300578594208,0.13570337507350272,0.9724402750930522,0.2590202368697741,right,0.0030913949012756348,-0.3693288096109285,-0.8932459666181355,-9.1016587333709,-0.17565387682438455,-0.12335895746946335,0.00825924426317215,3.54009895721972,-0.01890668272972107
1745972215015554800,5.807554931640625,-0.1022505277720212,0.03814338147640228,-0.07363050703320416,-0.09312230348587036,0.13598194439180147,0.9720418347336945,0.25872153945574156,right,0.016753077507019043,-0.37206467439043334,-0.932500191707164,-9.08795052601397,-0.17669752521410984,-0.01299959421157837,0.008935436606407166,3.565106264965236,-0.01760956645011902
1745972215055554800,5.847554931640625,-0.10346317004706646,0.08720849454402924,-0.07443083667626693,-0.048305660486221313,0.13755362381289124,0.9718808051061459,0.26176160329019116,right,0.01142054796218872,-0.37109700526663564,-0.9438757913980632,-9.090240098255872,-0.1760305984881663,0.04695530980825424,0.002742588520050049,3.556264202339947,-0.0076590776443481445
1745972215095554800,5.887554931640625,-0.10227453042213154,0.11658778786659241,-0.07413907304511241,0.01569785177707672,0.13972047501496204,0.97180043176478,0.26649292371005956,right,0.006569623947143555,-0.3689405553796275,-0.9338508756637572,-9.098963502937554,-0.17488672360073576,0.06341273337602615,-0.0012135207653045654,3.5365479867398735,0.0008727014064788818
1745972215135554800,5.927554931640625,-0.09926859167620929,0.10908279567956924,-0.07305308678103192,0.008090483024716377,0.14214971456372183,0.9716898630190949,0.2720786539160861,right,-0.0018153190612792969,-0.3671035188665112,-0.907138079174608,-9.108178490528465,-0.17399816148734246,0.053192608058452606,-0.015615865588188171,3.5197391830191016,0.018131613731384277
1745972215175554800,5.967554931640625,-0.09652396934062886,0.04753364250063896,-0.07193282939411126,0.06331512331962585,0.14371498983756464,0.9716890327988111,0.2758330087902191,right,0.010912001132965088,-0.3653052650600804,-0.8827448116742074,-9.116919430866837,-0.17318235059572004,0.058603592216968536,-0.01698591560125351,3.5032734936475753,0.017618387937545776
1745972215215554800,6.007554931640625,-0.09289283533516669,-0.0017344951629638672,-0.07002959941654888,0.08886443078517914,0.1433162856977702,0.9720142062780551,0.2757022410959771,right,0.005310654640197754,-0.3632902453037604,-0.8502873340532183,-9.127074914178252,-0.17246604253291123,0.06842726469039917,-0.003667078912258148,3.4848099084571,0.010251939296722412
1745972215255554800,6.047554931640625,-0.08926422904678767,-0.0510026291012764,-0.06812606931411601,0.11441373825073242,0.14291696004907803,0.9723352885708803,0.2755638251367236,right,-0.00030666589736938477,-0.3612757859982964,-0.8177874055299907,-9.13707374562323,-0.17174899070394495,0.0782509371638298,0.009647443890571594,3.46633697091639,0.002886444330215454
1745972215295554800,6.087554931640625,-0.08661761680421105,-0.06855843961238861,-0.06644453888878238,0.08690769225358963,0.14143544582283038,0.9728615150549648,0.2730364050471011,right,-0.00339430570602417,-0.35846132544998105,-0.794443135625869,-9.148889271101355,-0.17065047034577494,0.07362367957830429,0.01794712245464325,3.4405046105235813,-0.007922828197479248
1745972215335554800,6.127554931640625,-0.08550220468293955,-0.04688388109207153,-0.06556016412367438,0.0010089650750160217,0.14025523148184987,0.9732773083771302,0.2708512117870497,right,-0.013329625129699707,-0.3559822090659237,-0.7849637980103492,-9.158239867770671,-0.16959239030424775,0.05386469513177872,0.015669919550418854,3.417727546048164,-0.014912605285644531
1745972215375554800,6.167554931640625,-0.08600475872134654,-0.0005381926894187927,-0.06563749179696271,-0.04345245286822319,0.13994008339547256,0.9734656480981309,0.2701482204675869,right,-0.009418189525604248,-0.35425875357631403,-0.7900710580214858,-9.163698717698454,-0.1687397039596474,0.024360010400414467,0.009835444390773773,3.401880865357816,-0.018324822187423706
1745972215415554800,6.207554931640625,-0.08722480716445587,0.03525436297059059,-0.066269470285085,-0.07209581881761551,0.14060497832523627,0.9734303377748231,0.2713215966432609,right,-0.00214385986328125,-0.3532893856474517,-0.801537477800995,-9.166009332728386,-0.1681426283668243,0.016822446137666702,0.0021598339080810547,3.392963107147813,-0.01094430685043335
1745972215455554800,6.247554931640625,-0.08868380255241819,0.03222993388772011,-0.06700782236987429,-0.027651652693748474,0.14148383268119416,0.9734192675617287,0.27290873793510273,right,0.0050719380378723145,-0.35162270028826903,-0.8154094974175095,-9.170449945524334,-0.16717391955111968,0.04213709384202957,0.0028128772974014282,3.377623206935823,-0.006273001432418823
1745972215495554800,6.287554931640625,-0.08881743478617324,0.05289608612656593,-0.06713895173617695,-0.015934251248836517,0.14240000808844497,0.97340973879328,0.2747971005240186,right,-0.002663135528564453,-0.35017894599155586,-0.8170666900400072,-9.175188664484024,-0.1663968992168918,0.01777791604399681,-0.001792900264263153,3.3643276720330118,-0.0015025734901428223
1745972215535554800,6.327554931640625,-0.0898212227775307,0.03670091927051544,-0.06775463991179533,-0.04721055552363396,0.1433191812026594,0.973275275530967,0.27651939548868176,right,-0.002184629440307617,-0.349927736867527,-0.826351966388151,-9.175205031096935,-0.166144591179154,0.021898364648222923,-0.0037335455417633057,3.3620135498717425,-0.003085881471633911
1745972215575554800,6.367554931640625,-0.09082536217434192,0.0205057505518198,-0.06837022965318663,-0.0784868597984314,0.14423817078624276,0.9731395584173619,0.2782418160509224,right,-0.0017077922821044922,-0.3496781241541282,-0.8356408229328691,-9.175206200140714,-0.1658920510402462,0.026018813252449036,-0.005673855543136597,3.3597140407577153,-0.004670649766921997
1745972215615554800,6.407554931640625,-0.09404171608531504,-0.020428115501999855,-0.06984920517471706,-0.09947166591882706,0.14476705598901324,0.9731720074701439,0.27882770812916957,right,0.007398426532745361,-0.3475877843937189,-0.8658047827892005,-9.179442814797163,-0.16461998108204803,0.08597557991743088,-0.007487401366233826,3.3404479070127007,-0.009233295917510986
1745972215655554800,6.447554931640625,-0.09922509670834785,-0.10120010375976562,-0.07177730854670948,-0.1443052589893341,0.14442008928233707,0.973749287163112,0.2774296310306245,right,0.011181950569152832,-0.3400838730210402,-0.9158308695223182,-9.19951646553278,-0.16063374636376257,0.29612722992897034,-0.005878075957298279,3.2711671577766537,-0.019421488046646118
1745972215695554800,6.487554931640625,-0.10671135744475871,-0.13712860643863678,-0.07405613170088651,-0.15175564587116241,0.1433701320665189,0.9752147937823299,0.27458815135768216,right,0.010855257511138916,-0.3220337767203437,-0.9908025969415902,-9.249611160522699,-0.15138283829172997,0.49230390787124634,0.010198503732681274,3.103770317703485,0.008330464363098145
1745972215735554800,6.527554931640625,-0.11233974182183118,-0.13541731238365173,-0.07549066098036732,-0.09471583366394043,0.1414954967812175,0.9765989247660722,0.27042781102510743,right,0.009949266910552979,-0.3060096997950552,-1.048288352030888,-9.292120514950156,-0.1432998423360842,0.29716330766677856,-0.004928804934024811,2.9543139157295224,0.007261782884597778
1745972215775554800,6.567554931640625,-0.11565026532010478,-0.06498398631811142,-0.07634708056350935,-0.0390019491314888,0.14026169574882855,0.9773824313908336,0.26776228345504227,right,-0.0028868913650512695,-0.29676450306957297,-1.0821499242961405,-9.3153324637115,-0.13864098958861965,0.16278791427612305,0.008360765874385834,2.867736286994815,0.005118578672409058
1745972215815554800,6.607554931640625,-0.11461221381874459,-0.04491559788584709,-0.07554747416624677,0.014119081199169159,0.13958150836255429,0.9777674732763837,0.2666490137321621,right,-0.007007956504821777,-0.293265184819036,-1.07362065394707,-9.326363560813665,-0.13704151810219878,0.10034579783678055,0.00436023622751236,2.834902231146395,0.007482647895812988
1745972215855554800,6.647554931640625,-0.11357115263862493,-0.024847207590937614,-0.07474757480559928,0.06724011152982712,0.13890085279252584,0.9781487358788099,0.2655332426995374,right,-0.011141479015350342,-0.28976694127062086,-1.0650281091034413,-9.337271908318996,-0.13544151147598987,0.03790367394685745,0.00035325437784194946,2.8020436253786087,0.009849190711975098
1745972215895554800,6.687554931640625,-0.11082527739901779,0.023485494777560234,-0.07341286735976697,0.04648180305957794,0.13880525167412727,0.9782428080369838,0.26572081810535947,right,-0.011994361877441406,-0.28969501160591365,-1.039407418699935,-9.34036169102788,-0.1355899441886197,-0.03390244394540787,-0.005160905420780182,2.801367625813186,0.008432567119598389
1745972215935554800,6.727554931640625,-0.10939418464139225,0.006799152120947838,-0.0729388213231058,0.021784532815217972,0.13896965953714913,0.9780243010511441,0.2661427826517651,right,-0.008211612701416016,-0.2928980229420286,-1.025054556763917,-9.332872212055324,-0.1372437609896358,-0.10134124010801315,0.0014346763491630554,2.8314553055629132,0.008085191249847412
1745972215975554800,6.767554931640625,-0.10942599933014081,0.013255228288471699,-0.07316547152388918,-0.018352050334215164,0.1389553751879585,0.9777589207821591,0.26598292383513306,right,-0.00603562593460083,-0.29650841446824877,-1.0242284081380815,-9.322617360022663,-0.1390165285828283,-0.06146678701043129,0.0022080689668655396,2.8653347788110373,-0.002318769693374634
1745972216015554800,6.807554931640625,-0.10972855499312632,0.005591389257460833,-0.07345968937588891,-0.01014587190002203,0.1392295375323134,0.9775728458208682,0.2664356526065381,right,-0.004606962203979492,-0.29837417819548123,-1.0264617201481014,-9.316977308309077,-0.1398929470516517,-0.031090449541807175,0.008061923086643219,2.8828280576646326,0.004965424537658691
1745972216055554800,6.847554931640625,-0.11011703964070041,0.006758039817214012,-0.07366982720820883,-0.024296849966049194,0.13928121711423644,0.9775339207802057,0.2664758887904583,right,-0.003817737102508545,-0.29865770234561945,-1.0299912825137376,-9.315765009909867,-0.14000329946325762,0.012970637530088425,0.002997681498527527,2.8854855864360927,-0.0020090043544769287
1745972216095554800,6.887554931640625,-0.11043177972817213,0.017783362418413162,-0.07383052943178912,-0.015762602910399437,0.1395337594696134,0.9775224845673309,0.26696304544689614,right,-0.005986511707305908,-0.2982160626303421,-1.0330636756964027,-9.316706090152262,-0.1397470536525474,0.008675088174641132,0.005224049091339111,2.8813460024133324,-0.003779858350753784
1745972216135554800,6.927554931640625,-0.11020129542460208,0.039286624640226364,-0.07391709263702832,-0.019580403342843056,0.14056364333370092,0.9773188931744797,0.26907429288071966,right,-0.004749596118927002,-0.2990481116068846,-1.0306522306405008,-9.314557972207664,-0.14009275243730895,-0.027056802064180374,0.006832480430603027,2.889144401204586,0.0041970908641815186
1745972216175554800,6.967554931640625,-0.10996888876444129,0.060789886862039566,-0.07400356223023721,-0.023398205637931824,0.14159337600660074,0.9771139978616442,0.2711863005967852,right,-0.003513038158416748,-0.2998796404527731,-1.0282233960583806,-9.312405762609838,-0.1404382665835552,-0.06278868019580841,0.008439123630523682,2.8969360779941082,0.01217469573020935
1745972216215555000,7.00755517578125,-0.1098478332789618,0.0580102801322937,-0.07431453072017948,-0.034900881350040436,0.14279773775675936,0.9766988294873338,0.2735592651673425,right,-0.009972751140594482,-0.30309915877333304,-1.0260683369163424,-9.303211233285069,-0.1419350674289177,-0.0879569798707962,0.0005184561014175415,2.9270848402813074,0.005705088376998901
1745972216255554800,7.047554931640625,-0.1121450330332029,0.012381862848997116,-0.07571232536139101,-0.0926336795091629,0.14371877127516455,0.9762938743563525,0.2750167307545717,right,-0.0035143494606018066,-0.30582212316633145,-1.0465410699721425,-9.29287513270974,-0.1430484692722345,-0.03977305442094803,0.0021187737584114075,2.952559765538573,0.007161945104598999
1745972216295554800,7.087554931640625,-0.11614466142093233,-0.026030540466308594,-0.0776624489197995,-0.0907791405916214,0.14376236299388456,0.9761339948898404,0.2745002130120591,right,0.002738058567047119,-0.3063725464664927,-1.0835121525600553,-9.286999518674612,-0.1430501438945133,0.018874216824769974,0.0020594224333763123,2.9577067730382085,-0.003302454948425293
1745972216335554800,7.127554931640625,-0.1194803681898366,-0.024705298244953156,-0.07916046731394877,-0.08121757209300995,0.1434591942529088,0.9761475712790747,0.27342317747549455,right,-0.0019405484199523926,-0.30552744392185543,-1.1147823200926184,-9.285811770194769,-0.14243934455199087,0.005248554050922394,-0.014670409262180328,2.9498037448287007,0.0006642341613769531
1745972216375554800,7.167554931640625,-0.12290718689140263,-0.015040980651974678,-0.08079744381737342,-0.05658480525016785,0.14331595048213122,0.9760404328720719,0.2726157353310426,right,0.01483231782913208,-0.3058793963652928,-1.146469178667292,-9.28090646249652,-0.1423981703287893,-0.008015038445591927,-0.006379462778568268,2.953095187589526,-0.005594730377197266
1745972216415554800,7.207554931640625,-0.12366957969526554,-0.01892688311636448,-0.08114805250844483,0.049295783042907715,0.14299084840578874,0.9760213936889504,0.2718149865966229,right,0.02717047929763794,-0.3064513044567301,-1.1533359956968574,-9.278352101838589,-0.14265584999289022,-0.020002242177724838,0.0026122257113456726,2.9584429783582684,-0.005433857440948486
1745972216455554800,7.247554931640625,-0.12006407698730527,-0.033713001757860184,-0.079363344958417,0.16885590553283691,0.14220299925787147,0.9761753280570125,0.2706935255435709,right,0.026878535747528076,-0.3073399249473354,-1.1195601289536803,-9.279836202916503,-0.14339271949846166,-0.03744807094335556,0.012555532157421112,2.9667502034544944,-0.005025267601013184
1745972216495554800,7.287554931640625,-0.1123714219429486,-0.049298252910375595,-0.07552465200504184,0.20452454686164856,0.1405744745605717,0.976530818351759,0.2684450836869428,right,-0.00827634334564209,-0.30861018852570615,-1.0477177125360817,-9.284421777141093,-0.14464525659195537,-0.00410890206694603,0.0004337131977081299,2.978621258512139,-0.015256941318511963
1745972216535554800,7.327554931640625,-0.10659673452744552,-0.020160311833024025,-0.0725337069426245,0.11063572764396667,0.1393047315506125,0.9769248309585276,0.2667261427897189,right,-0.03210407495498657,-0.3078571135138274,-0.9943242682617157,-9.292544877842069,-0.14474430823602513,0.02307114191353321,0.005355618894100189,2.9715841994822023,-0.01612722873687744
1745972216575554800,7.367554931640625,-0.1055585647086285,0.03453325480222702,-0.07199591340139798,-0.06028097867965698,0.139366231507867,0.977008901844303,0.26703339009050137,right,-0.04076230525970459,-0.30699902861095413,-0.9849448108240961,-9.29610461615026,-0.14438545159776073,-0.002986246719956398,0.006178081035614014,2.9635636823728677,-0.0007376968860626221
1745972216615554800,7.407554931640625,-0.10886100067609049,0.06071881204843521,-0.07376363893668295,-0.1263030469417572,0.1405757509460967,0.9767349339064002,0.26901576241842706,right,-0.017523586750030518,-0.3071881078253453,-1.0155782878883182,-9.29224384906888,-0.14417464093993437,-0.003460764419287443,0.007372826337814331,2.96533127656728,-0.007765591144561768
1745972216655554800,7.447554931640625,-0.11330022777451189,0.05798555538058281,-0.07612221979874415,-0.13816608488559723,0.14223684725547905,0.9763829552920192,0.27176727070379897,right,0.003009617328643799,-0.3070751670626661,-1.0568563469551504,-9.287976839274167,-0.14370240097246628,0.00545352092012763,0.00553247332572937,2.9642753377735613,-0.0016669631004333496
1745972216695554800,7.487554931640625,-0.1172985220430075,0.019783075898885727,-0.07823839941607307,-0.09600669145584106,0.14344049534991796,0.9760564477437037,0.27362680507996595,right,0.00798642635345459,-0.3075698856632344,-1.0938120858434588,-9.282219298660754,-0.14358716118197049,-0.037761908024549484,0.001998528838157654,2.968899490442872,0.007768064737319946
1745972216858594000,7.650593994140625,-0.12216032494021307,0.0017693525878712535,-0.08069026742050614,0.06889241188764572,0.14173504676434542,0.9756582197578819,0.2691577342343243,right,0.0072185383178293705,-0.3140715153631581,-1.1365510843083262,-9.257436739581824,-0.14659860109539247,-0.02478240244090557,-0.003929654136300087,3.0296035499915477,-0.006416337098926306
1745972216898510000,7.690510009765625,-0.11857924652162968,0.04619410261511803,-0.07904291909838353,0.08835825324058533,0.1419390896837097,0.9756940777515682,0.2700955187596371,right,-0.002049589529633522,-0.314571584444417,-1.103212951395288,-9.25994200040102,-0.1470596949532976,0.007565968204289675,0.0007785699563100934,3.034267450149357,-0.0033771987073123455
1745972217098093300,7.89009326171875,-0.11869101985986646,-0.051495470106601715,-0.07909733650920757,-0.06122821941971779,0.14314052561292662,0.975751649513064,0.2726556946472745,right,0.006139837205410004,-0.31155528948419375,-1.105326655613631,-9.268864142525196,-0.14547521019958637,-0.009181851521134377,-0.00015054020332172513,3.0061253515094517,0.0035811264533549547
1745972217297676500,8.089676513671876,-0.12663246175751885,0.05286518484354019,-0.0822876687555655,-0.10268563777208328,0.14183328885890945,0.976239304265516,0.2690878944938086,right,0.008687816560268402,-0.30462827678297466,-1.1815007445599883,-9.280229001626372,-0.14166420303909127,0.08081883937120438,0.006864061113446951,2.941393351618945,-0.013008872978389263
1745972217337676500,8.129676513671875,-0.12637323491501307,0.04783640801906586,-0.08237619710580484,-0.05483086779713631,0.14317397369437654,0.9760285562903883,0.2718596056058602,right,0.006406426429748535,-0.30493104288559303,-1.178982770389691,-9.279650909477471,-0.14171672704864732,-0.020661331713199615,-0.0017344728112220764,2.9442256524354216,0.010021567344665527
1745972217377676800,8.1696767578125,-0.1266872893535082,0.0006376542150974274,-0.08277728503830255,-0.049868274480104446,0.14373562978886684,0.975717170373198,0.2728440608346754,right,0.0056504011154174805,-0.3077903762301833,-1.1808284713216126,-9.270891264438628,-0.14305247085449246,-0.07576869428157806,-0.00569046288728714,2.970960222364962,0.012873023748397827
1745972217417676800,8.2096767578125,-0.12797785354248278,-0.021697521209716797,-0.08360629538173836,-0.015247240662574768,0.1432990795662064,0.9753758821041559,0.2715585667188841,right,0.008837282657623291,-0.3125011509823887,-1.1909927224613726,-9.255375715398788,-0.14531741284103677,-0.10331633687019348,-0.002573952078819275,3.0149530933484434,-0.0022880136966705322
1745972217457676500,8.249676513671876,-0.12813758142000212,-0.014039039611816406,-0.08384795923257407,0.020770642906427383,0.14270102599144596,0.9751149081226422,0.27012223485272724,right,0.0040624141693115234,-0.3168693281969798,-1.1907767416231334,-9.242035172310471,-0.14750205198797237,-0.07608216255903244,-0.0010735094547271729,3.0556866702750325,-0.016072005033493042
1745972217497676500,8.289676513671875,-0.12729859833538856,0.005233939737081528,-0.08355670535451441,0.03680891916155815,0.1424386207676588,0.9749764992709169,0.26960384070701515,right,-0.0026010870933532715,-0.31941826881724095,-1.1820297368701547,-9.235275176656245,-0.1488296918244762,-0.05716007202863693,0.0015707015991210938,3.079428780390322,-0.013504356145858765
1745972217537676500,8.329676513671876,-0.12625073876059625,0.026946499943733215,-0.08314202651526811,0.0071167852729558945,0.142550052668588,0.9749001026469318,0.2699446763593309,right,-0.01394742727279663,-0.32057270107599417,-1.171903406587988,-9.232975667542219,-0.14945445991659698,-0.008948050439357758,0.005810968577861786,3.0901752153322097,-0.01563999056816101
1745972217577676500,8.369676513671875,-0.12805797488209092,0.019267112016677856,-0.08414486526107673,-0.05721048265695572,0.14345948683625148,0.9747063442779352,0.2715312607250371,right,-0.007818520069122314,-0.32062954926906884,-1.188565203053504,-9.230668559643625,-0.1492866708172001,-0.01302273292094469,0.0043687522411346436,3.090704499903321,-0.00802689790725708
1745972217617676800,8.4096767578125,-0.12986514886832953,0.011587725952267647,-0.08514754702923383,-0.12153775990009308,0.1443686457079701,0.974510705132002,0.273117748845487,right,-0.0016934871673583984,-0.32068911884355245,-1.2052208620391784,-9.228322873300314,-0.149118602933756,-0.017097415402531624,0.0029259324073791504,3.0912589189156887,-0.0004163980484008789
1745972217657676800,8.4496767578125,-0.1333836225250522,0.003100988455116749,-0.08695595075478546,-0.09150542318820953,0.14494764867171128,0.9742496917709409,0.27373346221699096,right,0.019314706325531006,-0.3214694946335977,-1.23736167492643,-9.221631851229072,-0.14921893128798344,-0.03637086600065231,0.0010946989059448242,3.0985204343512653,-0.006235629320144653
1745972217697676500,8.489676513671874,-0.13503903151121446,0.010525807738304138,-0.08787017967005788,-0.02030637115240097,0.14540309100208523,0.9740495776952228,0.2743709788206012,right,0.022136330604553223,-0.3224431513603124,-1.2522189061880111,-9.216576905927061,-0.14954657365478344,-0.024784894660115242,-0.0031852424144744873,3.1075781855538485,-0.0028723180294036865
1745972217856569900,8.64856982421875,-0.12672979976031948,0.02402239665389061,-0.08439032892869203,-0.018268097192049026,0.14609780384314325,0.9737130148793548,0.27682723252116315,right,-0.0177335012704134,-0.3285420773491791,-1.1731764952637254,-9.207691004160045,-0.15302503917546673,-0.05029967799782753,0.01639070361852646,3.1642478750199077,0.01058755163103342
1745972217896569900,8.68856982421875,-0.1278802166843954,0.03554292395710945,-0.08508689773185826,-0.03684878349304199,0.1467678732455745,0.9735147950091998,0.2779921520422746,right,-0.006863117218017578,-0.3292945783451775,-1.1834644458483905,-9.20397110685408,-0.15325886394179564,-0.009741738438606262,0.006037600338459015,3.171231742557883,0.00018978118896484375
1745972217936569600,8.728569580078124,-0.12936892746725345,0.005453011021018028,-0.08591071040401194,-0.04696950688958168,0.14746670833635422,0.9733528941390659,0.27918872313540505,right,0.0013766288757324219,-0.3294144962650851,-1.197116100712493,-9.201821819865703,-0.1531567451048322,-0.016224391758441925,0.0013337209820747375,3.1723443799749016,0.0075616538524627686
1745972218096081200,8.8880810546875,-0.13297554248684848,0.009252622723579407,-0.0879096198918573,-0.02054600790143013,0.14551665156429855,0.9726823619748821,0.27417449349876044,right,-0.000040837039705365896,-0.3395748033730228,-1.225958821902424,-9.165023244300484,-0.1580688572500043,-0.03536701202392578,0.009313676506280899,3.2664602952599524,0.00019522974616847932
1745972218136081200,8.9280810546875,-0.1339051705762904,0.02581050619482994,-0.0887287707449589,-0.040770649909973145,0.14724005273295607,0.9722500705337396,0.27749519299639525,right,0.004680931568145752,-0.3412551603622241,-1.2337437766902148,-9.15842691477537,-0.15867382734620333,-0.06968739628791809,0.007306098937988281,3.2819933799564835,-0.0038853585720062256
1745972218176081200,8.9680810546875,-0.13482937178828094,0.042368389666080475,-0.08954752732764727,-0.06099529191851616,0.14896281466346784,0.9718136054980413,0.2808161530536074,right,0.009399175643920898,-0.3429383437911418,-1.2414631188958882,-9.151795513936877,-0.15927811704187808,-0.1040077805519104,0.005291849374771118,3.297543415787816,-0.007967710494995117
1745972218216081200,9.0080810546875,-0.1362626254230973,0.04091176018118858,-0.09056944540103903,-0.06208939477801323,0.1506218888875015,0.971407741796305,0.283944020995808,right,0.007313966751098633,-0.3441408720985265,-1.254039107352495,-9.146071875593066,-0.15961606703889739,-0.07448134571313858,0.0009284615516662598,3.3086469936043024,0.011905908584594727
1745972218256081200,9.0480810546875,-0.13822182964736618,0.02377592958509922,-0.09166038677272796,-0.05837367847561836,0.1513658734509443,0.9711659424651762,0.2851226835922776,right,0.002642810344696045,-0.34485097479029975,-1.271631754927337,-9.141267690181731,-0.15976050381726373,-0.027687806636095047,-0.0004755556583404541,3.3152015298143027,0.009022444486618042
1745972218296081400,9.088081298828126,-0.1401806461574377,0.006640098989009857,-0.0927511626920194,-0.054657962173223495,0.1521096181769438,0.9709224271733816,0.2863002609676592,right,-0.0020328760147094727,-0.3455632717192619,-1.2892051132798195,-9.136418496584891,-0.1599046474681321,0.019105732440948486,-0.001881524920463562,3.3217747707247733,0.006137043237686157
1745972218336081200,9.1280810546875,-0.14137757446951313,0.013980856165289879,-0.09338001590383621,-0.016734100878238678,0.15261730464490722,0.9708304913207976,0.2871641007869275,right,-0.002541840076446533,-0.3452332779329687,-1.300294224179536,-9.135953801682591,-0.15961251231846987,0.00993204116821289,0.0006563961505889893,3.318729703940451,0.0006470382213592529
1745972218376081200,9.1680810546875,-0.14132973894057213,0.01660865731537342,-0.09342179294928103,-0.011176245287060738,0.15317520214432037,0.9707829785251301,0.28834178936991195,right,-0.00511401891708374,-0.3447848202940217,-1.3000666990339755,-9.137488756164908,-0.15934270165673553,0.0117383087053895,-0.0010058730840682983,3.314590996700525,0.0039185285568237305
1745972218575108000,9.367108154296876,-0.14438879455063355,0.06022785231471062,-0.09471183661230524,0.032622601836919785,0.1528240593960351,0.9708709392529871,0.2871925501903714,right,0.00647764652967453,-0.3431766935020505,-1.328777829733491,-9.13873203422427,-0.15837931692610097,-0.011068827472627163,-0.007796892896294594,3.299744432963431,-0.007705398369580507
1745972218615026400,9.4070263671875,-0.14083980548403424,0.09024883806705475,-0.09337639248302823,0.07707075029611588,0.15416273971802968,0.9706097944206015,0.29043930775337556,right,0.0049020955339074135,-0.34517336559280626,-1.2954087902255356,-9.136848704695701,-0.15947165537969335,-0.04791194945573807,-0.011509880423545837,3.3181767462328073,-0.006758035160601139
1745972218655026400,9.4470263671875,-0.13831323973191367,0.03527814894914627,-0.09231270606925104,0.05475067347288132,0.1549154707674176,0.9705673564154577,0.2924017033035544,right,-0.0012647509574890137,-0.34526348213547764,-1.2722786745287478,-9.139795864063501,-0.1596196736838528,-0.034141458570957184,-0.007938012480735779,3.3190085208818316,0.007569223642349243
1745972218695026400,9.4870263671875,-0.13725824197063832,-0.011657573282718658,-0.09183179662206638,0.028804603964090347,0.15490803796140162,0.9705780950765677,0.29254717231307503,right,-0.0036710500717163086,-0.34555923176447767,-1.2625010846190154,-9.140160605722665,-0.1598387282393386,-0.02354631945490837,-0.004076555371284485,3.3217373613238332,0.008848398923873901
1745972218735026400,9.5270263671875,-0.13741973184014294,-0.01882200315594673,-0.09176535690473377,0.01949240267276764,0.15426945468881004,0.9707266885128677,0.2912309718258788,right,-0.0207064151763916,-0.3449542924352992,-1.2642521660700439,-9.141945151051878,-0.1595920268577477,-0.0016180630773305893,-0.005675002932548523,3.3161551772773263,0.0012736618518829346
1745972218775026400,9.5670263671875,-0.13758033827500413,-0.025986433029174805,-0.09169886633895183,0.010180201381444931,0.15363076504071208,0.9708747875003513,0.289915093459015,right,-0.03774195909500122,-0.3443491268295423,-1.2659953564755617,-9.143728527337313,-0.15934523941548384,0.020310189574956894,-0.0072742849588394165,3.310569486099481,-0.0063006579875946045
1745972218815026400,9.6070263671875,-0.13864936000339065,-0.011512454599142075,-0.09192858077384738,0.015947123989462852,0.1538794058084574,0.9712369731670702,0.2904784261672041,right,-0.005053997039794922,-0.3392342227184087,-1.2780930598959326,-9.159020789015292,-0.1567450745620185,0.09804004430770874,0.0021097958087921143,3.263310891318321,-0.004345715045928955
1745972218855026400,9.6470263671875,-0.1397194788635791,0.0029615238308906555,-0.09215763822134782,0.021714048460125923,0.1541269370203504,0.9715921979727998,0.2910464265633078,right,0.027607738971710205,-0.3341197718645256,-1.2902011385798453,-9.17405527653992,-0.15414378466122058,0.17576992511749268,0.011494934558868408,3.215971340255439,-0.002382516860961914
1745972219054144800,9.846144775390625,-0.13235739958087112,-0.04956113174557686,-0.08730299930611027,0.05610601231455803,0.15169482647091184,0.9735085362574998,0.2878845069079068,right,-0.042365022003650665,-0.3183032752880093,-1.2291862595163285,-9.232575270047784,-0.14713208979132805,-0.1418793648481369,-0.0011570482747629285,3.0690456258028744,-0.0025120475329458714
1745972219253740000,10.045739990234376,-0.13083715852507533,0.01986265368759632,-0.0876072708432314,0.027132509276270866,0.15609418170312747,0.9724103526099371,0.2969233154036572,right,0.028615659102797508,-0.323913290107917,-1.2128836517520247,-9.217217541918158,-0.1495915817901309,-0.0015056002885103226,0.008329513482749462,3.1212489835098385,-0.010363353416323662
1745972219293660000,10.085659912109374,-0.12712792001374867,0.06517963856458664,-0.08593971927564843,0.09859061241149902,0.15634626003152916,0.9724182006982532,0.2979800800081304,right,-0.019950902089476585,-0.32474923397445443,-1.1783553592063485,-9.219061708480119,-0.15024319249164114,-0.0009616655297577381,-0.01271100714802742,3.129019325250387,-0.037698451429605484
1745972219453335600,10.24533544921875,-0.13007378063968583,-0.0754547044634819,-0.08765605837684665,0.015635307878255844,0.1553839325789438,0.971881567324619,0.29525073618691317,right,0.011791346594691277,-0.3320304449458239,-1.2025211746264248,-9.192715553346275,-0.15368259359799763,0.09456879645586014,0.007686748169362545,3.1966078836157914,-0.007643061690032482
1745972219493255200,10.285255126953125,-0.12804734351527475,-0.03297916427254677,-0.08641631773871865,0.09893672168254852,0.15418460711505183,0.9722530152241201,0.29315938624030413,right,-0.003131862496957183,-0.33061952264443095,-1.1844650011930613,-9.199597714075445,-0.15324248120749992,-0.017782514914870262,0.005431751720607281,3.183523945637047,0.004000076558440924
1745972219652934000,10.444933837890625,-0.13059454551798716,-0.06440174579620361,-0.08685424060907841,0.03921358659863472,0.14919293288308494,0.9729283157389177,0.2824813691227823,right,0.024824170395731926,-0.33090248737512934,-1.2077770493280142,-9.195657452017068,-0.15364986555038923,0.2700376808643341,0.008931772783398628,3.1861487411826848,-0.020348483696579933
1745972219812610300,10.6046103515625,-0.13230498413682645,0.005315323360264301,-0.08595558373268677,0.01939413882791996,0.14869667780324886,0.9750812664094078,0.2823615596389328,right,-0.00017487048171460629,-0.30406540948797905,-1.234342034844309,-9.275016819936036,-0.14041853629764453,0.03197360411286354,-0.011943252757191658,2.936127101653814,-0.0018000786658376455
1745972219852529200,10.644529052734375,-0.13154051689031857,0.0261656753718853,-0.08565438260205857,0.04795442894101143,0.1490792854917312,0.9750367608742266,0.28325024710177643,right,0.015420221723616123,-0.3042062113274173,-1.2271969853952527,-9.275548150333762,-0.14050615856485865,-0.02198384888470173,-0.007179897744208574,2.9374446139931676,-0.02061474695801735
1745972220012155000,10.80415478515625,-0.12324631698847678,0.00919871125370264,-0.08237088836167002,-0.023805413395166397,0.1497705667421164,0.9744774479071926,0.28550341720390643,right,-0.019574366509914398,-0.31339968985307015,-1.1468538671359418,-9.258214738216996,-0.1455246796160415,0.011597994714975357,0.0046199895441532135,3.023336890812218,-0.014446881599724293
1745972220052155000,10.84415478515625,-0.12500214864804754,0.01886197179555893,-0.0832866804419374,-0.04098215326666832,0.15019064399764837,0.9743387881392039,0.2860929054617874,right,-0.013525545597076416,-0.3136665763870387,-1.1630073487531394,-9.255386236792802,-0.14549899118167794,-0.009239448234438896,0.0024950355291366577,3.0258263695403933,-0.00969269871711731
1745972220092154600,10.884154541015626,-0.1266928171200877,0.04252706468105316,-0.08423290848028818,-0.045366063714027405,0.15089004970443948,0.9741330497573382,0.2872526428729369,right,-0.004080057144165039,-0.3142505862392548,-1.1784299588125198,-9.251652310961484,-0.14560846127772242,-0.015749413520097733,0.0014654099941253662,3.0312738212913275,-0.002569735050201416
1745972220132155000,10.92415478515625,-0.12840648528028234,0.04660753533244133,-0.08528238320724514,-0.05382387340068817,0.15177387578985432,0.973815251562613,0.28874485551986967,right,0.0003072023391723633,-0.3158633532276914,-1.19365492740795,-9.244758459794522,-0.14620327246574497,-0.04439961165189743,-0.0025689899921417236,3.0463109391644596,-0.0027484893798828125
1745972220291575600,11.083575439453124,-0.1294039709763169,-0.05792998522520065,-0.08616564445098436,0.038137760013341904,0.1524727241820533,0.9732909120270153,0.28983100090308034,right,-0.005761353764683008,-0.32067974792033943,-1.2009685383569448,-9.22890622614622,-0.1484324491489754,-0.09976223856210709,0.00011750706471502781,3.091171532893181,0.0029588274192065
1745972220331493600,11.12349365234375,-0.12875469391382488,-0.061818577349185944,-0.08576458279915918,0.0294943880289793,0.1511414242019248,0.9733759549344894,0.2871217520269065,right,-0.008003839291632175,-0.32245635725301675,-1.1942691868487745,-9.224223621287942,-0.14946542839968177,-0.007852163165807724,0.010250159539282322,3.107701227411628,0.0027023176662623882
1745972220371493600,11.16349365234375,-0.12887143411509921,-0.02640402689576149,-0.08572832176000092,0.008583586663007736,0.15065339123604296,0.9734698705560474,0.286112267521065,right,-0.007688403129577637,-0.32218571952476366,-1.1954540857844054,-9.224918033292889,-0.1493677688188666,-0.00041808048263192177,0.007788345217704773,3.1051836916327473,-0.005414098501205444
1745972220411493600,11.20349365234375,-0.1289878612571647,0.009010523557662964,-0.08569202682187628,-0.012327216565608978,0.15016523728446354,0.9735634242056187,0.28510270071916066,right,-0.0073729753494262695,-0.3219148779221615,-1.1966362082410602,-9.225612445297836,-0.14927005186427103,0.007016001734882593,0.005326271057128906,3.1026641100272534,-0.013530343770980835
1745972220571000300,11.363000244140625,-0.13247928590503982,0.018674595281481743,-0.08777007352430034,-0.025200512260198593,0.15225845313698178,0.9730003117928626,0.28880189223457514,right,0.005641200579702854,-0.3234874805950391,-1.2281933029562233,-9.216530144175886,-0.14961331783002363,-0.04055267944931984,-0.007205607369542122,3.1172900167509914,-0.006779067683964968
1745972220730670300,11.52267041015625,-0.12650176995403822,-0.019636468961834908,-0.08475371086120595,0.06672541797161102,0.15080239551813046,0.9733531003391531,0.286699813600749,right,-0.0072256834246218204,-0.32425088867800594,-1.172779166509211,-9.221343681937455,-0.15052948158592197,0.05155585706233978,0.0056777894496917725,3.1243872815355656,0.0011759611079469323
1745972220890339000,11.682339111328124,-0.12508372605571672,0.012572579085826874,-0.08375853728487404,-0.06720401346683502,0.15064668766428624,0.9738042173848382,0.2867861202232094,right,-0.0038798991590738297,-0.3194899579694948,-1.16154436352849,-9.237651258137822,-0.14830829041050778,0.003716519568115473,0.0033126482740044594,3.080096304388344,-0.0025293605867773294
1745972220930260700,11.7222607421875,-0.12810470678040034,0.006846455857157707,-0.0852727975994388,-0.09869809448719025,0.15125117608949754,0.9736360146121558,0.2875774581853815,right,-0.0032995878718793392,-0.319258857986395,-1.1895366784341632,-9.234805805578826,-0.14793399682377997,-0.0034304442815482616,-0.008259636349976063,3.0779446793124077,0.007440374232828617
1745972220970260700,11.7622607421875,-0.1301936770968135,-0.05730641633272171,-0.08610275385210382,-0.013363122940063477,0.1496266598816733,0.973712963356428,0.2838662511140135,right,0.009854793548583984,-0.32061306427566144,-1.2082830991540103,-9.228159791693091,-0.14859713270150454,-0.005910912528634071,-0.010662674903869629,3.0905510629072785,0.008802860975265503
1745972221010260700,11.8022607421875,-0.1322888808876031,-0.12145928293466568,-0.08693238806460216,0.0719718262553215,0.14800157847176806,0.9737862830236556,0.28015041312825023,right,0.023005127906799316,-0.32195994459535815,-1.2270650295786558,-9.221473445796965,-0.14925972352830616,-0.008391380310058594,-0.013062074780464172,3.1030835044831035,0.010172843933105469
1745972221169765400,11.961765380859376,-0.1141226167612417,-0.01551617868244648,-0.07623296497689155,0.1252443641424179,0.13732755474348843,0.9764634889062266,0.2613119403724064,right,-0.03605055809020996,-0.31477852073124446,-1.0618624846793712,-9.264142959222196,-0.14781305797975416,0.07860829681158066,0.011373767629265785,3.0361969569072125,-0.02745823562145233
1745972221329436000,12.121435791015625,-0.1174737421155998,0.10596391558647156,-0.07977912252000546,-0.11945085227489471,0.14619722330752163,0.974282938922674,0.2786246753860673,right,0.010885892435908318,-0.32474001968856575,-1.0893027186602353,-9.230036691480874,-0.15177081540816686,-0.20489342510700226,0.006919153034687042,3.128933692793548,-0.015177321620285511
1745972221369352700,12.161352783203125,-0.1203745503776976,0.05674860253930092,-0.08179978823061962,-0.08610332012176514,0.14785458302874868,0.9734354681294205,0.2813452614138687,right,0.007552611641585827,-0.3309967175465196,-1.1137000047486274,-9.207222217604517,-0.15450272101722365,-0.11385748535394669,0.006225056946277618,3.187022601407766,-0.002301341388374567
1745972221568945400,12.3609453125,-0.12583956612859223,-0.04135483503341675,-0.084638035000495,0.039684683084487915,0.14798990269550671,0.972944289758716,0.28061161203981067,right,0.003878112882375717,-0.334690667014052,-1.1625151813220231,-9.18925635280311,-0.15593177890750357,-0.007771251257508993,-0.002875614445656538,3.221259509791434,0.0012192667927592993
1745972221728615700,12.52061572265625,-0.12406989537007006,-0.015742039307951927,-0.08367436389853478,-0.0046569835394620895,0.1464794101766169,0.9730618916089608,0.2777154950867929,right,-0.003968308679759502,-0.3366491250945939,-1.1454685502573847,-9.185020907190442,-0.15713955738187166,-0.005295946728438139,0.006023036781698465,3.2393937168970703,0.004926406778395176
1745972221888286500,12.680286376953125,-0.13110261051205643,-0.05540304258465767,-0.08632603451612575,-0.01175861805677414,0.1415987501456274,0.9734087711123343,0.2664707541609961,right,-0.0015208334662020206,-0.33852829037869403,-1.2092374042041598,-9.170687261411548,-0.15802813901021606,-0.0180179663002491,0.0011421645758673549,3.256781781810522,-0.0010727985063567758
1745972221928203300,12.720203369140625,-0.13197791723103933,-0.016173455864191055,-0.08666982716279376,-0.007866681553423405,0.14090274923865415,0.9734185263975464,0.2648661847279688,right,0.00014848605496808887,-0.33927798941940757,-1.216942425623536,-9.167202341905236,-0.15840169681584418,-0.010555099695920944,0.0008336617611348629,3.263715672726929,-0.005545647349208593
1745972221968203300,12.760203369140624,-0.13195076535726055,-0.01578676886856556,-0.08660515018699522,-0.013828495517373085,0.14109582789132538,0.9735168402535198,0.26533158467271417,right,0.00012052059173583984,-0.3377948265314495,-1.2173290868535638,-9.17202347845137,-0.15765936550255652,0.02841947227716446,0.0018844157457351685,3.2499963594540953,-0.0034939348697662354
1745972222008203500,12.80020361328125,-0.13192435955004073,-0.015400081872940063,-0.08654041388800579,-0.01979030855000019,0.14128878243923923,0.9736145772525406,0.2657966211004317,right,0.00009036064147949219,-0.336311634355703,-1.2177196205411105,-9.176824156731367,-0.15691693378515034,0.06739404797554016,0.002935566008090973,3.23626973965764,-0.0014414191246032715
1745972222048203500,12.84020361328125,-0.13240695549566697,-0.018249869346618652,-0.08661619675399186,-0.017028408125042915,0.1413331019243712,0.9738306001444477,0.26593435138470295,right,0.0017123222351074219,-0.3334673701929535,-1.2233584301456808,-9.18532252048552,-0.15548796748889213,0.08650586009025574,0.003853119909763336,3.2099265071332455,0.0008069276809692383
1745972222207646700,12.999646728515625,-0.13368286350772132,0.002320749219506979,-0.08699282990647196,-0.020775845274329185,0.14078732218143516,0.9740785165443874,0.2647228736017592,right,-0.0016764645697548985,-0.3309368917430118,-1.2361558062680065,-9.19177505762577,-0.15421459618634342,-0.04481293261051178,0.002056638477370143,3.186467597873509,-0.0007675272063352168
1745972222367320000,13.159320068359374,-0.13518880267247946,0.014882780611515045,-0.08779000090047706,0.0008577762637287378,0.14091588935917607,0.9739194537442569,0.264698242596114,right,0.004086675122380257,-0.3320418436946757,-1.2495213376671075,-9.186408562156558,-0.15464934440588898,-0.006096426397562027,0.0015020975843071938,3.196713682077825,-0.002416260540485382
1745972222407238000,13.19923779296875,-0.13500215802683854,0.023367393761873245,-0.08777751419341387,-0.004585287533700466,0.14122295520884923,0.9738406308187855,0.26533638026675127,right,-0.004304169211536646,-0.3325299124821735,-1.2475965070843695,-9.185094556948542,-0.15487287329544572,-0.004921179264783859,-0.0036946400068700314,3.201238173764944,-0.0004986824933439493
1745972222566914800,13.358914794921875,-0.13807014789847072,-0.003555251518264413,-0.08960695192265596,-0.06561961770057678,0.1443846884229752,0.9734609019533074,0.2714482052438078,right,-0.009837310761213303,-0.3302891552999449,-1.2767545047685502,-9.188305335688591,-0.15328855208016257,0.017128735780715942,-0.004006793722510338,3.1804595896303653,0.013235651887953281
1745972222726587600,13.518587646484375,-0.1394890643377288,0.0270986445248127,-0.09038497499851432,0.02151142992079258,0.14421009642444121,0.9732477289006936,0.2707571083351301,right,0.0010539399227127433,-0.33260141417358424,-1.2887646760359406,-9.179177441859245,-0.15434617327253974,0.007859505712985992,0.0016012571286410093,3.2019010215878483,0.0019886125810444355
1745972222766505500,13.55850537109375,-0.13853400179894573,0.02534879557788372,-0.09005171310541223,0.01494268886744976,0.14465555771959554,0.9731424943110407,0.2717842024887814,right,-0.006291896104812622,-0.3334580150248941,-1.2796182236365974,-9.177684572952986,-0.15478696762220115,-0.042388830333948135,0.00019094627350568771,3.2098397056326267,-0.0006556668085977435
1745972222926178800,13.7181787109375,-0.13704819970418625,0.010517964139580727,-0.08969577251938168,0.004164997022598982,0.1454785779683236,0.9727542714664515,0.2735413072046807,right,-0.0005287562380544841,-0.337220259333805,-1.2643217241749167,-9.16754779434204,-0.15665187791100277,0.021256977692246437,-0.00036359461955726147,3.244679548345506,-0.0023044003173708916
1745972223085867500,13.877867431640626,-0.13656355753276575,-0.002687209052965045,-0.08965781958735322,-0.007357299327850342,0.14627033465983458,0.9725585838966798,0.27519789955041846,right,0.000892949930857867,-0.33832123104914946,-1.259391574296355,-9.164614663499593,-0.15715012041715615,-0.0438874252140522,0.003826832864433527,3.254866303578019,-0.0016363982576876879
1745972223245542700,14.037542724609375,-0.1374169756424532,-0.016609586775302887,-0.09014178324172438,-0.002264518290758133,0.1464310727017106,0.9724278217139951,0.275348770265495,right,0.0037897033616900444,-0.33924630494481195,-1.2667993663348256,-9.160549898278713,-0.15753217107056605,0.05424400791525841,-0.00016522593796253204,3.2634225349992514,0.008675034157931805
1745972223285462000,14.0774619140625,-0.13749611454235788,-0.024554958567023277,-0.09009292743471752,0.012907051481306553,0.1460600425451605,0.972519328112549,0.27459335701460946,right,-0.0021272816229611635,-0.33879431939455834,-1.2677262719213962,-9.161910080716014,-0.15733992453220122,-0.035602107644081116,0.0008667550282552838,3.2592426189661023,0.011939133517444134
1745972223325462000,14.1174619140625,-0.13735045915575522,-0.01834149844944477,-0.08998789794703303,0.011064158752560616,0.14563241244737046,0.9725397205707592,0.27371155946940096,right,-0.00435483455657959,-0.33936784551514937,-1.2661356417290865,-9.160241270720958,-0.15767003811344213,-0.020692918449640274,0.0009411126375198364,3.2645465705931183,0.009535729885101318
1745972223365462300,14.157462158203124,-0.13720529144855095,-0.012128039263188839,-0.08988283051795203,0.009221266955137253,0.14520471143257643,0.9725597833964252,0.2728296073781466,right,-0.006582856178283691,-0.3399414657461242,-1.264549541581422,-9.158568369072675,-0.1580001005794877,-0.005783732049167156,0.001015886664390564,3.2698505222201346,0.00713232159614563
1745972223405462300,14.197462158203125,-0.13715298863605543,-0.009166378527879715,-0.08980118735060658,0.009406720288097858,0.14491957517909645,0.9726197048151511,0.2722600923214636,right,0.00020301342010498047,-0.33975772619547884,-1.2641526512183248,-9.159229463329911,-0.15793982798845102,0.015922967344522476,0.005028814077377319,3.2681516093477603,0.00432470440864563
1745972223445462300,14.237462158203124,-0.136693510376033,0.007585048675537109,-0.08954794769144113,0.012381212785840034,0.14486617848921626,0.972682710430848,0.27224608923273347,right,0.0003597140312194824,-0.3392875076115795,-1.260153352449089,-9.161330819523334,-0.157744329568975,0.01789858192205429,0.004441440105438232,3.2638036432713267,-0.0019577741622924805
1745972223485462300,14.277462158203125,-0.13597537480478505,0.009165608324110508,-0.0892106197440616,0.01260957308113575,0.14505601286337827,0.9727192541378885,0.27277462306594874,right,0.0015036463737487793,-0.33880097842530515,-1.2537890781141816,-9.163805685204267,-0.1575353806325659,0.012903698720037937,0.004440762102603912,3.2593039937645196,0.0008688271045684814
1745972223525462300,14.317462158203124,-0.13523789089654425,-0.0034608077257871628,-0.08885855776916386,0.015382005833089352,0.1451014511107472,0.9727515119852707,0.27299528424101127,right,0.0005143284797668457,-0.33862538194932634,-1.2471077006541191,-9.165295046979189,-0.15749337562931945,0.005148163065314293,0.0029258206486701965,3.2576798996940255,0.002871572971343994
1745972223565462000,14.3574619140625,-0.13462339925876912,-0.030419841408729553,-0.08850497337193723,0.009843593463301659,0.14478834321231926,0.9728355148000478,0.2724600833854076,right,-0.0007404088973999023,-0.3384201962928751,-1.2415651179656386,-9.166721280390023,-0.15746152751812773,-0.0041229091584682465,0.0018676146864891052,3.255781957118213,0.005967885255813599
1745972223605462300,14.397462158203124,-0.13461113836619573,-0.030201934278011322,-0.0883942590160577,0.006766146514564753,0.1441528417092738,0.9729333069060551,0.2711572114466211,right,0.0010395050048828125,-0.33838486128057815,-1.241468233462423,-9.166851044249533,-0.15750278504650855,-0.005248578265309334,0.0029248520731925964,3.2554549171209333,0.003988921642303467
1745972223645462300,14.437462158203125,-0.13475490711420138,-0.011962229385972023,-0.08840868493062029,0.0038268519565463066,0.14381819195266715,0.9729774965879824,0.27044567173064044,right,-0.0003536343574523926,-0.3383936932893979,-1.2427822386704384,-9.166643538978695,-0.1575281833582547,-0.003986654803156853,0.0021066367626190186,3.2555367501854895,-0.00047275424003601074
1745972223685462300,14.477462158203124,-0.13489866766497638,0.006277473643422127,-0.08842309793813154,0.000887557165697217,0.14348348900830732,0.9730214390455016,0.2697340106873935,right,-0.0017467737197875977,-0.33840234103519307,-1.244096243878454,-9.166437202751636,-0.15755354672452487,-0.002724731806665659,0.0012884140014648438,3.2556168296843766,-0.004934251308441162
1745972223725462300,14.517462158203125,-0.13524849563574215,0.02699330449104309,-0.0886512400246398,-0.018691247329115868,0.1437530053045199,0.9729424171664606,0.27021670514295776,right,-0.0005188584327697754,-0.3387312658085332,-1.2471584079280496,-9.164939657670258,-0.15766758094332117,-0.007784807123243809,0.001021161675453186,3.2586592661201954,-0.003414154052734375
1745972223765462300,14.557462158203125,-0.1357897957777141,0.02859482727944851,-0.08903119587335459,-0.02265642024576664,0.14442952881531257,0.9728038542106163,0.2715088784409962,right,0.0031536221504211426,-0.33897438149939785,-1.2520118393085897,-9.163477768424153,-0.15768982699841327,-0.002039071638137102,0.002407655119895935,3.2609079218298196,0.00226593017578125
1745972223805462000,14.5974619140625,-0.13593138055809784,0.015531893819570541,-0.08919117622801356,-0.011816419661045074,0.14504994503139992,0.9727181022304361,0.2727674276330575,right,0.0017452239990234375,-0.33884213243222944,-1.2533676378317176,-9.163727943792939,-0.15755897451997894,0.003689243458211422,0.0013913363218307495,3.25968480977565,0.0037693381309509277
1745972223845462300,14.637462158203125,-0.13605663380849667,-0.0009031482040882111,-0.08930667473425612,-0.012659276835620403,0.14533244537269302,0.972656549230023,0.27331994440609025,right,-0.001671910285949707,-0.3390225388105462,-1.2544357054546476,-9.162987939080596,-0.15761324604622134,-0.014298376627266407,-0.001355007290840149,3.261353327509761,0.0019176900386810303
1745972223885462300,14.677462158203125,-0.1370145917720225,-0.02981686405837536,-0.08973162349947385,-0.026944754645228386,0.14511229317376076,0.9726476094608189,0.2727065950812667,right,0.00048595666885375977,-0.3391436786435074,-1.2631589640058576,-9.161391025277972,-0.1576302366446285,0.015028095804154873,-0.0002108067274093628,3.262473563711345,0.001832813024520874
1745972223925462300,14.717462158203125,-0.1386115124185944,-0.06587065756320953,-0.09030828783997373,-0.022572603076696396,0.14426701008442872,0.9727834636534106,0.2707443565773791,right,0.0021208524703979492,-0.33839497761922427,-1.2781244779475032,-9.161778563290834,-0.15723771989881244,0.010270684957504272,0.001636698842048645,3.255548732884228,0.007772773504257202
1745972223965462300,14.757462158203126,-0.13941311476392065,-0.04968474060297012,-0.09054567880530036,-0.015053397044539452,0.14317862283928012,0.9728668158531557,0.2683492939760441,right,0.0000209808349609375,-0.33899200825699793,-1.2851977773346006,-9.158824389660358,-0.15757975181023226,-0.024478454142808914,0.001608625054359436,3.261071003437042,0.0028655827045440674
1745972224005462300,14.797462158203125,-0.14021644219690366,-0.03349882364273071,-0.09078296364142172,-0.007534191478043795,0.14209005206350145,0.9729489142016094,0.26595326195163255,right,-0.0020793676376342773,-0.3395873043914709,-1.2922833516813814,-9.155865539854764,-0.15792159099827596,-0.0592275895178318,0.0015817880630493164,3.2665760305941105,-0.0020398497581481934
1745972224045462000,14.8374619140625,-0.14054757223977307,0.0009131580591201782,-0.09094497540631816,-0.006251798011362553,0.14156130651874438,0.9728748328151984,0.2647342700243524,right,0.0007916688919067383,-0.3412350490244234,-1.2945593337893486,-9.15009513975978,-0.15875763059859438,-0.043293967843055725,0.003139212727546692,3.2818075019955635,-0.008757531642913818
1745972224085462000,14.8774619140625,-0.1405874871372887,0.02649235725402832,-0.09104489950620552,-0.00420520780608058,0.14181178982253004,0.9727750736373537,0.2652082182916544,right,0.003202497959136963,-0.3419610644002167,-1.2945903134495018,-9.147681648877262,-0.15908753235580902,-0.008901290595531464,0.004220589995384216,3.2885160597234964,-0.004507392644882202
1745972224125462300,14.917462158203126,-0.1398613496825643,0.037907328456640244,-0.09079086893289004,0.00835394486784935,0.14240874435560968,0.9727245470269854,0.26656101113099484,right,-0.0005216598510742188,-0.34181858421350875,-1.2880128347553312,-9.14908333236873,-0.15900811393298114,0.01134282723069191,0.0010724812746047974,3.2871994241669773,-0.00029981136322021484
1745972224165462300,14.957462158203125,-0.13932925379806618,0.019542202353477478,-0.09060269178378165,-0.00038748979568481445,0.14303584155010973,0.9727095258408627,0.26796967830696894,right,0.000861823558807373,-0.34112681727285604,-1.2834599937565625,-9.152017047733068,-0.1586446517223512,0.018943533301353455,0.0021862536668777466,3.2808073850423094,0.008226662874221802
1745972224205462300,14.997462158203126,-0.1394129432587911,-0.006190139800310135,-0.0906270786424423,-0.0028132086154073477,0.14317061234042372,0.9727432149882139,0.26826404977920143,right,0.003675401210784912,-0.34046443462937814,-1.2845276229880749,-9.154059951737523,-0.15830212467133842,0.019191542640328407,0.0023360848426818848,3.274685102769732,0.006669461727142334
1745972224245462300,15.037462158203125,-0.1398617531188507,-0.025904670357704163,-0.0907475220181148,-0.0026902398094534874,0.14289490836492227,0.9728401658935052,0.26766378036576505,right,-0.0007819533348083496,-0.33962183745877994,-1.2890201121017335,-9.156211576813458,-0.15788607773784774,0.01872902177274227,0.00318145751953125,3.2668951795458794,0.005427837371826172
1745972224285462000,15.0774619140625,-0.1402734747321847,-0.024569950997829437,-0.09084899178007362,-0.005879848264157772,0.14238037132941014,0.9729168915453719,0.2665476956396351,right,-0.0044495463371276855,-0.3394419174343022,-1.2928719652242957,-9.156261845695973,-0.15781958438165455,0.004327842034399509,-0.0018526166677474976,3.2652316302478313,0.0011396408081054688
1745972224325462000,15.1174619140625,-0.14083440501879835,-0.018242616206407547,-0.09103858848078526,-0.008413378149271011,0.14201745196521903,0.9729771649361107,0.2657254902983295,right,0.00009334087371826172,-0.33913126726041865,-1.2981500517576932,-9.156538909071683,-0.1576654822350132,0.01681547984480858,-0.0006197690963745117,3.262358705160022,-0.002346605062484741
1745972224365462300,15.157462158203124,-0.14126119736698994,-0.03676696866750717,-0.091166581365719,0.014650559052824974,0.14154217961534005,0.9730275951665689,0.26467696516388134,right,0.0005353689193725586,-0.33918262025022844,-1.302034345845133,-9.1558181935817,-0.15770804471857938,-0.04573281481862068,0.0034889131784439087,3.262833629195392,-0.0009994804859161377
1745972224405462300,15.197462158203125,-0.14137846342936006,-0.04883699491620064,-0.09120635645639626,0.02513483725488186,0.14055364789161293,0.9729420673197733,0.26249871920662243,right,0.005624294281005859,-0.3418287808894371,-1.3018869001984597,-9.147085436549782,-0.15909058895103906,-0.10756047070026398,0.006734326481819153,3.2872938244521617,0.006434351205825806
1745972224445462300,15.237462158203124,-0.14108569145865413,-0.03910597786307335,-0.091108188510271,0.03440451622009277,0.1393985969075363,0.9727530289734213,0.25996806174896114,right,0.010253846645355225,-0.34608520195723635,-1.2972294297814368,-9.13353037392795,-0.16130354683679318,-0.11376813054084778,0.0074613094329833984,3.3265900620520115,0.005632847547531128
1745972224485462300,15.277462158203125,-0.1408774171165533,-0.05920062214136124,-0.09091311629377474,-0.0014628618955612183,0.13827662803041668,0.9727746711080809,0.2576153605960727,right,-0.0026578903198242188,-0.3477680757159161,-1.2945393139146268,-9.128244542479514,-0.16224622073441752,0.034457728266716,0.004230976104736328,3.3421102872669697,0.001818329095840454
1745972224525462300,15.317462158203124,-0.14260349894665544,-0.0902005061507225,-0.09132662818332617,-0.05007947236299515,0.1369899582645379,0.9732076334234868,0.25485876118031675,right,-0.014151155948638916,-0.3441755816941941,-1.311991383974999,-9.137822518163919,-0.1604996970223141,0.11850403994321823,0.0013213157653808594,3.3089673115998504,0.007789790630340576
1745972224565462000,15.3574619140625,-0.14617231106817888,-0.05668002367019653,-0.09258638703610925,-0.07056890428066254,0.13580246633708024,0.9736368911445095,0.25206377605558344,right,-0.009094715118408203,-0.3396319053488326,-1.3467699980199337,-9.147862266141175,-0.15816631949241355,0.09638342261314392,0.0002907216548919678,3.266988410787284,-0.007643312215805054
1745972224605462300,15.397462158203124,-0.1482678095084427,0.03059498220682144,-0.09345076650280049,-0.04993896931409836,0.13579796488906304,0.9737732718484692,0.25184571239600634,right,-0.004012107849121094,-0.3371389355366441,-1.367135325178504,-9.153046390780807,-0.1568165865976621,0.0465807281434536,-0.004128545522689819,3.2439269764125345,-0.019801408052444458
1745972224645462300,15.437462158203125,-0.14870543326609573,0.08797356486320496,-0.09383955380034405,-0.02717641368508339,0.137149814376644,0.9736266424893566,0.25458893235372626,right,0.002389192581176758,-0.33644089019409656,-1.3714759847313165,-9.154684805637597,-0.15631734569214772,0.008953414857387543,-0.0030166059732437134,3.2374662559658285,-0.020449668169021606
1745972224685462300,15.477462158203124,-0.14816462845788145,0.11185677349567413,-0.09393019066866677,-0.013898034580051899,0.1391828217858383,0.9733247175401422,0.2588320568705663,right,0.005391895771026611,-0.33683210245093537,-1.3663377450600265,-9.154171595418452,-0.1563465563521034,-0.018189840018749237,-0.001027613878250122,3.241087369072437,-0.008959680795669556
1745972224725462300,15.517462158203125,-0.1474323761387512,0.09130845963954926,-0.09397109738515176,-0.012788412161171436,0.14113911756384587,0.972954582800876,0.2629000202577894,right,0.0018739700317382812,-0.3381934120781264,-1.3589848980791865,-9.150797150549293,-0.15687134298850555,-0.0382130891084671,0.002191305160522461,3.253684108056128,0.001872241497039795
1745972224765462300,15.557462158203125,-0.14729972358544027,0.04616197571158409,-0.0942274137179351,-0.015697617083787918,0.14239216364092058,0.9725959784037256,0.26538845590242144,right,0.0021146535873413086,-0.340329002689441,-1.3567480789378286,-9.144082747602463,-0.15780589221822133,-0.05378928408026695,0.0027230679988861084,3.2734333491429686,0.007881402969360352
1745972224805462000,15.5974619140625,-0.14804296671539394,-0.009821560233831406,-0.09477333550237826,-0.01720239780843258,0.14252738930527162,0.9722817054687115,0.2653850367002661,right,-0.002138078212738037,-0.34347269299159094,-1.3620192973390222,-9.132848821404576,-0.15928684984526134,-0.08443084359169006,0.0023202747106552124,3.30247794958055,0.00563773512840271
1745972224845462300,15.637462158203125,-0.14876800433438944,-0.03342080116271973,-0.09520629544241677,-0.0035320958122611046,0.14182196891737905,0.9720320609767638,0.2636198161516383,right,-0.0031438469886779785,-0.3472694938311336,-1.366772190954536,-9.11939312750399,-0.16117106288139962,-0.09688406437635422,-0.0001259148120880127,3.3375130226045844,0.005321919918060303
1745972224885462300,15.677462158203125,-0.14924917322131084,-0.020308487117290497,-0.09546879998149903,0.0010296269319951534,0.1411146186727774,0.9718704336181898,0.26193773896182765,right,0.005955696105957031,-0.3501143407529475,-1.3697427311979233,-9.109307786819338,-0.1626045593399063,-0.03826358541846275,0.0014251172542572021,3.3637326287493106,0.0018953680992126465
1745972224925462300,15.717462158203125,-0.1493517489055566,-0.000825095921754837,-0.09550123355853643,-0.000792953185737133,0.14088212200868241,0.971863028738215,0.2614199815183853,right,0.004980027675628662,-0.3505432835264228,-1.3704622776441275,-9.107740099111199,-0.16283121196648206,0.009745094925165176,0.001693129539489746,3.3676837044626473,-0.0010368824005126953
1745972224965462300,15.757462158203126,-0.1492585960662357,0.016270875930786133,-0.09544630764707342,-0.005322120618075132,0.14106637314173806,0.9719078869703203,0.26185508509096733,right,0.004043877124786377,-0.3497614671647991,-1.3700048892654477,-9.110468647292256,-0.16243576258607997,0.0309233907610178,0.0005079805850982666,3.360481810259819,-0.0036389827728271484
1745972225005462300,15.797462158203125,-0.14922092668801917,0.04393409937620163,-0.09547527709008474,-0.02217424102127552,0.14176655485579712,0.9719207709425756,0.2633694076270043,right,0.0012619495391845703,-0.34845770645123114,-1.3703119093880056,-9.114844962680339,-0.1617303688323841,0.042732153087854385,-0.0005990713834762573,3.348467547339201,-0.0077238380908966064
1745972225045462000,15.8374619140625,-0.14924631078887496,0.07443947345018387,-0.09563416663189252,-0.026950959116220474,0.1431217097030147,0.9718458141625047,0.26622786419895983,right,-0.0018970966339111328,-0.3470203223238246,-1.371257519675046,-9.11956030076444,-0.16089106217511437,0.049132004380226135,0.00012959539890289307,3.3352152670562267,-0.00620657205581665
1745972225085462000,15.8774619140625,-0.14899500196173107,0.07630570232868195,-0.09571986844464889,-0.020046064630150795,0.14479139999249616,0.9717191395062994,0.26977190386032285,right,-0.005860328674316406,-0.3457276316694421,-1.3696044917710124,-9.124160488036274,-0.16010928662008594,0.031666867434978485,-0.0011404603719711304,3.323291312767565,0.0046561360359191895
1745972225125462300,15.917462158203126,-0.14915040345421515,0.04257466644048691,-0.0959907391602033,-0.024358093738555908,0.14610316432615758,0.9715456966460643,0.27246331138633995,right,-0.0019995570182800293,-0.34539637017502334,-1.3711859157435595,-9.125035517305136,-0.15980749259160063,-0.00188383087515831,0.0007625818252563477,3.320234555545449,0.011809229850769043
1745972225165462300,15.957462158203125,-0.1494280801053104,-0.005833834409713745,-0.09621813525869208,-0.005535447970032692,0.14649910356788662,0.9714286983910424,0.27320474135816747,right,0.0015097260475158691,-0.34594629850308856,-1.3734477231957019,-9.12284765187204,-0.16001963055695587,-0.015008507296442986,0.0022852420806884766,3.325308790069818,0.009304016828536987
1745972225205462300,15.997462158203126,-0.14973683959780373,-0.03361653536558151,-0.0963154312975849,0.006374180316925049,0.14607803787956658,0.9714491443666867,0.27226812451493454,right,0.0022611021995544434,-0.3463159160696546,-1.3760809943087398,-9.121207483449577,-0.16022229457242734,-0.0055044060572981834,0.003145769238471985,3.32871830625236,0.003950297832489014
1745972225245462300,16.037462158203127,-0.14990823966716657,-0.03165501356124878,-0.09629285333500633,-0.0012725512497127056,0.14541588817669257,0.9715334850740648,0.2708714799119293,right,-0.00028574466705322266,-0.34641707395830607,-1.3775940292201936,-9.120638159129022,-0.16032637781021558,0.0005388278514146805,0.0017085820436477661,3.329651495449245,-0.0011187493801116943
1745972225285462000,16.0774619140625,-0.15023355979232833,-0.007709670811891556,-0.09639387141050414,-0.013621445745229721,0.14506389068416226,0.9715659731333134,0.27008819490309904,right,-0.0012178421020507812,-0.34651384080926134,-1.3805128392763435,-9.119870681887864,-0.16038766083404465,0.0003439524443820119,0.0019093304872512817,3.330544060374796,-0.004379242658615112
1745972225325462000,16.1174619140625,-0.150569008308147,0.01988866552710533,-0.09659231308696378,-0.016135402023792267,0.14525867068082107,0.9715126868959693,0.2704265826154377,right,-0.0001035928726196289,-0.34665381705177517,-1.3835020842202006,-9.11894655278027,-0.16041521787436674,-0.00579530093818903,0.0026901662349700928,3.331835269229114,-0.0022417008876800537
1745972225365462300,16.157462158203124,-0.15081674473752565,0.028684426099061966,-0.0968311624269598,-0.01967320777475834,0.14588805165229465,0.971381636381283,0.27166486352856734,right,-0.0008200407028198242,-0.34697365155713156,-1.3856009561955929,-9.11754896094203,-0.1604932301870168,-0.004236349370330572,0.003744184970855713,3.3347847666844723,-0.0006160438060760498
1745972225405462300,16.197462158203123,-0.1510959218671983,0.01766277104616165,-0.09708247829924048,-0.010962661355733871,0.14648173364855963,0.9712491696665579,0.27282148001778506,right,-0.004591405391693115,-0.3473537644064245,-1.3879554103672505,-9.115908207997679,-0.1606020363023765,-0.01395806111395359,0.0013365447521209717,3.3382901444569226,0.003804415464401245
1745972225445462300,16.237462158203126,-0.15145912478307827,-0.0006452202796936035,-0.09734322842686069,-0.0073824054561555386,0.14675659284727743,0.9711270511257952,0.2732871536092871,right,-0.0012889504432678223,-0.34813181051781633,-1.3908739281624556,-9.112833038336039,-0.16093196169926755,-0.029427971690893173,0.0026194602251052856,3.3454633970871566,0.007846087217330933
1745972225485462300,16.277462158203125,-0.15161018670271004,-0.016459813341498375,-0.09743897058598262,0.0072760325856506824,0.1464889697959252,0.9710551645167107,0.27264729976702845,right,0.0014780163764953613,-0.3493584061257057,-1.3916297149658203,-9.10855959880054,-0.16154981908818217,-0.027913134545087814,0.002048864960670471,3.356768050433695,0.003960371017456055
1745972225525462300,16.317462158203124,-0.1515217610855668,-0.028356725350022316,-0.09736680799907366,0.007977118715643883,0.14595879508369128,0.9710477818381708,0.27151633195612423,right,-0.00019186735153198242,-0.3503955857855879,-1.3902980279706418,-9.105236007335781,-0.16211679025682924,-0.020357977598905563,0.0015891343355178833,3.3663232297644017,0.002842813730239868
1745972225565462000,16.3574619140625,-0.15165594382181616,-0.02773384191095829,-0.09737368009942066,0.004205323755741119,0.1453234531410282,0.971059748341084,0.27013881254588623,right,-0.0036287903785705566,-0.3512922260542295,-1.3910631671242415,-9.102062053474784,-0.1626110259350743,-0.022125447168946266,0.000632166862487793,3.3745804782390594,-0.001789689064025879
1745972225605462300,16.397462158203126,-0.1521035557653838,-0.014395436272025108,-0.09753424090858742,-0.004423964768648148,0.1448616829203711,0.9710699394355637,0.26908750727635394,right,-0.00045496225357055664,-0.35177668318199146,-1.3948893012836574,-9.099821581071614,-0.162865861497596,-0.004040747880935669,0.001000523567199707,3.3790409647792576,-0.005633533000946045
1745972225645462300,16.437462158203125,-0.15218033960891778,0.006168637424707413,-0.09754632479400599,0.0011440003290772438,0.14486669028114996,0.971106239559477,0.26910871241642254,right,0.0011546015739440918,-0.3513225177165005,-1.3958205907844006,-9.10123027882576,-0.16263793031261872,0.01476242020726204,0.001177474856376648,3.3748595874413847,-0.002402663230895996
1745972225685462300,16.477462158203124,-0.15203860486055562,0.016832150518894196,-0.09749927650807924,-0.00677543506026268,0.1451698213886911,0.9711151322081298,0.2697859869495155,right,-0.0031696557998657227,-0.3507621831657161,-1.3948168205693363,-9.103295979183912,-0.16234211901641601,0.010605992749333382,-0.0002180933952331543,3.369699720460176,0.0009506940841674805
1745972225725462300,16.517462158203124,-0.15243951806370543,0.008052727207541466,-0.09773422733040274,-0.016266904771327972,0.145501756101735,0.9710661377414394,0.2704118359609729,right,0.0005671381950378418,-0.3505859094213243,-1.3985564454890786,-9.103322867190837,-0.16219653854211635,-0.0017575658857822418,0.002863764762878418,3.3680762109115716,0.0025946199893951416
1745972225765462300,16.557462158203126,-0.15296079879341526,-0.0012996252626180649,-0.09800999725247306,-0.012942709028720856,0.14558290184256048,0.971009276452315,0.2704765273910927,right,0.0006279349327087402,-0.3508785785613239,-1.4031513720639048,-9.10161781683862,-0.16229805201593817,-0.009908548556268215,0.0015082508325576782,3.3707714413449166,0.000878751277923584
1745972225805462000,16.5974619140625,-0.15362490190116984,-0.0032616599928587675,-0.09834237194886777,-0.017264965921640396,0.1455496496575753,0.9709509012995082,0.2702735405351581,right,0.0016312599182128906,-0.3513227896327867,-1.408966195822507,-9.099203741434216,-0.16247613735815647,-0.008001808077096939,0.00022199749946594238,3.3748619255289434,-0.002474755048751831
1745972225845462300,16.637462158203125,-0.15422791121954174,0.008661371655762196,-0.09866782473528565,-0.015379899181425571,0.14563211179310626,0.9708731065400575,0.27031634813621114,right,0.002181410789489746,-0.35181442479498615,-1.4141978128656745,-9.096711924618482,-0.16266969068191967,-0.014037230983376503,-0.0006330609321594238,3.3793884630426763,-0.0049024224281311035
1745972225885462300,16.677462158203124,-0.15429091596705735,0.02844107151031494,-0.09880755078554168,0.0044714054092764854,0.14599853234446974,0.9707385322098678,0.27101392621616505,right,0.006200551986694336,-0.35269357703988713,-1.4143138404607771,-9.093683516708015,-0.1630590050471909,-0.022993892431259155,0.001404792070388794,3.387480584083497,-0.006394803524017334
1745972225925462300,16.717462158203126,-0.15329509837805766,0.022343048825860023,-0.09847462753184058,0.03274960815906525,0.1464248774142347,0.9706079653307389,0.2719981273531499,right,0.0036081671714782715,-0.35386536215824865,-1.4046503784500062,-9.09115838214457,-0.1636541185263513,-0.021590564399957657,0.0009988248348236084,3.3982620903387666,-0.0036340653896331787
1745972225965462300,16.757462158203126,-0.15219098958739888,-0.013647777959704399,-0.09795877888042773,0.040926411747932434,0.14646848364536233,0.9706461355497786,0.2722766118529328,right,0.004106283187866211,-0.3538187416517804,-1.3946359110444784,-9.092859925365447,-0.16369857201216975,0.01088116317987442,0.0017457455396652222,3.3978333435326813,0.0057694315910339355
1745972226005462300,16.797462158203125,-0.15123921999530593,-0.04010754078626633,-0.0973517280085287,0.0494077205657959,0.14578122311659808,0.970851416586439,0.2710604223780598,right,-0.002171754837036133,-0.3530565221854987,-1.38637077152431,-9.096741150712967,-0.16345616919641642,0.004800497554242611,0.001293972134590149,3.3908205421611664,0.007530093193054199
1745972226045462000,16.8374619140625,-0.15049156721422388,-0.03883115202188492,-0.09683025600283218,0.027772359549999237,0.1448736626546939,0.9710398571753645,0.26933172791880317,right,-0.0050026774406433105,-0.3527673058164148,-1.3797161359407006,-9.098744307228923,-0.16345349406948803,0.0004857894964516163,0.001767471432685852,3.3881589217364785,0.004660159349441528
1745972226085462000,16.8774619140625,-0.1502647378178936,-0.021625520661473274,-0.09661597111165063,0.0068492647260427475,0.14417026916249717,0.9711348817225347,0.2679108223758921,right,-0.0032979846000671387,-0.352970820482829,-1.3775490210346877,-9.098374889394641,-0.1636377720228077,-0.013003922998905182,0.002885669469833374,3.390032022131979,0.0004929006099700928
1745972226125462300,16.917462158203126,-0.15056799608866883,0.013642067089676857,-0.09678484430791379,-0.014653876423835754,0.14408011761160477,0.9710713309511388,0.26763550378988116,right,-0.0014941096305847168,-0.35371995743325274,-1.3799268560819327,-9.095443512117862,-0.16399429152470096,-0.026375416666269302,0.004653334617614746,3.3969244119942186,-0.0029790401458740234
1745972226165462300,16.957462158203125,-0.15102547369721156,0.04672269523143768,-0.09719054984043535,-0.018672775477170944,0.1447294924012912,0.970829020103479,0.26882048117842955,right,0.005504250526428223,-0.35518085070645683,-1.383339587134868,-9.089895230340957,-0.16461562699123305,-0.04066307842731476,0.007512867450714111,3.4103605244114994,-0.00587230920791626
1745972226205462300,16.997462158203124,-0.1503561780752792,0.06966393440961838,-0.09713702150312671,-0.002256035804748535,0.14593566844747066,0.9705809914944736,0.27136638091484,right,0.007027924060821533,-0.3562148829264004,-1.3767264526054261,-9.087327425679565,-0.1650443031720078,0.009904474020004272,0.005057439208030701,3.4198660193815824,-0.006891369819641113
1745972226245462300,17.037462158203127,-0.1490661915804222,0.05399535968899727,-0.0967120587255888,0.002112830989062786,0.1473164991914488,0.9705003383649817,0.27447719717087526,right,0.0037639737129211426,-0.35529657379307344,-1.3654685610100625,-9.092197662064432,-0.1645408326271575,0.03766414523124695,0.0020564496517181396,3.411424354250729,0.009717702865600586
1745972226285462000,17.0774619140625,-0.1476933859547744,0.01616121456027031,-0.09611696504228981,0.022314872592687607,0.1480357111288362,0.970548574922281,0.2762525087281566,right,0.0019753575325012207,-0.3540695442991505,-1.3536004285618661,-9.098197194740175,-0.1639589702454108,0.022236239165067673,0.0007153749465942383,3.400140451431274,0.015407711267471313
1745972226325462000,17.1174619140625,-0.14597667261465688,-0.019119974225759506,-0.09524797629433013,0.046306513249874115,0.14799108205883962,0.970696218439717,0.2764945901422413,right,0.00023806095123291016,-0.35316001478134457,-1.3384287245236337,-9.103563690209388,-0.16363142966466263,0.03316280245780945,0.0031061023473739624,3.391772728319466,0.011934369802474976
1745972226365462300,17.157462158203124,-0.14439586472798138,-0.0536375492811203,-0.09427704983265543,0.05161427706480026,0.1473628971749454,0.9710304102384704,0.2755666161752811,right,-0.0001556873321533203,-0.35107318059838916,-1.3250516488172113,-9.112652421072125,-0.16277546235290805,0.07540096342563629,0.006064191460609436,3.3725635854586957,0.01174861192703247
