time,seconds_elapsed,roll,rotationRateZ,quaternionY,rotationRateY,quaternionZ,quaternionW,yaw,devicelocation,accelerationZ,pitch,gravityX,gravityZ,quaternionX,rotationRateX,accelerationX,gravityY,accelerationY
1745972306636149800,0.450149658203125,-0.7891320642177523,-0.00023169070482254028,-0.381133394525071,0.047724492847919464,9.839291711796913e-18,0.9211168270816867,-0.061103737975020965,right,-0.27424436807632446,-0.14652492394496222,-6.885610577362775,-6.834379571819305,-0.07925226099550281,-0.028108105063438416,0.5609116554260254,1.431782715525478,0.10901005566120148
1745972306676149800,0.490149658203125,-0.5386718589631276,0.07786141335964203,-0.2670947623032957,0.04577622935175896,0.052252071792706814,0.9575748804801998,0.05059100967397422,right,-0.1284756064414978,-0.21096219174376632,-4.919243869143724,-8.231310900324583,-0.09476457182810147,0.003012940287590027,0.37017250061035156,2.0535211139284075,0.04230526089668274
1745972306716149800,0.530149658203125,-0.2795760516854091,0.155954509973526,-0.14843406836608686,0.04382796585559845,0.10359988533756412,0.9774622080173275,0.17646106701819683,right,-0.03218364715576172,-0.24559408298666802,-2.624925309497118,-9.14304054507315,-0.1086369976062112,0.03413398936390877,0.14599166810512543,2.3843169566102325,0.005268394947052002
1745972306756149800,0.570149658203125,-0.18656356792174006,0.16316622495651245,-0.10566766297567529,-0.011033385992050171,0.12311044470333513,0.980494734070362,0.2266771754499303,right,-0.018335461616516113,-0.2460494666282959,-1.7641859934039412,-9.346250164544582,-0.11094232546930848,0.00034910812973976135,0.05781370401382446,2.3886484099432823,0.007690161466598511
1745972306796149800,0.610149658203125,-0.1425384428239676,0.12988626956939697,-0.08562057362030134,-0.05506892129778862,0.13416778831520632,0.9808248808150383,0.2542370375817568,right,-0.0019704699516296387,-0.24608803703780888,-1.3511264396637677,-9.414746193143724,-0.11247506291459954,-0.013669993728399277,0.017129026353359222,2.3890153435595334,0.017897173762321472
1745972306836150000,0.65014990234375,-0.12973856106043719,0.07832476496696472,-0.08016885193545951,-0.04322953149676323,0.13916710857091136,0.9803814761419973,0.2657653784159778,right,0.0059555768966674805,-0.24893157221358744,-1.229627573543042,-9.424494264698028,-0.11426922891593232,-0.04880456626415253,-0.006502583622932434,2.4160510883927344,0.024365544319152832
1745972306876150000,0.69014990234375,-0.1291259659660068,0.06515896320343018,-0.0801510347486025,-0.02478526532649994,0.14007152778774187,0.9800894420707414,0.26754260869741725,right,0.006066620349884033,-0.25184817185736474,-1.2229413737773895,-9.418218253168464,-0.11567336962149648,-0.04440747946500778,-0.011715874075889587,2.4437612253561616,0.013213291764259338
1745972306916149800,0.730149658203125,-0.1293534521325466,0.03796140104532242,-0.08067636032674887,-0.010199456475675106,0.14137777148441874,0.9796168139654224,0.2699741997725425,right,0.007545948028564453,-0.25621732017856147,-1.2236948955584317,-9.407261974868177,-0.11770494653908373,-0.003430645912885666,-0.009146437048912048,2.4852327611684797,0.01823371648788452
1745972306956149800,0.770149658203125,-0.13030202702583016,-0.0059483908116817474,-0.08129839827329458,0.029683075845241547,0.14175299064938454,0.9794040642428985,0.27053136390385646,right,0.003883540630340576,-0.2582089728406353,-1.2319722369730473,-9.401170087733865,-0.11859289546170156,0.03494379669427872,-0.007416859269142151,2.5041215860337016,0.011638134717941284
1745972306996149800,0.810149658203125,-0.1310474425503527,-0.013593297451734543,-0.08164705059860099,0.010212056338787079,0.14126781318641662,0.9793982462461036,0.2694117943814334,right,0.005537986755371094,-0.2590120011006027,-1.238716450536251,-9.398252738982439,-0.11897991172134628,0.010459709912538528,-0.005574166774749756,2.5117346913859246,0.0010600686073303223
1745972307036149800,0.850149658203125,-0.1317939129395388,-0.021238204091787338,-0.08199564180280836,-0.00925896130502224,0.1407824943048736,0.9793918553909556,0.268291203585091,right,0.007191479206085205,-0.2598141621012204,-1.2454665093183517,-9.395324868837,-0.11936685624541371,-0.014024380594491959,-0.0037308484315872192,2.5193381521269678,-0.009516999125480652
1745972307076150000,0.89014990234375,-0.13234833574241575,0.004125190898776054,-0.08226446667899392,0.018181057646870613,0.14054720100837054,0.9793744473639879,0.2677182992536048,right,0.015447795391082764,-0.2603243373665238,-1.2505055263988674,-9.393357952678203,-0.11960180006106418,-0.003760457970201969,0.005323067307472229,2.5241730249375105,-0.015078842639923096
1745972307116150000,0.93014990234375,-0.13094621126694542,0.03246554732322693,-0.08159902768538693,0.06293826550245285,0.14075856371229842,0.979405881073544,0.2683332874389524,right,0.0012145638465881348,-0.2600722391462535,-1.2374167661145328,-9.39573228059411,-0.11955147659362543,-0.008717754855751991,0.00540633499622345,2.5217840839743615,-0.0004629790782928467
1745972307156149800,0.970149658203125,-0.12857768786731655,0.045652855187654495,-0.08051733055894747,0.006039965897798538,0.14156242285698925,0.9794062205922105,0.2702932123131809,right,-0.013971865177154541,-0.25944787787458573,-1.2153608555205166,-9.400196858787536,-0.11933275781796933,-0.012983990833163261,0.000021569430828094482,2.515866384363174,0.011277556419372559
1745972307196149800,1.010149658203125,-0.12821265811110702,0.021571505814790726,-0.08044297426190408,-0.001998739317059517,0.1420280238741017,0.9793016121653011,0.27125369695405127,right,-0.003679513931274414,-0.2601979726855538,-1.2116877930309622,-9.398765364679694,-0.1196881274482933,-0.018715472891926765,0.004797026515007019,2.5229756318464873,0.013127923011779785
1745972307236149800,1.050149658203125,-0.12769490802950273,-0.02535315230488777,-0.08021118139079754,0.022567113861441612,0.14191733373221846,0.9792997213117972,0.271066723687762,right,-0.0018860697746276855,-0.2607225710144803,-1.2066527214732021,-9.398077382415533,-0.1199898514187613,0.012277904897928238,0.003650479018688202,2.527946698257327,0.006386667490005493
1745972307276149800,1.090149658203125,-0.12783508623727421,-0.03367733582854271,-0.0802310690125912,-0.005321431905031204,0.14117598209073998,0.9793551033336296,0.26950207920635016,right,0.0007205009460449219,-0.2614464717617881,-1.2077364981219172,-9.396090592512488,-0.12039797288535477,-0.013796387240290642,0.0031058043241500854,2.5348048935890195,0.002180933952331543
1745972307316149800,1.130149658203125,-0.12797650036188354,-0.042001523077487946,-0.08025091404644269,-0.03320997953414917,0.14043457086759376,0.9794098922944563,0.2679371422574393,right,0.0033264756202697754,-0.2621702253886976,-1.2088307961646467,-9.394097957390546,-0.12080602075444268,-0.03987068310379982,0.0025621727108955383,2.5416607508331537,-0.002024531364440918
1745972307356150000,1.17014990234375,-0.12863372778628268,-0.035888973623514175,-0.08061798001288639,-0.003974132239818573,0.13966171781786582,0.979336085689904,0.26616202777706294,right,0.01054537296295166,-0.264650681251385,-1.2141921040020882,-9.387019981828331,-0.12204882451181445,-0.0791178047657013,0.007142573595046997,2.5651465480998157,-0.006114542484283447
1745972307396149800,1.210149658203125,-0.12804280563018589,-0.03659837320446968,-0.08034474194447003,0.03791332617402077,0.13871721726220476,0.9793409019236461,0.26420368195251,right,0.0024709701538085938,-0.2668774964136245,-1.207912512275949,-9.382047454112767,-0.12326165723172623,-0.03169938176870346,0.009896419942378998,2.5862176854401824,-0.0059961676597595215
1745972307436149800,1.250149658203125,-0.12791025282127252,-0.0612286701798439,-0.0801853221926652,0.016517965123057365,0.13787630100333068,0.9794519460179135,0.26249488524225456,right,0.0002605319023132324,-0.2670568576182374,-1.2066096860490738,-9.381747009861469,-0.1234274230264407,-0.01802229881286621,0.00992729514837265,2.587914260224998,0.0003460347652435303
1745972307476149800,1.290149658203125,-0.12820810652714845,-0.062314268201589584,-0.08013995871672365,-0.0028883647173643112,0.13647397315223794,0.9796531783754859,0.25960408786684797,right,-0.002103745937347412,-0.2668430990241181,-1.2094747200913727,-9.381935810431838,-0.12341793581823285,-0.024538274854421616,0.004735998809337616,2.585892106747627,0.0036885440349578857
1745972307516149800,1.330149658203125,-0.1286292403556502,-0.016687102615833282,-0.08028396823581005,0.008301853202283382,0.135377841818073,0.9796979448200949,0.25724725382901226,right,0.0017872452735900879,-0.2682488070664039,-1.21295817829296,-9.377811423978208,-0.12417395604452038,-0.05300509184598923,0.0037224963307380676,2.5991870571285483,0.0027444660663604736
1745972307556149800,1.370149658203125,-0.1282862353962439,0.015889808535575867,-0.08020957812214752,-0.003306824713945389,0.13531984689068208,0.9795991297575385,0.2570905539089047,right,-0.003929495811462402,-0.2699971417179219,-1.2091582745533436,-9.37370574222505,-0.1250617619260217,-0.04253437742590904,-0.003682643175125122,2.6157152903422713,-0.0022905170917510986
1745972307596150000,1.41014990234375,-0.12810772853709743,0.03933078050613403,-0.08026165521626284,-0.013754433020949364,0.1358849868671259,0.9794475480143638,0.25821289082949783,right,-0.002653777599334717,-0.27116502130918374,-1.207093889369443,-9.370884839585424,-0.12560211193605755,-0.011509226635098457,-0.0051734596490859985,2.626751355880499,0.002007037401199341
1745972307636149800,1.450149658203125,-0.1277652941812143,0.053979191929101944,-0.08025556722851622,-0.004359488375484943,0.13706953023000956,0.9792848847439464,0.2606701347922718,right,-0.001297593116760254,-0.2712870521047825,-1.2038440207280219,-9.370979532131551,-0.12558677092926365,0.01754523627460003,-0.00474199652671814,2.6279043253079055,0.0063596367835998535
1745972307676149800,1.490149658203125,-0.12778482112318681,0.050623901188373566,-0.08034608590358848,-0.012659096159040928,0.13790507099358254,0.9791976117325673,0.2623949840057307,right,-0.0013701915740966797,-0.2708347056379838,-1.2041783672489226,-9.372134547385572,-0.12529419004639658,0.028549199923872948,-0.005772948265075684,2.6236303012505173,0.0060585737228393555
1745972307716149800,1.530149658203125,-0.12824111059500362,0.027698971331119537,-0.08063432378742647,-0.019399605691432953,0.13884478438653514,0.979110799670937,0.2642972965115391,right,0.00020557641983032227,-0.2699431641368033,-1.2087533470142633,-9.373899803492426,-0.12474857237224335,0.027645869180560112,-0.002781905233860016,2.6152050027325746,0.005959868431091309
1745972307756149800,1.570149658203125,-0.12951738842573776,-0.0066583603620529175,-0.0812436433837456,-0.011554807424545288,0.13911008397158495,0.9790782997506381,0.26470828985653166,right,0.0025835037231445312,-0.2692690096091294,-1.2209434779584407,-9.374096202847362,-0.12431244680799475,0.015459999442100525,0.0006512776017189026,2.6088325450912118,-0.0007731914520263672
1745972307796149800,1.610149658203125,-0.1303512395700453,-0.008368909358978271,-0.08162009910055883,-0.022415995597839355,0.1389752378896728,0.9790802015493226,0.26433355358737637,right,-0.00412142276763916,-0.2691299307325049,-1.2288067586794496,-9.373434524068236,-0.12420149168229634,0.014353232458233833,-0.0001904815435409546,2.6075179553613066,-0.005857676267623901
1745972307836150000,1.65014990234375,-0.13236527055173689,-0.027901161462068558,-0.08253133237925737,-0.03459173068404198,0.138643013034609,0.9790818169513387,0.26341356047007897,right,0.002421140670776367,-0.2688389908425059,-1.2477826773062348,-9.37169206431508,-0.12395671176321975,-0.00001519918441772461,0.005831234157085419,2.6047674876093865,-0.004464596509933472
1745972307875191300,1.68919140625,-0.1340442729483444,-0.024732595309615135,-0.0832472473484748,0.003207218134775758,0.1379770472486468,0.9791311349656941,0.2618481112195122,right,0.006118401885032654,-0.26868865414355325,-1.263568421589583,-9.369971816393733,-0.1238317030880702,0.005148869939148426,0.0050938669592142105,2.6033459303736683,-0.012140002101659775
1745972308054382800,1.8683828125,-0.13630806297026013,0.021568024531006813,-0.08440860174283343,0.01281812321394682,0.1378781401714031,0.9789710501708407,0.2612857332055705,right,0.006047855596989393,-0.2701572247346301,-1.2842558203093706,-9.363289562150836,-0.12441979766757644,-0.04440877214074135,0.003433916252106428,2.6172283252537247,0.008416705764830112
1745972308094383000,1.908383056640625,-0.13459330436990197,0.02281179092824459,-0.08377370874136271,0.011463046073913574,0.13813592719570186,0.9788033093689616,0.2618930685450812,right,-0.006703495979309082,-0.27293407127856945,-1.2672181762687862,-9.358239877545833,-0.1258750030784055,-0.03419975936412811,-0.003634154796600342,2.643461959923804,0.01083424687385559
1745972308248681500,2.062681396484375,-0.13395394794009138,-0.009128897450864315,-0.08382815094913387,0.026986436918377876,0.13977915003319658,0.9784118078156124,0.26520590210389705,right,0.013639518991112709,-0.2755469652388771,-1.2603078123584388,-9.352170786765218,-0.127062271773153,0.04158104583621025,0.0007823306368663907,2.668128199146688,0.004610040225088596
1745972308424453400,2.238453369140625,-0.1366790274688347,-0.05547042936086655,-0.08447412498410911,-0.0008874046034179628,0.13656342966728716,0.9790777205379935,0.2585039111573535,right,0.0015594745054841042,-0.271121944834553,-1.2873846198543906,-9.360306746947765,-0.12498518186022127,-0.002886886475607753,0.007646292448043823,2.626344528645277,-0.012738209217786789
1745972308619421700,2.433421630859375,-0.14066756222807444,0.04354081675410271,-0.08649772206480498,-0.03871810436248779,0.1390269735815854,0.9788443350235205,0.2632239172110946,right,-0.005007958505302668,-0.2674190199569707,-1.3260625794254242,-9.36466201954782,-0.122691645625557,-0.006779518909752369,0.0009255085606127977,2.591339850759506,0.013418547809123993
1745972308659421700,2.473421630859375,-0.1419763768448642,0.02936565689742565,-0.08727920436104904,0.00249510258436203,0.1398831622460387,0.9786258091757299,0.26476882282090797,right,0.007788598537445068,-0.26818302727049514,-1.338037533248961,-9.360956150767207,-0.12290809595446922,0.004466517828404903,0.007071852684020996,2.598565125837922,0.010459572076797485
1745972308699421700,2.513421630859375,-0.1418813166989259,-0.0074244048446416855,-0.08724908537380928,-0.01997976563870907,0.14020208324492783,0.9786119799120728,0.26545512128630017,right,-0.010838091373443604,-0.26775863631040175,-1.337303519885987,-9.362174294385314,-0.12267660997520821,0.05176767334342003,-0.0052820295095443726,2.5945517985433337,0.003609895706176758
1745972308739421700,2.553421630859375,-0.14290967435706062,-0.049070343375205994,-0.08742568504333977,-0.006622706539928913,0.1392503589453346,0.978944517589528,0.26356999776179624,right,-0.012117147445678711,-0.26425770553005334,-1.3482159590445457,-9.369727486243843,-0.1209694180469557,0.06039665266871452,-0.005032762885093689,2.561426943054795,0.0023981332778930664
1745972308779421700,2.593421630859375,-0.14393022827694926,-0.09071628749370575,-0.08760194302519832,0.0067343516275286674,0.1382981655279934,0.979273220573096,0.2616905592922347,right,-0.013407647609710693,-0.2607549559130992,-1.359056063619256,-9.377168449899553,-0.11926175425166306,0.06902563571929932,-0.004790827631950378,2.5282532799884674,0.0011913478374481201
1745972308819421700,2.633421630859375,-0.1461646375703826,-0.11389296501874924,-0.0883539955999672,-0.008623925037682056,0.13648184219425633,0.9795707498094329,0.2578155023649168,right,0.014854252338409424,-0.2588697111073725,-1.3806968175411223,-9.378807449278234,-0.11835319497096118,0.03798468038439751,0.005824372172355652,2.510385907125473,-0.012375399470329285
1745972308859421700,2.673421630859375,-0.1433492175861815,-0.05125187337398529,-0.0867855707650795,0.014422166161239147,0.1350883931820335,0.9799118781275321,0.25535237887032675,right,-0.0010828375816345215,-0.25812761478476476,-1.3545518840678035,-9.384498354396223,-0.11828778003658637,0.008714936673641205,-0.004196062684059143,2.5033503094002603,-0.012256979942321777
1745972308899421700,2.713421630859375,-0.14053248582830544,0.011389210820198059,-0.08521675395029468,0.03746825456619263,0.13369430281636074,0.9802486499131716,0.25288754068178115,right,-0.017029404640197754,-0.2573922448692549,-1.3283704179763793,-9.39009690505564,-0.11822183239261248,-0.0205548033118248,-0.014220237731933594,2.4963769632562993,-0.012144893407821655
1745972308939421700,2.753421630859375,-0.1408947874254695,0.000013636425137519836,-0.08550679874389457,0.002045378088951111,0.13362609080327428,0.9800996547873203,0.25258247850224985,right,-0.011256933212280273,-0.25965021639695757,-1.3309773856043814,-9.384010278618335,-0.11931982077276072,-0.0480700321495533,-0.011856317520141602,2.517784200683236,-0.0020259320735931396
1745972308979421700,2.793421630859375,-0.1412580064353223,-0.01136193796992302,-0.08579673092565179,-0.03337749466300011,0.1335577192215452,0.9799493098656415,0.2522764041333249,right,-0.005489528179168701,-0.2619080641947366,-1.333582015144825,-9.377873967820406,-0.1204176497380716,-0.0755852609872818,-0.009492620825767517,2.539177701845765,0.008094429969787598
1745972309019421700,2.833421630859375,-0.1427036709885036,-0.021688900887966156,-0.08654793456459743,-0.058172814548015594,0.133218564617365,0.9798294758100289,0.25130996705778136,right,-0.005259513854980469,-0.26367050553068755,-1.3464993643850087,-9.371492157828808,-0.12122842522811232,-0.06054426729679108,-0.01555846631526947,2.555867847622931,0.0023942887783050537
1745972309059421700,2.873421630859375,-0.1454485574573543,-0.04021383821964264,-0.08789268870621991,-0.03379649668931961,0.132395299477694,0.9796921429868125,0.24916086220874392,right,0.00230330228805542,-0.2659681988967535,-1.371363172006607,-9.361925288060307,-0.12226819964248993,-0.07563862204551697,-0.011937305331230164,2.5776149845287204,-0.001159071922302246
1745972309099421700,2.913421630859375,-0.14820028990933454,-0.05873877555131912,-0.0892371297946485,-0.009420176967978477,0.13157156419398186,0.9795513230199925,0.24700389044549173,right,0.009854793548583984,-0.26826020268693745,-1.396243492371589,-9.352248528176546,-0.12330754124635326,-0.09073297679424286,-0.00831449031829834,2.5992949014171955,-0.004705548286437988
1745972309139421700,2.953421630859375,-0.15047700721891577,-0.06299469619989395,-0.09027068406703692,-0.012511586770415306,0.13016083010847931,0.9795080063723213,0.24370701201606723,right,0.007307887077331543,-0.270470574401653,-1.4166674178496002,-9.34334216814339,-0.12439179522875798,-0.05032965913414955,-0.004701465368270874,2.6201895131468773,-0.011419087648391724
1745972309356960500,3.17096044921875,-0.1419270325167679,-0.08894214779138565,-0.08446764166346707,-0.09300576895475388,0.1315178364935873,0.9818186736343225,0.24947550270078372,right,-0.001172468881122768,-0.23589193892193994,-1.3487455358766018,-9.439194405701755,-0.10770436480772397,0.5456867218017578,0.0078006042167544365,2.291915590158105,0.013522949069738388
1745972309396960500,3.21096044921875,-0.14586842816027187,-0.07337834686040878,-0.0849095622967719,-0.04645197093486786,0.1309738851703795,0.9831928060403067,0.24946660093548667,right,0.002633213996887207,-0.20999866872993392,-1.3940988815583288,-9.489351060011982,-0.09470000500123224,0.5362970232963562,0.021290265023708344,2.0442808457657695,0.050140380859375
1745972309548224800,3.362224853515625,-0.1471394715291069,0.04580653831362724,-0.0854283820395489,0.008460561744868755,0.13090674645842051,0.9832445874543423,0.2493109798458331,right,-0.007038146257400513,-0.20829352903994724,-1.4066681480132042,-9.491005841481686,-0.09378353821481457,-0.10974397510290146,-0.0023651907686144114,2.02792358520478,-0.005875010043382645
1745972309787815700,3.601815673828125,-0.13879636823049463,0.05262750759720802,-0.08314305998249645,0.06020618602633476,0.1369654827221368,0.9815889684064772,0.26129908676586905,right,0.0011477083899080753,-0.2288889105694147,-1.321376175174862,-9.459034832203388,-0.10397432147000715,-0.0069701760075986385,-0.0024202330969274044,2.225085595075041,-0.001536873052828014
1745972309827815400,3.6418154296875,-0.13826012160956624,-0.023864079266786575,-0.08273894276605011,0.007125288248062134,0.1364842007046193,0.9817663429397633,0.26046284807746733,right,-0.006058752536773682,-0.22727752247592134,-1.316796153908223,-9.46328138373196,-0.10325307115042508,0.0019101505167782307,-0.0038043558597564697,2.2096925033710897,0.006761074066162109
1745972309867815400,3.6818154296875,-0.13912389490294105,-0.020737893879413605,-0.08305413428063971,0.007969331927597523,0.1354245647141474,0.9818761176240828,0.25820645338615095,right,-0.002974390983581543,-0.22740536284382856,-1.3249305066555737,-9.461860411018133,-0.10335077122623605,-0.013869090005755424,-0.0015581250190734863,2.210914007990062,-0.0010125041007995605
1745972309907815400,3.7218154296875,-0.1399880123385304,-0.017611708492040634,-0.08336922713685145,0.008813375607132912,0.13436472772343283,0.9819847263890434,0.2559498256852055,right,0.00010961294174194336,-0.22753131877320315,-1.333067343620956,-9.460435931172967,-0.10344834642819102,-0.02964833378791809,0.0006883442401885986,2.2121173924304545,-0.008784234523773193
1745972309947815700,3.761815673828125,-0.140156041975276,0.005880163982510567,-0.08344355582640615,0.016388067975640297,0.13386839378696933,0.982001067745247,0.2548767120990108,right,0.002566039562225342,-0.2283333784699715,-1.334408675227314,-9.45845206387937,-0.10387644749660441,-0.02255767025053501,0.0007554292678833008,2.2197794514909384,-0.013742893934249878
1745972309987815700,3.801815673828125,-0.140156041975276,0.006280605681240559,-0.08344355582640615,0.017274577170610428,0.13386839378696933,0.982001067745247,0.2548767120990108,right,-0.001559615135192871,-0.2283333784699715,-1.334408675227314,-9.45845206387937,-0.10387644749660441,0.005172956734895706,0.000053748488426208496,2.2197794514909384,-0.00574725866317749
1745972310027815700,3.841815673828125,-0.1397104362852395,0.0022588050924241543,-0.08320085053296383,0.006081306375563145,0.13384360106885465,0.9820439582528442,0.25489675133753864,right,-0.00035244226455688477,-0.22791080596607466,-1.3303243285231292,-9.459974158880113,-0.10369752028667084,-0.009329565800726414,-0.0007103085517883301,2.215742743320763,-0.002004384994506836
1745972310067815400,3.8818154296875,-0.13984517643304253,0.029329394921660423,-0.08333318240347541,-0.01425697561353445,0.13404338953950662,0.9819655513943218,0.2552443030542929,right,-0.0003625154495239258,-0.2287252381219004,-1.331346949569136,-9.45800432011187,-0.10407474125954974,-0.04971640929579735,-0.000995919108390808,2.2235224374115465,-0.0023091882467269897
1745972310107815400,3.9218154296875,-0.13984037812919958,0.04111341014504433,-0.08352484684502161,0.007545086555182934,0.13454350047748845,0.9817536611269828,0.25612546948162174,right,0.00520014762878418,-0.23122366044838177,-1.3305230659656226,-9.452480003732441,-0.10526741445244736,-0.05550241097807884,0.0014485269784927368,2.2473785292953252,-0.008942186832427979
1745972310147815400,3.9618154296875,-0.13886036319978345,0.058563053607940674,-0.08322078224026891,0.03157844766974449,0.1353511664884541,0.9815898747371713,0.2577946258413366,right,0.0072286128997802734,-0.2327166878511303,-1.3207929684594273,-9.450445867556333,-0.10599832583727296,-0.018736980855464935,0.003923401236534119,2.2616278577916322,-0.008510589599609375
1745972310187815700,4.001815673828125,-0.13667937672287356,0.05837146192789078,-0.08231176121595418,0.04148079454898834,0.13646311685234694,0.9814809905211891,0.2602693110691373,right,-0.0011719465255737305,-0.23321645054539303,-1.3000243211969733,-9.45218306661248,-0.10628990867033414,-0.00659176055341959,0.00412006676197052,2.2663965334981677,-0.0005457848310470581
1745972310227815700,4.041815673828125,-0.1346418988469787,0.04546087980270386,-0.08144614257296133,0.025123877450823784,0.137422357113238,0.981396781422729,0.26242815245580514,right,-0.007742822170257568,-0.23353577545171192,-1.2806658329933882,-9.454094453191757,-0.10649806440343315,-0.01145830936729908,0.002853676676750183,2.2694430615872143,0.006260782480239868
1745972310267815700,4.081815673828125,-0.13368771256404677,0.029321564361453056,-0.08112048359426081,0.014326611533761024,0.13798366213179963,0.9812734526119944,0.2636087627708629,right,-0.0028578639030456543,-0.23483670479305152,-1.271249769872427,-9.452378296923637,-0.10715543772116795,-0.04626374691724777,0.007539317011833191,2.281852607435733,0.0073456913232803345
1745972310307815400,4.1218154296875,-0.13315208870562498,0.023268399760127068,-0.08105042924523295,-0.006049584597349167,0.138353912267403,0.9810887582480347,0.26429232083683035,right,-0.004590749740600586,-0.23737953742726148,-1.265412149760127,-9.447276589870452,-0.10841484455843799,-0.06658235937356949,0.0033795535564422607,2.306097406376153,0.0046216994524002075
1745972310347815400,4.1618154296875,-0.13379739396260235,0.005005892366170883,-0.08152010554415264,-0.03743404895067215,0.13866746546140535,0.9808987853908127,0.26475366837667647,right,-0.002339601516723633,-0.23946498309405437,-1.2708639854252337,-9.441671024948358,-0.10937649253395129,-0.025631967931985855,0.0014679431915283203,2.32597012771219,0.004425764083862305
1745972310387815400,4.2018154296875,-0.13532663490970576,-0.010967936366796494,-0.08227899269134445,-0.034812234342098236,0.1387277712316162,0.9808277661624987,0.2646960355406774,right,0.0035752058029174805,-0.2396614328016927,-1.2852394245192407,-9.43926337928474,-0.10936934826075977,0.020138200372457504,0.00035543739795684814,2.327841620672494,0.000945746898651123
1745972310427815700,4.241815673828125,-0.1362898152509262,-0.02006755769252777,-0.08264154490665761,-0.008964207023382187,0.13855740125967436,0.9809064643415026,0.2643174125886748,right,0.006147146224975586,-0.23820647430646485,-1.2947893431529403,-9.44136707356572,-0.10860308183382238,0.05654348060488701,0.00008594989776611328,2.3139786611452697,-0.0017861723899841309
1745972310467815700,4.281815673828125,-0.1361524824266776,-0.03436924144625664,-0.0823889932874828,0.016757456585764885,0.13810085154253135,0.9811133312748547,0.2635237885783726,right,0.004140973091125488,-0.23588055624259743,-1.2942197265714406,-9.44685105793476,-0.10750198866916405,0.06004386767745018,0.0000715106725692749,2.2918071613475677,-0.0019811689853668213
1745972310507815700,4.321815673828125,-0.13508363292434572,-0.03338520601391792,-0.08165428712822677,0.03444696217775345,0.1375347856546312,0.9813846117224597,0.2626257250183369,right,0.00014495849609375,-0.2332220565315241,-1.2849378112241625,-9.454232984879612,-0.10630538253609023,0.06357167661190033,0.00014553964138031006,2.266450017251074,0.0009188801050186157
1745972310547815700,4.361815673828125,-0.134307828129731,-0.02119123935699463,-0.08114184804117162,0.0202026404440403,0.13714726002538896,0.9815589409099279,0.2620042771879901,right,-0.0018530488014221191,-0.2316006103710176,-1.278093206026405,-9.458856553027033,-0.10558659213526417,0.04312615096569061,0.0016139298677444458,2.250976553787291,-0.0028173476457595825
1745972310587815400,4.4018154296875,-0.1335312645341302,-0.008997270837426186,-0.08062932557601278,0.0059583187103271484,0.1367596248209916,0.9817322986689792,0.26138181391546,right,-0.003854095935821533,-0.22997961855944152,-1.271231503563374,-9.46345031055808,-0.10486769479447547,0.022680625319480896,0.003080591559410095,2.235501482888311,-0.0065534114837646484
1745972310627815400,4.4418154296875,-0.13306167560520157,0.00796455517411232,-0.08034615480666484,0.0025150973815470934,0.13675258874051247,0.9818026267663104,0.2614659940518627,right,-0.0037124156951904297,-0.2290413676462438,-1.2670650315336882,-9.466120991072058,-0.10443491181232095,0.01440521702170372,0.003380998969078064,2.2265416391022503,-0.008155032992362976
1745972310667815700,4.481815673828125,-0.13299159096454305,0.005566424690186977,-0.08031037263431803,-0.01620451547205448,0.13696078264623632,0.9817994184620256,0.2619187000809275,right,-0.003637075424194336,-0.22863104482390526,-1.2665227413505316,-9.467114093762635,-0.1042196898121853,-0.0028386861085891724,0.0019647330045700073,2.2226227120928463,-0.004253402352333069
1745972310707815700,4.521815673828125,-0.1334361605605015,-0.0003811279311776161,-0.08056392322068744,-0.020505579188466072,0.1371350267368122,0.9817415133744153,0.26220937233733793,right,0.001011967658996582,-0.2289615906691392,-1.270633537670225,-9.46582171586454,-0.1043401252840153,-0.01904820092022419,0.0016117244958877563,2.2257797148190437,-0.0026088207960128784
1745972310747815700,4.561815673828125,-0.13364586335839565,-0.007777811028063297,-0.08070817242039138,-0.008777976967394352,0.1371539710074133,0.98169216563715,0.2621897438099016,right,-0.0009010434150695801,-0.2296557200833711,-1.2724123839110135,-9.464021388444303,-0.10466794518614946,-0.030219389125704765,0.00034855306148529053,2.232408631439507,-0.0006721615791320801
1745972310787815700,4.601815673828125,-0.13409927061613128,-0.013997159898281097,-0.08097197861045209,-0.013100190088152885,0.1369336294769883,0.9816412424233477,0.2616323200362472,right,-0.0004385709762573242,-0.2308134146044924,-1.276356883753091,-9.4608760761559,-0.1052288044405194,-0.043452776968479156,0.00016979873180389404,2.243462232634425,-0.0003279745578765869
1745972310827815400,4.6418154296875,-0.13435616593730682,-0.008929342031478882,-0.08115495853414832,0.0008493000641465187,0.13672094053589814,0.9815812236428437,0.2610985197020897,right,0.0011015534400939941,-0.23221410420898775,-1.2783651548355817,-9.457424474397301,-0.10592174763873231,-0.043151672929525375,-0.00011992454528808594,2.256831855686754,0.0011852234601974487
1745972310867815400,4.6818154296875,-0.13461392700001873,-0.003861525561660528,-0.08133788623954889,0.014798790216445923,0.13650807935910605,0.9815206830237675,0.2605639819831318,right,0.0026397109031677246,-0.23361465273294113,-1.2803773714408277,-9.453952998894453,-0.10661463318312257,-0.042850565165281296,-0.0004092305898666382,2.270195633520186,0.002698957920074463
1745972310907815400,4.7218154296875,-0.1340012376792481,0.0059965685941278934,-0.08111898478381764,0.024624377489089966,0.13638561893686213,0.9814649582062255,0.26029887685341896,right,-0.0004665851593017578,-0.23520228923695974,-1.2741016521722077,-9.451151969999074,-0.10744794415379451,-0.04031459614634514,-0.0005803108215332031,2.2853392805077135,0.0015611350536346436
1745972310947815700,4.761815673828125,-0.133152194338485,0.004466063808649778,-0.08079446845971139,0.01763489656150341,0.1363647096115408,0.9814043506277026,0.2602698109471156,right,-0.002296268939971924,-0.23675360893089198,-1.2656046035923063,-9.448705161368846,-0.10826985220952073,-0.036228228360414505,0.0007685422897338867,2.3001308991871774,0.0029832124710083008
1745972310987815700,4.801815673828125,-0.1325882601344345,0.00006547383964061737,-0.08058117378332659,0.011823125183582306,0.13633163367507958,0.981361810561855,0.26020841759616475,right,-0.0018317103385925293,-0.23785914213313675,-1.2599389790460467,-9.446890805423259,-0.10885437884017649,-0.01902461238205433,0.003935165703296661,2.3106686598144472,0.004885181784629822
1745972311027815700,4.841815673828125,-0.13203039909298758,0.0019763910677284002,-0.08033538602009545,0.004124662838876247,0.13632379340542472,0.98135484656287,0.26023203255346117,right,-0.005311846733093262,-0.23830065882752857,-1.254534343523532,-9.446580424299835,-0.10910854570629104,-0.007278885692358017,0.004274912178516388,2.3148761945068834,0.00428888201713562
1745972311067815400,4.8818154296875,-0.13182821134406777,0.009967257268726826,-0.08026946226446088,-0.007570123299956322,0.13647113238739778,0.9813247685081941,0.2605411149803496,right,-0.005626678466796875,-0.2385722916646265,-1.252541562271118,-9.446209837421774,-0.10924348155283009,-0.007403996307402849,0.003278501331806183,2.3174647496953606,0.0017329305410385132
1745972311107815400,4.9218154296875,-0.13210920425441797,0.014422547072172165,-0.08046873368273931,-0.015118319541215897,0.13674922033121675,0.9812436591047782,0.26104855127154764,right,-0.001475214958190918,-0.2391284496166736,-1.2550259264327586,-9.444578436827658,-0.10947734086874587,-0.01535266637802124,0.0029720664024353027,2.3227638790167866,0.000547260046005249
1745972311147815400,4.9618154296875,-0.13253424451741042,0.013812646269798279,-0.08076695424593297,-0.012344710528850555,0.1370924801898217,0.9811260139441261,0.26165365878985847,right,0.0006968379020690918,-0.24006064547392025,-1.25875342252329,-9.441893727788328,-0.10988213849570475,-0.03151867166161537,0.0016528964042663574,2.331644520086795,0.0003346949815750122
1745972311187815700,5.001815673828125,-0.13311331173783097,0.0016367342323064804,-0.0811434098164506,-0.019169311970472336,0.1373241640655211,0.9810018344593832,0.2619997538405864,right,0.0016690492630004883,-0.2412686868097808,-1.2638459233567119,-9.438364384618401,-0.11042224847036235,-0.030002446845173836,0.0010357052087783813,2.3431499567024408,0.0017451196908950806
1745972311227815700,5.041815673828125,-0.1339374024709767,-0.013682633638381958,-0.0815909807605902,-0.019635790959000587,0.1372293014705793,0.9809260126089283,0.26166125389072664,right,0.0008074641227722168,-0.24229226047103747,-1.2713026691034435,-9.434937917301058,-0.11088257943701788,-0.025341302156448364,0.000046893954277038574,2.3528958362996577,0.0021980106830596924
1745972311267815700,5.081815673828125,-0.13490818642573918,-0.030291283503174782,-0.08204994479377534,-0.009932179003953934,0.13678092973723732,0.9809147117790569,0.2606018005196909,right,0.0017230510711669922,-0.24298155982894984,-1.2802429314061998,-9.432090126654504,-0.11119821620757304,-0.01824556104838848,0.00048682093620300293,2.3594575329028067,0.0019659847021102905
1745972311307815400,5.1218154296875,-0.1358366841639841,-0.03084215521812439,-0.08244991589474024,-0.0035520968958735466,0.1361864044972543,0.980947435523747,0.25926810603546835,right,0.0027064085006713867,-0.24329389704861745,-1.2889001389838755,-9.430166465115546,-0.11134322559957918,-0.011958569288253784,0.00266323983669281,2.3624304112337526,-0.0005124062299728394
1745972311347815400,5.1618154296875,-0.1361918599775874,-0.01298387348651886,-0.08259781002947433,-0.0004902912769466639,0.13575798258039776,0.9809685876128852,0.2583316739573839,right,0.0022809505462646484,-0.24372659630941185,-1.2921104793325067,-9.428694638997316,-0.11157040636508407,-0.013422760181128979,0.002258479595184326,2.3665485140770675,-0.0010554194450378418
1745972311387815400,5.2018154296875,-0.13590858484609097,0.012300217524170876,-0.08248803419205332,0.007912755012512207,0.13572819113828505,0.9809492002086342,0.25827488136286764,right,0.00152665376663208,-0.2442686391346396,-1.289265611295402,-9.427788045546412,-0.11185841026142877,-0.011432122439146042,0.0016859471797943115,2.3717066274926064,-0.0037119388580322266
1745972311427815700,5.241815673828125,-0.13545872047799526,0.016490262001752853,-0.08233161018614153,0.011199548840522766,0.1360073786451205,0.9808938232143469,0.25886848383039723,right,0.00013458728790283203,-0.2447871300939505,-1.2848580239862202,-9.427147409555316,-0.11211936913338938,-0.010494274087250233,0.0022954344749450684,2.3766401383720335,-0.00166301429271698
1745972311467815700,5.281815673828125,-0.13494496243853912,0.014133738353848457,-0.08212794338231422,0.008050723932683468,0.13632301309750075,0.9808575363886695,0.25956271541789133,right,-0.002581000328063965,-0.24494345551889726,-1.2799645528562367,-9.42743791693449,-0.1122026405062084,-0.0037788287736475468,0.001329660415649414,2.378127454320341,0.00042016804218292236
1745972311507815700,5.321815673828125,-0.13473962007693108,0.017756275832653046,-0.08208533501037661,-0.0047629158943891525,0.13662917734296362,0.9807985386358616,0.26019097814457176,right,-0.0030898451805114746,-0.24532347911250513,-1.2779071819350123,-9.42680429520607,-0.11237762852471948,-0.023093996569514275,0.0002737194299697876,2.381742722208053,0.0019749104976654053
1745972311547815700,5.361815673828125,-0.13495420357806284,0.025429215282201767,-0.08232715896682218,-0.004542919807136059,0.1370919344566157,0.9806358088579801,0.26103403429625227,right,0.0019349455833435059,-0.24680252874901024,-1.2794545575074852,-9.423028868320584,-0.11305514710423649,-0.0541161373257637,0.00370025634765625,2.39581041052714,0.0017538517713546753
1745972311587815400,5.4018154296875,-0.13488608650601844,0.05463050305843353,-0.0825178886450782,-0.005688789766281843,0.13784728347498282,0.9803854805448253,0.2624615067833317,right,0.000023126602172851562,-0.24916798163717635,-1.2780470287971197,-9.417474156802893,-0.11416325091198812,-0.05446953326463699,0.0014554262161254883,2.4182978444062173,-0.0019196569919586182
1745972311627815400,5.4418154296875,-0.13479419679801952,0.0794932022690773,-0.08274803001220785,-0.005049766041338444,0.1391650672877749,0.9800723214814882,0.2650552572445633,right,0.004469692707061768,-0.2512448161946793,-1.2765040371388197,-9.412593983545898,-0.11508263719871671,-0.026006150990724564,0.0024760812520980835,2.4380304266192017,-0.0007124543190002441
1745972311667815700,5.481815673828125,-0.1340968436338319,0.07799939811229706,-0.0826348953209815,0.005754207260906696,0.14074884058477236,0.9798288145282378,0.2683372434880936,right,0.003673851490020752,-0.25188589221627056,-1.2697305974811315,-9.411931135722995,-0.11531057662402254,0.014491822570562363,0.002547517418861389,2.444119391144067,0.0012500137090682983
1745972311707815700,5.521815673828125,-0.13306857257888585,0.05671016126871109,-0.08224518677162472,0.006564760114997625,0.1422010967604983,0.9797199232256073,0.2714754197776241,right,0.00020766258239746094,-0.25082187681917417,-1.2603962212942539,-9.415804177764057,-0.11473150918536987,0.0503467433154583,0.0022055059671401978,2.4340128615409133,0.006629824638366699
1745972311747815700,5.561815673828125,-0.1324559766298791,0.02344246208667755,-0.0819431297128083,0.004880250431597233,0.14308444116725186,0.9797244738878378,0.27343930997967564,right,0.0008484721183776855,-0.2490132649528071,-1.2552072743490337,-9.420922835952043,-0.11380659114992872,0.05662553012371063,0.002099543809890747,2.4168274795927105,0.006936594843864441
1745972311787815700,5.601815673828125,-0.13239486271946088,-0.004012824967503548,-0.08183983309363223,-0.005433911457657814,0.14334950921341438,0.979794613943627,0.27407208881750555,right,0.0005207061767578125,-0.24729309240708766,-1.2551783405154944,-9.42510625911653,-0.11294045542481762,0.037920862436294556,0.0019192993640899658,2.400475041337311,0.005517825484275818
1745972311827815400,5.6418154296875,-0.1325649186592701,-0.011125660501420498,-0.08184917653237456,0.0010060081258416176,0.14319340522932494,0.9798677933916656,0.2737784443327019,right,0.0017547011375427246,-0.24638991194084767,-1.2570672230020166,-9.427038103961944,-0.112496794157287,0.01966750994324684,0.001341491937637329,2.391886368951201,0.0004825890064239502
1745972311867815400,5.6818154296875,-0.13262934161916057,-0.004348914138972759,-0.08182937345083027,0.0070016589015722275,0.14296344454311707,0.9799242152969041,0.27332170469565,right,0.002262294292449951,-0.245985115913052,-1.2578025515392421,-9.427916055840253,-0.11231209670766083,0.010624377988278866,0.0013160556554794312,2.3880364155247804,-0.0010720640420913696
1745972311907815400,5.7218154296875,-0.13252433566849992,-0.007546297274529934,-0.08175984474849703,0.0034556554164737463,0.14278343240695454,0.9799518968830863,0.2729647901805357,right,-0.001856386661529541,-0.24601598130184046,-1.2568027268469333,-9.427975092551112,-0.11234936071034189,0.006547542288899422,0.0009742379188537598,2.3883299916438756,-0.0016636252403259277
1745972311947815700,5.761815673828125,-0.13241939721692997,-0.010743680410087109,-0.0816903249489664,-0.00009034830145537853,0.14260335863653825,0.9799796805088293,0.2726077948641421,right,-0.005975127220153809,-0.24604694714285258,-1.2558036328069866,-9.42803354474008,-0.11238663879477791,0.0024707065895199776,0.0006324946880340576,2.388624444545805,-0.002255275845527649
1745972311987815700,5.801815673828125,-0.13269791419191376,-0.02666012942790985,-0.08178166454533449,-0.010003771632909775,0.14226790939066186,0.9800243318779416,0.271895274759695,right,-0.004513919353485107,-0.2459662626942927,-1.2584550240986048,-9.427874554786085,-0.11235629507813538,-0.0035544163547456264,0.0015215277671813965,2.3878571134351194,-0.0006608664989471436
1745972312027815700,5.841815673828125,-0.13339856136756112,-0.022150224074721336,-0.08208438073846387,-0.010545642115175724,0.1417549505938857,0.9800522876251476,0.2707492048973709,right,0.0002512335777282715,-0.2463447712758417,-1.2649400022037327,-9.42609351658821,-0.11253939508948545,-0.01452723704278469,0.0007580667734146118,2.3914570376232267,-0.004132360219955444
1745972312067815400,5.8818154296875,-0.13406339524964758,-0.0064430441707372665,-0.08241426648661383,-0.014201946556568146,0.14147180423146982,0.9800290241068833,0.27006058850190806,right,0.0008825063705444336,-0.24702955345408006,-1.2709873195439576,-9.423625665169954,-0.11285695323848961,-0.020681923255324364,-0.0007272064685821533,2.397969195996225,-0.006535276770591736
1745972312107815400,5.9218154296875,-0.13451668137624595,0.017323100939393044,-0.08268297905537476,-0.00837435107678175,0.1415799233432697,0.9799600064941139,0.27019767903759145,right,0.003972232341766357,-0.2476507783089562,-1.2750586606360972,-9.421570486205816,-0.1131243047862913,-0.012361052446067333,-0.0005084723234176636,2.40387593582198,-0.007370397448539734
1745972312147815400,5.9618154296875,-0.13432600582721957,0.036954592913389206,-0.08267289171963209,0.007143094204366207,0.14212067195181147,0.9798677127845224,0.2713068389026622,right,0.005390942096710205,-0.2479787414600807,-1.273156626407057,-9.421031557023525,-0.11325303199407476,-0.004655597731471062,0.0005632936954498291,2.406993921712041,-0.002454221248626709
1745972312187815700,6.001815673828125,-0.1333270209242237,0.04099929332733154,-0.08228604809661931,0.025675605982542038,0.14278165791691705,0.9797843300674413,0.27275531369673967,right,0.002024233341217041,-0.24830367909549064,-1.263640463912487,-9.42152313993275,-0.1134240128833306,-0.00893862172961235,0.0008301883935928345,2.4100828276380897,0.0001812279224395752
1745972312227815700,6.041815673828125,-0.13200730672252015,0.03858576714992523,-0.08176118482695671,0.030070723965764046,0.14345210134038702,0.9796933597694857,0.2742482784431054,right,0.00013589859008789062,-0.24888441765488398,-1.2510212208360434,-9.421793189045786,-0.11374236345057122,-0.010242056101560593,0.004759848117828369,2.415602906233817,0.003080517053604126
1745972312267815700,6.081815673828125,-0.13064871520707358,0.02760905586183071,-0.08121246308767892,0.019284475594758987,0.14400390893093243,0.9796119239725217,0.2754982304249233,right,-0.004800319671630859,-0.24959856714807938,-1.237994566002488,-9.421771561735868,-0.11413966914060153,-0.014852726832032204,0.006144210696220398,2.4223899360254406,0.005452394485473633
1745972312307815400,6.1218154296875,-0.13018133113646982,0.03491664677858353,-0.08110836483309909,0.00006109289824962616,0.14481439479961025,0.9794797834850001,0.2771863591933349,right,-0.0026112794876098633,-0.25004111716964583,-1.233451661875844,-9.421285239523648,-0.1143221556099841,-0.0019300645217299461,0.0034712255001068115,2.426595132630318,0.004389017820358276
1745972312347815400,6.1618154296875,-0.12971308867776687,0.04222423583269119,-0.08100419848068885,-0.019162287935614586,0.1456248317010937,0.9793469170797843,0.2788750043065723,right,-0.00042247772216796875,-0.2504828890906604,-1.228901158964634,-9.42079774826765,-0.11450455307329778,0.010992598719894886,0.0007974430918693542,2.4307924381896853,0.0033264756202697754
1745972312387815400,6.2018154296875,-0.12997509371267219,0.018306560814380646,-0.08119736430352165,-0.015608302317559719,0.14638529609248874,0.9792474420071485,0.28041434972981066,right,0.004811584949493408,-0.2501264422422394,-1.2314816769771277,-9.421334339362382,-0.11424807393216228,0.027004260569810867,0.0028191283345222473,2.4274058644913135,0.005072832107543945
1745972312427815700,6.241815673828125,-0.1298803270867711,-0.0014160852879285812,-0.08111101158162391,0.004218333400785923,0.14668515570904705,0.9792810792593553,0.28109497243902654,right,0.005464136600494385,-0.2489203661956492,-1.230967151583731,-9.424346965181828,-0.11363549580006736,0.0403112955391407,0.004072211682796478,2.415944559278339,0.004066690802574158
1745972312467815700,6.281815673828125,-0.12929726881407863,-0.009692126885056496,-0.08073149871555713,0.012982860207557678,0.14668855618587603,0.9793964974379891,0.2812433815238484,right,0.0018209218978881836,-0.24735455733634798,-1.2259582373805344,-9.428802775546908,-0.11290377333544963,0.04027566313743591,0.0062798187136650085,2.4010595632269975,0.003366023302078247
1745972312507815700,6.321815673828125,-0.12861216028272243,0.0029539475217461586,-0.08030832353402444,0.011780665256083012,0.1466607747214099,0.9795099324389928,0.2813320014836133,right,-0.0014553070068359375,-0.2459399346728372,-1.219932620415464,-9.432999642714858,-0.11225609564633895,0.0359814316034317,0.006161108613014221,2.3876066458053886,0.0007198750972747803
1745972312547815700,6.361815673828125,-0.12790046695430327,0.011547076515853405,-0.07991061456371214,0.0026871003210544586,0.14688877883522317,0.9795760684021042,0.28193809869549485,right,-0.005560517311096191,-0.24467398594928497,-1.213603490459174,-9.43685573362112,-0.11166263416552238,0.03393983840942383,0.003482028841972351,2.3755635951817036,-0.0006186813116073608
1745972312587815400,6.4018154296875,-0.12794754222716087,0.013301762752234936,-0.07989061838221555,-0.028165243566036224,0.1472432178616703,0.9796016584331195,0.28271768609974757,right,-0.0034046173095703125,-0.24336080028138105,-1.214444690523669,-9.439884726053476,-0.11098340099377425,0.03702211380004883,0.0017686113715171814,2.363067101702094,0.0005357116460800171
1745972312627815400,6.4418154296875,-0.12842721054982986,0.0023858482018113136,-0.08001386099699262,-0.010925138369202614,0.14722515575180356,0.9796915089613069,0.28270563594861,right,-0.0010636448860168457,-0.241676919177765,-1.2194804927337914,-9.44323403648138,-0.11012193045275304,0.0372820608317852,0.002963453531265259,2.347037173399329,0.0009509176015853882
1745972312667815700,6.481815673828125,-0.1289066975555809,-0.00853006448596716,-0.08013704826888308,0.006314966827630997,0.14720693202070798,0.9797807047942338,0.2826943457600647,right,0.0012743473052978516,-0.23999305404834972,-1.2245145413782448,-9.446554120814799,-0.10926037860994617,0.037542007863521576,0.004158101975917816,2.3310006692253054,0.0013667941093444824
1745972312707815700,6.521815673828125,-0.12889515220406966,-0.013292207382619381,-0.08001055838885877,0.007736709900200367,0.1467857418433622,0.9799145059504348,0.2818915137242413,right,0.0012510418891906738,-0.2388231454091192,-1.224755218266323,-9.449266302382945,-0.10871893358954213,0.029201006516814232,0.003406248986721039,2.3198550058327614,0.00010696053504943848
1745972312747815700,6.561815673828125,-0.12888260454307757,-0.018054351210594177,-0.0798840239948227,0.009158452972769737,0.14636452290147564,0.9800476630258492,0.2810889491538806,right,0.0012264847755432129,-0.23765318749758538,-1.2249846431080251,-9.451966793513298,-0.10817741816036848,0.020860005170106888,0.0026532411575317383,2.308705689178407,-0.0011525154113769531
1745972312787815700,6.601815673828125,-0.12851660124320818,0.0015020649880170822,-0.07964478197882825,0.005417579784989357,0.1461761717483816,0.9801265023207625,0.28077618194374165,right,-0.0007586479187011719,-0.23699803004230055,-1.2217187001146375,-9.453912666884063,-0.10789489579234274,0.013217665255069733,-0.0011667534708976746,2.3024609495699404,-0.0040626972913742065
1745972312827815400,6.6418154296875,-0.12824450789343037,0.0372251495718956,-0.07953107195707818,-0.004091051407158375,0.14663085782883578,0.9800972602855464,0.28175797029324834,right,0.0012433528900146484,-0.236491663256479,-1.219295272359997,-9.455399690571427,-0.10762705895507121,0.014554401859641075,-0.002962835133075714,2.2976336755439637,-0.003865644335746765
1745972312867815400,6.6818154296875,-0.1277469377167518,0.06363199651241302,-0.07937772854492611,0.0034701600670814514,0.14773161326973488,0.9799785501957515,0.2840835134201422,right,0.005414128303527832,-0.23597006800926457,-1.2147428697526454,-9.457192419207095,-0.10731514532941822,0.02068052627146244,-0.001017048954963684,2.2926605633065105,-0.0020703673362731934
1745972312907815400,6.7218154296875,-0.12678732958120284,0.052195191383361816,-0.07899871147865799,0.016959480941295624,0.14896488708390124,0.9798673255970812,0.28674132918810313,right,0.003526151180267334,-0.23520353621614218,-1.2058889705590903,-9.460094570389389,-0.1069047047666332,0.022879570722579956,-0.0008680224418640137,2.2853511170759795,0.0024249106645584106
1745972312947815700,6.761815673828125,-0.12580633743990682,0.021174101158976555,-0.07856175492257851,0.01494920440018177,0.1496500338968111,0.9798269472801171,0.28827285531656577,right,-0.0016329288482666016,-0.2346376270219709,-1.196770209884271,-9.462554238501191,-0.10663975884725072,0.017794771119952202,0.0006445273756980896,2.2799539342075583,0.0030394047498703003
1745972312987815700,6.801815673828125,-0.12580633743990682,-0.015799717977643013,-0.07856175492257851,-0.004511022940278053,0.1496500338968111,0.9798269472801171,0.28827285531656577,right,-0.004441440105438232,-0.2346376270219709,-1.196770209884271,-9.462554238501191,-0.10663975884725072,0.002067703753709793,0.003976128995418549,2.2799539342075583,0.0023282915353775024
1745972313027815700,6.841815673828125,-0.12588424307340224,-0.017513424158096313,-0.07854637315651593,-0.006181058473885059,0.14930741249826304,0.979891081342795,0.2875762395316169,right,-0.003974258899688721,-0.23439411940660457,-1.197577069287747,-9.463011919140815,-0.10654174109053392,0.005075810477137566,0.0033400431275367737,2.2776311903484165,-0.0027330219745635986
1745972313067815400,6.8818154296875,-0.12595319940570693,-0.001871846616268158,-0.07854720093622836,-0.013100814074277878,0.14918709992673557,0.9799249498464715,0.28733703450847764,right,-0.004123568534851074,-0.234093922272296,-1.1983154665648936,-9.463606962424516,-0.10639858607114905,0.004568865057080984,0.0024008378386497498,2.2747677637413144,-0.0033238083124160767
1745972313107815400,6.9218154296875,-0.12582951539623213,0.020471539348363876,-0.07850914025061774,-0.004262124188244343,0.14944660622212927,0.9798950087936431,0.28788461670535953,right,-0.0007137656211853027,-0.23399624785490575,-1.1971727993357926,-9.463975795736909,-0.10633835973107145,0.005143493879586458,0.001371040940284729,2.273836035849154,-0.0034073740243911743
1745972313147815400,6.9618154296875,-0.1253830447622069,0.03143830597400665,-0.0783463707066225,-0.004337206017225981,0.15000875167229824,0.9798297749796018,0.2890857773528845,right,-0.0012641549110412598,-0.23387972282488464,-1.192980462212488,-9.464771914550662,-0.1062674746124471,0.0024015726521611214,-0.0006447285413742065,2.2727244213454423,-0.0015984773635864258
1745972313187815700,7.001815673828125,-0.12514746798024456,0.030769238248467445,-0.07830359648813238,0.0020859534852206707,0.1506369394790555,0.9797378621374074,0.290391429001532,right,0.0016330480575561523,-0.23392770297093288,-1.190737140265107,-9.46494434850812,-0.10625760594006609,-0.003117083106189966,-0.0006654560565948486,2.273182101985067,0.0015002042055130005
1745972313227815700,7.041815673828125,-0.12484574916983313,0.013394264504313469,-0.0782118049420371,0.008717749267816544,0.15097949343772385,0.979679258060609,0.2911116810170935,right,-0.00007134675979614258,-0.23418763243686871,-1.1878076626844702,-9.46471696949303,-0.10637977203530989,-0.004144893493503332,-0.00016025453805923462,2.2756616438411177,0.0015256255865097046
1745972313267815700,7.081815673828125,-0.12484574916983313,0.004265167750418186,-0.0782118049420371,0.005353237502276897,0.15097949343772385,0.979679258060609,0.2911116810170935,right,-0.0003795027732849121,-0.23418763243686871,-1.1878076626844702,-9.46471696949303,-0.10637977203530989,-0.004931329749524593,-0.00028674304485321045,2.2756616438411177,0.0019354075193405151
1745972313307815400,7.1218154296875,-0.12484574916983313,0.0008085134904831648,-0.0782118049420371,-0.0011250018142163754,0.15097949343772385,0.979679258060609,0.2911116810170935,right,-0.0011028051376342773,-0.23418763243686871,-1.1878076626844702,-9.46471696949303,-0.10637977203530989,-0.003520352067425847,-0.00014825910329818726,2.2756616438411177,-0.0006748884916305542
1745972313347815400,7.1618154296875,-0.12470575820867794,0.006000412628054619,-0.07819209855551636,0.004496261011809111,0.15103645219659328,0.979637413194233,0.2912144359658248,right,-0.0009600520133972168,-0.2348230509213075,-1.1863025918837635,-9.463446218904853,-0.10669824326044722,-0.01024664007127285,0.0007272958755493164,2.281722405184805,-0.001227840781211853
1745972313387815400,7.2018154296875,-0.12414883156363336,0.018075883388519287,-0.07799411163736807,0.014605380594730377,0.1512669343730246,0.9795774764043574,0.2917140939499159,right,-0.0006073713302612305,-0.23552660064393427,-1.1808329283010215,-9.462509814837574,-0.10706617118197186,-0.009660051204264164,0.001325748860836029,2.2884319858260453,-0.00022955238819122314
1745972313427815700,7.241815673828125,-0.12352159823302965,0.0164150632917881,-0.07775765525211258,0.016330614686012268,0.15154124864104476,0.9795211752467066,0.2923178324927807,right,0.0011544227600097656,-0.23608695210459058,-1.1747392876010387,-9.461974977308511,-0.10736518272657375,-0.006245336029678583,0.003018975257873535,2.29377510041967,0.0018854886293411255
1745972313467815700,7.281815673828125,-0.12290562022124557,0.0007370952516794205,-0.07749746458724215,0.002893715165555477,0.1517363543970639,0.9794950204392316,0.29277277926174555,right,-0.001746535301208496,-0.2363352749241605,-1.168840804146975,-9.462131044653058,-0.1075161086412428,-0.007015731651335955,0.0022715404629707336,2.2961427063338458,0.005518406629562378
1745972313507815700,7.321815673828125,-0.12272058213479602,-0.01605791598558426,-0.07740919598508932,0.0055580344051122665,0.15152979863580765,0.9795111952731763,0.2923554497629409,right,-0.00022011995315551758,-0.23669670466187376,-1.166988308148086,-9.461523141887783,-0.10772368934654182,-0.011944154277443886,0.0016683638095855713,2.2995883167430757,0.004309371113777161
1745972313547815700,7.361815673828125,-0.12257291183703566,-0.033550091087818146,-0.07730847540831429,0.003052081447094679,0.15092887410842862,0.9795751492459884,0.2911201851223824,right,-0.0015865564346313477,-0.2372552568828662,-1.1654338452477007,-9.460418980038165,-0.10805679331108395,-0.013485525734722614,0.0005302354693412781,2.304912872766703,0.0018858462572097778
1745972313587815400,7.4018154296875,-0.12255108618025058,-0.03170270472764969,-0.07724142739865543,0.011567596346139908,0.15020135061114473,0.979665971426995,0.289621314400126,right,0.001507580280303955,-0.2376180532245845,-1.1651250715594739,-9.459613508874178,-0.10829443488231946,-0.006635390222072601,0.0015373751521110535,2.3083707581356165,-0.0018917471170425415
1745972313780723500,7.594723388671875,-0.11874197712089986,-0.015745611861348152,-0.07521940968450638,-0.007277171593159437,0.14886690058682303,0.9800116797084272,0.2873392893442752,right,-0.006132692098617554,-0.2371422608210097,-1.1292140194185079,-9.46507294332385,-0.10843262005572459,-0.004421878606081009,-0.001597595401108265,2.3038357450544833,0.0016592496540397406
1745972313820650200,7.634650146484375,-0.12024528487396556,-0.06229967996478081,-0.0759233572589481,-0.04644136130809784,0.1482407988841224,0.9800202472587637,0.2858649905350776,right,-0.00031126232352107763,-0.23784617892520044,-1.1432468556199222,-9.461752274468541,-0.10872229978265496,-0.03472835570573807,0.0018289478030055761,2.3105450334347784,0.0006105426582507789
1745972313860650200,7.674650146484375,-0.12199066188418166,-0.07485442608594894,-0.07662628209763271,-0.01747381128370762,0.14618869507541127,0.9801953445942245,0.2814243906207247,right,0.0022487640380859375,-0.23919642952317322,-1.1593787099272013,-9.456637123411893,-0.1094262587822954,-0.03539060801267624,0.0018300637602806091,2.3234115292705595,0.0008444786071777344
1745972313900650200,7.714650146484375,-0.12374280774441918,-0.08740917593240738,-0.07732881568397705,0.011493738740682602,0.14413583931180252,0.9803654615190932,0.27697997560462995,right,0.004805266857147217,-0.24053919012965266,-1.1755601755298672,-9.451486901041864,-0.1101296550469041,-0.03605286404490471,0.001836247742176056,2.336202621782571,0.001086115837097168
1745972313940650500,7.754650390625,-0.12397358294617636,-0.09141522645950317,-0.07728308223418183,0.032782793045043945,0.14209045207939588,0.9805853517217281,0.27272806276707035,right,0.0005292296409606934,-0.24172386842890067,-1.177398277677223,-9.448462000262737,-0.11085947526454035,-0.04874659329652786,0.0012385696172714233,2.3474841865144667,0.0017477422952651978
1745972313980650500,7.794650390625,-0.12330773303075768,-0.06195586174726486,-0.07690126948253836,0.03513956442475319,0.14043124741486251,0.9807153335466801,0.26932350995378673,right,-0.00043326616287231445,-0.2438502203583444,-1.1704901787891984,-9.444268640226126,-0.1120824925629056,-0.05382470041513443,0.002128392457962036,2.367725010510534,-0.001076534390449524
1745972314020650500,7.834650390625,-0.12264901612331341,-0.03249649330973625,-0.07651912659965139,0.03749633580446243,0.13877147261931355,0.9808410714932077,0.2659187314021217,right,-0.0014020204544067383,-0.2459787970258263,-1.1636495921794325,-9.440014489912986,-0.11330501886181547,-0.058902807533741,0.0030250772833824158,2.3879762097701427,-0.003901839256286621
1745972314060650200,7.874650146484375,-0.12167168005718886,-0.007015930488705635,-0.0760639131586777,0.02581995725631714,0.137981875452204,0.9808677298945344,0.264339685701302,right,-0.0016356706619262695,-0.24782466633426306,-1.1538860307950525,-9.436755780377984,-0.11433997577843925,-0.04060486704111099,0.007463596761226654,2.405529109856486,-0.0014130622148513794
1745972314259842300,8.07384228515625,-0.12154043863477212,0.018613863736391068,-0.07621303097396567,-0.06974370777606964,0.13981780106351768,0.980613028055294,0.26809990978040926,right,-0.0010965631809085608,-0.2478027502358085,-1.1526538586515933,-9.436959778517483,-0.11419517074636405,-0.02569352462887764,0.00814945250749588,2.405320727802813,-0.0031034767162054777
1745972314299768000,8.11376806640625,-0.12344415196659925,0.010727585293352604,-0.0772860515973244,-0.059251680970191956,0.14031421387909715,0.9803865091958485,0.26882005234282247,right,-0.001611029263585806,-0.24937833187620453,-1.1701489641360938,-9.430975443410873,-0.11480824361607476,-0.0597383938729763,0.004289587028324604,2.4202969092689455,0.005072874948382378
1745972314339768000,8.15376806640625,-0.12481195988190359,0.023007264360785484,-0.07813071551288955,-0.036409229040145874,0.14087218790394113,0.9801415371289012,0.2697090062589527,right,0.0009107589721679688,-0.251343324641897,-1.182453296044469,-9.424629289254545,-0.11564269103554166,-0.04368159919977188,0.0019318163394927979,2.43896624616459,0.004038900136947632
1745972314379768000,8.19376806640625,-0.1261786320632777,0.03528694435954094,-0.07897523120540205,-0.013566777110099792,0.14142988114422095,0.9798947242446809,0.27059554659487195,right,0.0034270882606506348,-0.2533094432605268,-1.1947267944231628,-9.418228774562477,-0.11647692271315689,-0.02762480638921261,-0.00042910128831863403,2.4576366059735415,0.003004789352416992
1745972314419768000,8.23376806640625,-0.12621747521935534,0.0410139225423336,-0.07915395490364663,0.005928138270974159,0.14219625983274767,0.9797101774091233,0.27210311382753904,right,0.0010272860527038574,-0.2544476370406036,-1.1947397269699722,-9.415401442182063,-0.11697340776268952,-0.015055982396006584,-0.0011951401829719543,2.4684409085825085,0.004092365503311157
1745972314459768000,8.27376806640625,-0.12559345358847954,0.044461172074079514,-0.0789886403887139,0.019882893189787865,0.1429581485691938,0.979571453458403,0.27369954598241947,right,0.0008544325828552246,-0.2551867024921949,-1.1886351995497941,-9.414332351645827,-0.11731759280983364,-0.004863172769546509,-0.0006514862179756165,2.475454586736858,0.002382427453994751
1745972314499768000,8.31376806640625,-0.12461017604289568,0.02010003663599491,-0.07862980778400155,0.014198662713170052,0.1436272120254825,0.9794666280661294,0.2751574074631337,right,-0.002219557762145996,-0.2557687809586632,-1.1791984589669853,-9.41406522514224,-0.11761630686812548,-0.013636619783937931,0.003062635660171509,2.4809774418115613,0.008538544178009033
1745972314539768000,8.35376806640625,-0.12418739692497677,0.0056466832756996155,-0.07848690697165046,0.0012780111283063889,0.14389697834786716,0.9794100170373973,0.2757382843872025,right,-0.0030513405799865723,-0.25623661483337773,-1.1750743647743016,-9.413410560625792,-0.11785349379916456,-0.00873359851539135,0.0023089051246643066,2.4854157165199515,0.0056059956550598145
1745972314579768000,8.39376806640625,-0.12476975655218284,-0.022029360756278038,-0.0787838837123266,-0.027078110724687576,0.1437900272819584,0.9793777263177602,0.2754288726910598,right,-0.0011374950408935547,-0.2567057495502123,-1.180410976561904,-9.41156639406383,-0.11805402160501995,-0.017168600112199783,0.00221329927444458,2.4898659739270803,0.006071001291275024
1745972314619768000,8.43376806640625,-0.1259548393076963,-0.013136288151144981,-0.07934646986339916,-0.008598946034908295,0.14337288540314003,0.9793591066457856,0.2744038345711339,right,0.003788888454437256,-0.25737698439207946,-1.191353372467309,-9.408500576752424,-0.11833889539830067,-0.00945019256323576,0.002110108733177185,2.496232294088602,-0.0025299787521362305
1745972314659768000,8.47376806640625,-0.1266043148510095,0.005165960639715195,-0.0796711263652513,-0.007784740533679724,0.1431277990370794,0.9793313964344325,0.27379422801867653,right,-0.00037848949432373047,-0.2580491442710215,-1.197251636725664,-9.406058444297313,-0.11864649258594667,-0.015200317837297916,0.0009655430912971497,2.502606213034689,-0.0053176432847976685
1745972314699768000,8.51376806640625,-0.12683072454976566,0.02385294809937477,-0.07987373454301074,-0.014319770969450474,0.14343544784899917,0.9792196771874762,0.2743530908741435,right,-0.0008451342582702637,-0.25897015836142023,-1.19908915435113,-9.403496484854816,-0.11905997334615882,-0.027791980654001236,0.002162329852581024,2.511338093283772,-0.0017019808292388916
1745972314739768000,8.55376806640625,-0.12660546866982858,0.030034853145480156,-0.07988528233495285,-0.011881886050105095,0.14413930905631092,0.9790866391831236,0.2757925094121777,right,-0.0012965202331542969,-0.2595353884479777,-1.1967914718680084,-9.402357251691818,-0.11929603574682023,-0.015246757306158543,0.0006840229034423828,2.5166958209246397,0.0017986595630645752
1745972314779768000,8.59376806640625,-0.12637932837646204,0.03621675819158554,-0.07989678561288237,-0.009444001130759716,0.1448431106819549,0.9789530081177649,0.277232312746327,right,-0.0017480850219726562,-0.26010029446596084,-1.1944858252741395,-9.40121568044126,-0.11953202773871235,-0.0027015330269932747,-0.0007950961589813232,2.522049749173224,0.005299746990203857
1745972314819768000,8.63376806640625,-0.12649108727521743,0.016964543610811234,-0.08003343724381783,-0.008311642333865166,0.14537394945991416,0.9788518736484456,0.27829012715564977,right,0.0014306902885437012,-0.2603905070667969,-1.1954440758470446,-9.400355264219641,-0.1196240038861056,-0.003438797779381275,0.0017037540674209595,2.5247999246641992,0.006998419761657715
1745972314859768000,8.67376806640625,-0.1263282322589239,0.001710996963083744,-0.07997094801510654,0.012599218636751175,0.1454120638798732,0.9788393822784666,0.27837967443393835,right,0.0024291276931762695,-0.2605743040874943,-1.1938546877637506,-9.400089306759833,-0.11972241525070376,0.008513045497238636,0.002102293074131012,2.5265417998954653,0.0005488991737365723
1745972314899768000,8.71376806640625,-0.12579285939042856,-0.0016819911543279886,-0.07967711931739105,0.012492497451603413,0.1453166072069875,0.978895506254797,0.27826749177326665,right,-0.0012273192405700684,-0.2601858459128461,-1.188944996151328,-9.40170024908781,-0.11957523978854821,0.018597230315208435,0.0014400705695152283,2.5228604810342192,-0.002176642417907715
1745972314939768000,8.75376806640625,-0.1255965614111294,-0.002219841815531254,-0.0795437328820893,0.0007571233436465263,0.1452066355815035,0.9789445340838648,0.2780850449976046,right,-0.0007916688919067383,-0.25977687236046154,-1.1872286206874996,-9.402956386628746,-0.11939612172803671,0.01071600429713726,-0.00038407742977142334,2.5189848086446522,-0.0010659992694854736
1745972314979768000,8.79376806640625,-0.1255965614111294,-0.016141731292009354,-0.0795437328820893,-0.0035602995194494724,0.1452066355815035,0.9789445340838648,0.2780850449976046,right,0.0022380948066711426,-0.25977687236046154,-1.1872286206874996,-9.402956386628746,-0.11939612172803671,-0.006581053137779236,0.0000446513295173645,2.5189848086446522,0.002514779567718506
1745972315019768000,8.83376806640625,-0.1259556173783533,-0.02349201776087284,-0.07966137441421701,0.008775895461440086,0.14465913961320054,0.9790024614259349,0.2769144979671026,right,0.003982067108154297,-0.25995993721358146,-1.1905467322595418,-9.40207200500965,-0.11950651446954255,-0.007272536866366863,0.0022303760051727295,2.520719669613242,0.0008569657802581787
1745972315059768000,8.87376806640625,-0.1256922128083588,-0.01663488708436489,-0.0794690467274858,0.013970481231808662,0.14413532473827453,0.9790893158392374,0.27587759606943685,right,-0.00047898292541503906,-0.25993789820890717,-1.1880771272756159,-9.402440253800153,-0.11955596866759724,-0.0012911111116409302,0.0015004128217697144,2.520510703037679,-0.002035468816757202
1745972315099768000,8.91376806640625,-0.12555889395774442,-0.012229975312948227,-0.07936657896147752,0.003047661855816841,0.14378540338036008,0.9791400577642841,0.2751757741729601,right,-0.0022124648094177246,-0.2600125094075426,-1.186800020011887,-9.402412196749449,-0.1196300405844128,-0.005372865125536919,0.0024241283535957336,2.5212179745241996,-0.0022871792316436768
1745972315139768000,8.95376806640625,-0.12566007590439754,0.005189536139369011,-0.07939345320343608,-0.00402401527389884,0.14367118711810786,0.9791622194572738,0.2749359765499146,right,-0.002131164073944092,-0.2598821426763506,-1.1877926112458108,-9.402617948454617,-0.1195683135926259,0.0053690653294324875,0.0020305439829826355,2.5199822952494024,-0.00418013334274292
1745972315179768000,8.99376806640625,-0.12582258705093244,0.01000773161649704,-0.07948927179346642,-0.012123027816414833,0.1438799524492202,0.9791351236633437,0.2753484764717821,right,-0.0008224844932556152,-0.25975068326313294,-1.1893621986500917,-9.402753557533025,-0.11947573719026251,-0.005493544042110443,0.0036792978644371033,2.5187363868415353,-0.0004063844680786133
1745972315219768000,9.03376806640625,-0.12582258705093244,0.007938558235764503,-0.07948927179346642,-0.007024985738098621,0.1438799524492202,0.9791351236633437,0.2753484764717821,right,-0.0013544559478759766,-0.25975068326313294,-1.1893621986500917,-9.402753557533025,-0.11947573719026251,-0.008197057992219925,0.0036888793110847473,2.5187363868415353,-0.00008669495582580566
1745972315259768000,9.07376806640625,-0.12613695840305375,0.0022847196087241173,-0.07969719374420661,-0.018747735768556595,0.14415544456890028,0.9790607327733791,0.2758561718582062,right,-0.0012467503547668457,-0.2601210120151878,-1.1922006369464098,-9.401452996328473,-0.11961460519134293,-0.011966395191848278,0.0025927498936653137,2.5222461485281586,0.0020845234394073486
1745972315299768000,9.11376806640625,-0.12700743983621685,-0.004318890627473593,-0.08014544168221172,-0.015105332247912884,0.14416374144820057,0.9790030736525737,0.27574636890228543,right,0.004434466361999512,-0.26056978142160003,-1.200240443278104,-9.399287927249073,-0.1197764409698811,-0.0058421664871275425,0.00219794362783432,2.526498837536573,-0.0024065375328063965
1745972315339768000,9.15376806640625,-0.12700743983621685,0.01237090490758419,-0.08014544168221172,0.007169033400714397,0.14416374144820057,0.9790030736525737,0.27574636890228543,right,0.0012112855911254883,-0.26056978142160003,-1.200240443278104,-9.399287927249073,-0.1197764409698811,-0.008442264050245285,-0.0009199827909469604,2.526498837536573,-0.0031239092350006104
1745972315379768000,9.19376806640625,-0.12628443856246555,0.030377602204680443,-0.07989782107521085,0.008713524788618088,0.14456588666861078,0.9789111782036374,0.2766184507607084,right,-0.0005374550819396973,-0.26141235076355424,-1.193175911719352,-9.398037634927034,-0.12020711541818009,-0.02418186143040657,-0.0004758983850479126,2.534481652984023,-0.0004089772701263428
1745972315419768000,9.23376806640625,-0.1254779968438683,0.052853748202323914,-0.07966291386812566,0.010262763127684593,0.1453252274686749,0.9787594952562767,0.2782254470964067,right,0.0017586946487426758,-0.262391641029574,-1.1852853776652366,-9.396530152973533,-0.12068184848035608,-0.013721024617552757,0.0007857605814933777,2.543757723112404,-0.0006109178066253662
1745972315459768000,9.27376806640625,-0.12421041464509458,0.06765317171812057,-0.07922660494487314,0.021482646465301514,0.14648951360758622,0.9785923255238188,0.28073945378915693,right,-0.0005137920379638672,-0.2628869694329005,-1.1732173387307674,-9.39677389860153,-0.12091740104375369,0.00032784976065158844,0.0015396550297737122,2.5484488035380837,0.00196036696434021
1745972315499768000,9.31376806640625,-0.12321790542317587,0.04701412469148636,-0.07891089429676314,0.007300989702343941,0.14752790746271233,0.9784307946692747,0.28296123086101616,right,-0.0032343268394470215,-0.26342775289297243,-1.1637207577195017,-9.396564055243134,-0.12116772296827988,-0.011408316902816296,0.005600281059741974,2.5535695075526834,0.0025734901428222656
1745972315539768000,9.35376806640625,-0.1227521446556333,0.03231431543827057,-0.07882446454788933,-0.012551896274089813,0.14822068195728577,0.9782859071127852,0.2844001888289857,right,-0.004699349403381348,-0.2642481824270601,-1.15908717963472,-9.39502267102003,-0.12154769233986937,-0.020024316385388374,0.00461946427822113,2.5613366344228385,0.000387340784072876
1745972315579768000,9.39376806640625,-0.12253825511272701,0.035984911024570465,-0.07888967318660327,-0.01953619346022606,0.14900542430827768,0.9780997789572585,0.28598449066485665,right,-0.004382193088531494,-0.2653545535968521,-1.1567306065712124,-9.392452528271079,-0.12204350485533134,-0.029704736545681953,0.0012396574020385742,2.5718083440765738,0.002108156681060791
1745972315619768000,9.43376806640625,-0.12337066823519707,0.03279872238636017,-0.07952405073475242,-0.020359043031930923,0.14979612610704574,0.9778132868341852,0.2874083648788482,right,-0.0005623698234558105,-0.26745782183888545,-1.1638803321953861,-9.386097606286405,-0.12295584130296494,-0.03898978978395462,0.0008802339434623718,2.5917066382452845,0.002398252487182617
1745972315659768000,9.47376806640625,-0.12420044314718037,0.029612530022859573,-0.08015827308311597,-0.021181892603635788,0.15058657793837626,0.9775249028740589,0.28883133572246505,right,0.003252685070037842,-0.2695622509719091,-1.1709900911353528,-9.379695338028668,-0.12386794473825595,-0.048274844884872437,0.0005167275667190552,2.6116046401530504,0.0026883184909820557
1745972315699768000,9.51376806640625,-0.12431277769480999,0.03936825692653656,-0.08040376988512946,0.0011444631963968277,0.1513287327914479,0.9773048340704522,0.29027179842936734,right,0.0034964680671691895,-0.2710673343304714,-1.171555031541735,-9.375652784639597,-0.12453900800672549,-0.020697033032774925,-0.0007629841566085815,2.6258283958166837,0.002086549997329712
1745972315739768000,9.55376806640625,-0.12341773363650033,0.04100942239165306,-0.08012401346259658,0.018475139513611794,0.1521845419126049,0.9771559915258539,0.2921108094394603,right,0.00031429529190063477,-0.27170234894766104,-1.1629574451968072,-9.375041374742985,-0.12484416680694034,-0.0035918541252613068,-0.0003334805369377136,2.631827928492427,0.006669163703918457
1745972315779768000,9.59376806640625,-0.12235298717362755,0.02246609330177307,-0.07969114811498006,0.01968649961054325,0.1527781668645839,0.9770923635441685,0.2934600199481402,right,-0.0006834268569946289,-0.2717477010723382,-1.152960148121789,-9.376155473464728,-0.12489365691408559,0.01025033462792635,0.0022870153188705444,2.632256383037567,0.005163431167602539
1745972315819768000,9.63376806640625,-0.12090758758246668,0.028429344296455383,-0.07902927814956996,0.029103118926286697,0.15329857665923255,0.9770889629690553,0.2947307034552402,right,-0.0032854676246643066,-0.27123565572671127,-1.1395690438900141,-9.379148810061812,-0.12470306149727481,0.020844489336013794,0.003452479839324951,2.6274188798785207,0.0036517977714538574
1745972315859768000,9.67376806640625,-0.12001728863413383,0.0006699487566947937,-0.07859513501484677,0.005107937380671501,0.15356600382724894,0.9771148480509413,0.29541606441531454,right,-0.003995299339294434,-0.27062598424572015,-1.1314099220275877,-9.381748178905248,-0.12444576431468843,0.017277847975492477,0.005298718810081482,2.6216581243947146,0.0025958120822906494
1745972315899768000,9.71376806640625,-0.11987320790571482,-0.0211978517472744,-0.07846509587602478,-0.00823263544589281,0.15345402981774253,0.9771842529464551,0.29523318075188165,right,-0.002162635326385498,-0.2699238132122251,-1.130278068453446,-9.383736722373962,-0.12412011258378029,0.01470943447202444,0.0039717406034469604,2.6150220473811028,0.0017233192920684814
1745972315939768000,9.75376806640625,-0.11985274050337098,-0.01466325018554926,-0.07834472299743847,0.006456277333199978,0.15300235004536117,0.9773100827868508,0.29434350255860203,right,-0.0005667805671691895,-0.26911921422753726,-1.1303372512947767,-9.38584567735195,-0.12376246210818344,0.01986640691757202,0.0029035359621047974,2.6074165408134458,-0.002508014440536499
1745972315979768000,9.79376806640625,-0.11983153277810324,-0.00812864862382412,-0.07822432341044341,0.02114519104361534,0.15255069150192627,0.9774356469138705,0.29345419352523117,right,0.0010285377502441406,-0.2683146739455033,-1.130388616155833,-9.387949371632933,-0.12340476938732399,0.025023378431797028,0.0018345266580581665,2.5998098652020096,-0.006739169359207153
1745972316019768000,9.83376806640625,-0.11919894783025443,0.006602591834962368,-0.07784855477824962,0.017122291028499603,0.15232025052182283,0.9775335591277974,0.2930882468374877,right,-0.002464115619659424,-0.26767014952091656,-1.1246486842643468,-9.39032428407073,-0.1231515008965094,0.012530161067843437,0.00021172314882278442,2.5937147631973025,-0.007618337869644165
1745972316059768000,9.87376806640625,-0.11853296425072092,0.018474776297807693,-0.07751799345904298,0.010978328064084053,0.15250734563387058,0.9775581336695062,0.2935751460703844,right,-0.0024062395095825195,-0.2671580871526882,-1.118551536433026,-9.392388815385102,-0.12293247595173865,0.009850203059613705,0.0005493313074111938,2.5888717070803047,-0.002357393503189087
1745972316099768000,9.91376806640625,-0.1183653204463409,0.00522069726139307,-0.07741339027195526,-0.004978105425834656,0.15267270874969874,0.9775826031524814,0.2939612587786757,right,-0.0006816983222961426,-0.26648148333848964,-1.117183609080687,-9.394313645967841,-0.12259880849086963,0.017304714769124985,0.0015753433108329773,2.5824711923882364,0.00006958842277526855
1745972316139768000,9.95376806640625,-0.11840049777948454,0.018984101712703705,-0.0773542074655517,0.01099100150167942,0.15271629106414916,0.9776569753671138,0.29409470030181595,right,0.0022963285446166992,-0.26524895335314247,-1.117889200066775,-9.39742797859609,-0.12198707406076423,0.03929179161787033,-0.0011004805564880371,2.5708091039061545,-0.002869933843612671
1745972316179768000,9.99376806640625,-0.11836789727560741,0.012527871876955032,-0.07728986143629503,0.01116359606385231,0.15286093407372542,0.9777021448645834,0.29443445885349334,right,0.004305243492126465,-0.26424280624138036,-1.1178877387620507,-9.400027931961416,-0.12148343518521017,0.022816520184278488,-0.00037545710802078247,2.561285781018436,-0.00018236041069030762
1745972316219768000,10.03376806640625,-0.1179109036244577,0.02366945706307888,-0.07707378424805263,0.023669833317399025,0.15309559865632374,0.9777039929140487,0.2949862664000796,right,0.005590260028839111,-0.263862565723019,-1.1137063614241778,-9.401504434254765,-0.1213107735627137,0.008854901418089867,-0.0019432678818702698,2.5576862952217456,0.0004623234272003174
1745972316259768000,10.07376806640625,-0.11708536421667665,0.0030329227447509766,-0.07671904499110829,0.014321939088404179,0.153343002681081,0.97767725654329,0.29558785962117584,right,0.001380324363708496,-0.2640410511051546,-1.105891303759068,-9.401966791069507,-0.12143834504067831,-0.00038878433406352997,0.0016313418745994568,2.559375855743885,0.003362327814102173
1745972316299768000,10.11376806640625,-0.11678359306075595,-0.018539687618613243,-0.07653939133080423,0.017639093101024628,0.15306117687062207,0.9777295079849048,0.2950484922932149,right,0.0007984638214111328,-0.26405009665620566,-1.1030513310927896,-9.40227717219293,-0.12148655889129184,0.007016592659056187,0.004700317978858948,2.559461488200724,0.0013817250728607178
1745972316339768000,10.15376806640625,-0.1172524996430429,-0.038541030138731,-0.07664949989893255,0.0013053342700004578,0.15216253958020773,0.9778601410644088,0.29315444238231,right,-0.0009735226631164551,-0.2639905449389283,-1.1074777692329139,-9.401910676968097,-0.1214941392231594,-0.0022123195230960846,0.005167312920093536,2.5588977168381213,0.00034943222999572754
1745972316379768000,10.19376806640625,-0.11772130254795204,-0.05854237452149391,-0.07675954614744131,-0.015028426423668861,0.15126377148569137,0.9779900684288719,0.2912604784415406,right,-0.002745509147644043,-0.26393017060071255,-1.1119034767206757,-9.401543597221375,-0.12150162098275039,-0.01144123263657093,0.005634240806102753,2.5583263466909525,-0.000682145357131958
1745972316419768000,10.23376806640625,-0.1186431832153864,-0.04406370967626572,-0.0771057441623673,-0.024318622425198555,0.15037588453685186,0.978087225028822,0.2893225047812631,right,0.00004744529724121094,-0.26412442519012924,-1.1205112191334365,-9.40002091769874,-0.12160186848930171,-0.01342785730957985,0.004061929881572723,2.5601652525559064,-0.0021587908267974854
1745972316459768000,10.27376806640625,-0.11926226531435519,-0.01799311861395836,-0.07734886361330225,-0.004481455311179161,0.1498082142029696,0.9781402781635516,0.2880750567081323,right,0.0038002729415893555,-0.2643658067564539,-1.1262568501133472,-9.398711588665842,-0.12172189175513794,-0.008220137096941471,0.004757650196552277,2.5624501486226916,-0.004297137260437012
1745972316499768000,10.31376806640625,-0.11865478399117065,0.014227982610464096,-0.0770589495849966,0.018245169892907143,0.14980657476739487,0.9781554429982021,0.28814557824043985,right,0.0009142756462097168,-0.26440891395785726,-1.1205340154871344,-9.399284420117736,-0.12178580451770055,-0.00022514443844556808,0.003564998507499695,2.5628581449016927,-0.0031279027462005615
1745972316539768000,10.35376806640625,-0.11794924203718578,0.013339824974536896,-0.07677770906820157,0.014838157221674919,0.150260221223987,0.9781044042540343,0.2891598040347121,right,0.00025594234466552734,-0.2644393939919849,-1.1138929700374602,-9.399995198735594,-0.12181466427896204,0.0010123316897079349,0.0028536543250083923,2.563146606454253,-0.0016224384307861328
1745972316579768000,10.39376806640625,-0.11724364938422575,0.012451667338609695,-0.07649644184299811,0.011431144550442696,0.15071383788974507,0.9780530689793632,0.2901740856791219,right,-0.00040262937545776367,-0.26446916591667013,-1.107251193935424,-9.400703054744005,-0.12184348179496174,0.002249807817861438,0.0021422505378723145,2.5634286382660267,-0.0001163482666015625
1745972316619768000,10.43376806640625,-0.11629494271305348,0.013158770278096199,-0.07607166831904108,0.02161247655749321,0.15103666480895386,0.9780388832466658,0.29095732543135133,right,-0.002345860004425049,-0.264343131565385,-1.0983696760825812,-9.402069666922092,-0.12182340336063147,0.0012940813321620226,-0.0004758313298225403,2.5622356290891766,0.0032978355884552
1745972316659768000,10.47376806640625,-0.11587396318721502,0.00007456168532371521,-0.07590480209173274,0.0027717221528291702,0.15113669689979384,0.9780118445870476,0.2912006183423987,right,0.0003387928009033203,-0.2646986316526423,-1.09430607990548,-9.40162601480782,-0.12202020206362382,-0.010091878473758698,-0.00046496838331222534,2.5656004293471573,0.003011345863342285
1745972316699768000,10.51376806640625,-0.11587396318721502,-0.0012735966593027115,-0.07590480209173274,0.010825086385011673,0.15113669689979384,0.9780118445870476,0.2912006183423987,right,0.004903733730316162,-0.2646986316526423,-1.09430607990548,-9.40162601480782,-0.12202020206362382,0.0006821360439062119,0.0007474273443222046,2.5656004293471573,0.0015558302402496338
1745972316739768000,10.55376806640625,-0.11524855387359936,-0.008081626147031784,-0.07559808620542699,0.012953672558069229,0.15105443438909674,0.9780377090539845,0.2911077632636844,right,0.0008944272994995117,-0.26476904827034103,-1.0884052583638577,-9.402129288154839,-0.12210547551888658,0.0030528290662914515,0.0015443041920661926,2.5662670765623448,0.0030598342418670654
1745972316779768000,10.59376806640625,-0.11477782536432163,-0.008518487215042114,-0.07534257676158816,0.011436939239501953,0.15080381447805996,0.9780872926613421,0.2906526760941877,right,-0.0003058314323425293,-0.26480561869662234,-1.083968518025428,-9.402547221305966,-0.12217609467028798,-0.00336970086209476,0.0013095736503601074,2.5666131135210395,-0.000683516263961792
1745972316819768000,10.63376806640625,-0.11425045792685871,0.005354627966880798,-0.0750963761850156,0.0072837527841329575,0.15070486574497763,0.978097089737177,0.2905047021230785,right,0.00001722574234008789,-0.2651112805380116,-1.0789202947251497,-9.402337962469458,-0.12237122800503544,-0.00505905831232667,0.0008034184575080872,2.569506204614043,-0.004122406244277954
1745972316859768000,10.67376806640625,-0.11318755415297921,0.04007244110107422,-0.07462510331818964,0.030928919091820717,0.1509826881448259,0.9780782120269069,0.29120260205424237,right,-0.0003097653388977051,-0.2651966563430141,-1.0689011511445046,-9.403260922533272,-0.12246712701282962,0.005943841766566038,-0.0005412250757217407,2.5703140138655898,-0.0076589882373809814
1745972316899768000,10.71376806640625,-0.1116810064175663,0.04766779765486717,-0.07400365774481295,0.022994421422481537,0.15179020609385185,0.9779922566916807,0.2930411528005347,right,-0.003705322742462158,-0.2652356590610679,-1.0547222575359045,-9.404761390224099,-0.12253196848235362,-0.004042376298457384,0.0011036023497581482,2.570683139438927,0.0038616061210632324
1745972316939768000,10.75376806640625,-0.11092940222213855,0.012235458940267563,-0.07374127770291114,0.00045079924166202545,0.15227844687446357,0.9778988163773613,0.2941133370708059,right,-0.004166960716247559,-0.2658084797734609,-1.0474901143252848,-9.40408626744151,-0.1228302058108349,-0.025749051943421364,0.0031149908900260925,2.5761037031829357,0.01276850700378418
1745972316979768000,10.79376806640625,-0.11119116539047183,-0.026739265769720078,-0.07388676392987796,-0.008372199721634388,0.1520401550538687,0.9778791097314081,0.29356644295546513,right,-0.0013918280601501465,-0.2665518876701141,-1.049738989230618,-9.40190600079298,-0.1231947562993164,-0.016882065683603287,0.005179762840270996,2.5831372550815344,0.0134124755859375
1745972317019768000,10.83376806640625,-0.11201850825091558,-0.05046292021870613,-0.07421499546021405,-0.014623194932937622,0.1512528740790252,0.9779487387048981,0.2918359701853917,right,-0.0009755492210388184,-0.2669955055871928,-1.0573889925271271,-9.399894660970569,-0.12341348815262691,-0.005171643570065498,0.003197796642780304,2.587333829988539,0.010396361351013184
1745972317059768000,10.87376806640625,-0.1132190883451511,-0.059498339891433716,-0.07467629804757493,-0.020605087280273438,0.15026880853197602,0.9780591760986235,0.28966768040909946,right,0.001933455467224121,-0.26711369570385723,-1.06863899307698,-9.398314113780856,-0.12346162822858181,0.0027684522792696953,0.0029742419719696045,2.5884517281025645,0.004935353994369507
1745972317099768000,10.91376806640625,-0.11383161237760271,-0.02746810019016266,-0.07484467488131726,0.00239625945687294,0.1494424267757377,0.9781914638686092,0.2879133919005096,right,0.0032460689544677734,-0.26677335961581566,-1.0744954640202224,-9.398532724967598,-0.12331449450978045,0.020782385021448135,0.003079034388065338,2.585232473795116,-0.004944950342178345
1745972317139768000,10.95376806640625,-0.11316697500993579,0.0078076645731925964,-0.07443715253486316,0.030534561723470688,0.14922216101355987,0.9783052709150816,0.28758124722048745,right,0.0016964077949523926,-0.26585114440448654,-1.0685174125239252,-9.401609648194908,-0.12292444285603865,0.032392874360084534,0.004457123577594757,2.576507607808709,-0.007919162511825562
1745972317179768000,10.99376806640625,-0.11157793610829501,0.0453660748898983,-0.07365315366164076,0.026219528168439865,0.14971371606118508,0.9783564430008582,0.288831031073506,right,-0.003976345062255859,-0.2646143348345669,-1.0539305957015603,-9.40645533466041,-0.12239060373471201,0.03263324499130249,0.002858676016330719,2.5648025569677353,-0.008477479219436646
1745972317219768000,11.03376806640625,-0.11036586649771274,0.05373573303222656,-0.07308428653600912,0.006567355245351791,0.15055948152939982,0.9783513863083826,0.2907612702740879,right,-0.0051406025886535645,-0.26323262114311113,-1.042917837973684,-9.411239061805606,-0.1217334153448816,0.03373533487319946,0.0021071210503578186,2.551721833859384,-0.007959514856338501
1745972317259768000,11.07376806640625,-0.1093000936842448,0.0416627861559391,-0.07259885670797481,0.010428390465676785,0.15148067048402478,0.9783240635940482,0.29282317704165095,right,-0.00250929594039917,-0.2619276599525052,-1.0332493344616145,-9.415647525897622,-0.12109908474864788,0.02608233317732811,0.003863126039505005,2.5393632875457404,-0.0023228824138641357
1745972317299768000,11.11376806640625,-0.10892867338269267,0.018981337547302246,-0.07242963697680449,-0.006792712025344372,0.15198801440241022,0.978307478750052,0.293934217882061,right,-0.0011605620384216309,-0.26113288864171885,-1.0299711895737795,-9.418033544251323,-0.1206973935230098,0.01249958947300911,0.00248853862285614,2.5318340610846874,-0.00318869948387146
1745972317339768000,11.15376806640625,-0.1093214988645346,0.0025642365217208862,-0.07262999732490809,-0.01286359503865242,0.15218400528792522,0.9782792821311932,0.29429333851753736,right,0.002200007438659668,-0.2609381408100741,-1.0337245507579296,-9.418118299925327,-0.12055902901213608,0.0000873468816280365,0.0018518269062042236,2.529989017739892,-0.005554854869842529
1745972317379768000,11.19376806640625,-0.10939063620076878,0.025972982868552208,-0.07269656406823033,0.0006630579009652138,0.15249571051133065,0.9782339370980941,0.29492480507323204,right,0.0036351680755615234,-0.2608614722473381,-1.0343968970615416,-9.418239880478382,-0.1204932364450455,-0.001315271365456283,-0.00009684264659881592,2.529262749291956,-0.006805777549743652
1745972317419768000,11.23376806640625,-0.10874474389080545,0.026816420257091522,-0.0724935537297336,0.002749368082731962,0.15305368935542887,0.9781257988127736,0.29612481707057914,right,0.0003395676612854004,-0.26144530642584884,-1.0281530342359095,-9.417436162880062,-0.1207851797402766,-0.015305351465940475,-0.00048117339611053467,2.5347940799340605,-0.00200006365776062
1745972317459768000,11.27376806640625,-0.10809804467184446,0.027659859508275986,-0.07229051415749825,0.004835678264498711,0.15361156718625904,0.9780172513429153,0.29732534678450234,right,-0.0029564499855041504,-0.2620283986879739,-1.0219029608651995,-9.416628353628516,-0.12107707056063378,-0.029295433312654495,-0.0008661746978759766,2.540317519530654,0.00280645489692688
1745972317499768000,11.31376806640625,-0.10780111861428544,0.00902889110147953,-0.07226111594126987,0.0059259673580527306,0.15381913659172275,0.9779070561088379,0.2977423228142199,right,-0.0017737150192260742,-0.2633233963637869,-1.0187520225536078,-9.413652552688122,-0.12171940921397736,-0.040136657655239105,0.0013683512806892395,2.552581373298168,0.004240810871124268
1745972317539768000,11.35376806640625,-0.10780590955516517,0.01520842220634222,-0.07235958379693787,0.008794771507382393,0.15374119708991005,0.9778155523282126,0.2975290910585747,right,-0.00007659196853637695,-0.2648853998963498,-1.0183668956935406,-9.409672543141244,-0.12249210400221654,-0.03322531655430794,0.0016875788569450378,2.5673683158025145,-0.0008604526519775391
1745972317579768000,11.39376806640625,-0.10797900363321222,0.027053914964199066,-0.07256744404922755,-0.0005907053127884865,0.15384384563387934,0.9776848074039781,0.29766126554990074,right,0.00024896860122680664,-0.2665339429808502,-1.01953813143,-9.405275184965133,-0.12328167787644431,-0.04079015180468559,0.001917913556098938,2.582967743733525,-0.001986682415008545
1745972317619768000,11.43376806640625,-0.10844485004364303,0.02981341816484928,-0.07295589543638892,-0.004065244924277067,0.15415751834124364,0.9774993633134542,0.2981814688192733,right,0.004551708698272705,-0.26837412827282686,-1.0234032824255526,-9.40005832709968,-0.12412832504583517,-0.03705533966422081,0.0029831230640411377,2.600372175259888,-0.0049552321434021
1745972317659768000,11.47376806640625,-0.1081585461452241,0.033619076013565063,-0.072986823486313,-0.00014537712559103966,0.15486402936103266,0.9773170930079532,0.29962438749260406,right,0.003305375576019287,-0.26953132743301955,-1.0203864188224077,-9.39735315979421,-0.12466457868366984,-0.014076242223381996,0.0033187195658683777,2.611312379208207,-0.0024022161960601807
1745972317699768000,11.51376806640625,-0.10722451102788748,0.04449022561311722,-0.07268727669359495,-0.0004416022275108844,0.15587881480607924,0.9771608692934862,0.3018107647378951,right,-0.0023339390754699707,-0.26982183989584346,-1.0115273319970817,-9.397547221061586,-0.12479977530449152,0.002078108489513397,0.0024402812123298645,2.6140584630459545,0.004368692636489868
1745972317739768000,11.55376806640625,-0.10678734985937444,0.020885169506072998,-0.07255940979865441,-0.0027461352292448282,0.15659600287106776,0.9770668681659406,0.30333900255728463,right,-0.0011963248252868652,-0.26968637143326035,-1.0074567215573043,-9.398340417265892,-0.12471210433008068,0.00758436881005764,0.0033236145973205566,2.612777775585651,0.005502760410308838
1745972317779768000,11.59376806640625,-0.10634779159367869,0.008094986900687218,-0.07235187619621479,0.0030569506343454123,0.15698891991264327,0.9770606889126213,0.3042211628340363,right,-0.001710653305053711,-0.26901724296098667,-1.0035108334757388,-9.400518930348753,-0.12438698658416505,0.0211092010140419,0.003651931881904602,2.6064526642173527,0.0040114521980285645
1745972317819768000,11.63376806640625,-0.10618912548175109,-0.005424699746072292,-0.07221680400023653,-0.0107295922935009,0.15710194135779748,0.9771177453997537,0.30450689392286745,right,-0.0014028549194335938,-0.2679641725124347,-1.0023096409924328,-9.403402376830577,-0.12387351214356235,0.028022732585668564,0.0029794499278068542,2.5964956260874867,0.002660393714904785
1745972317859768000,11.67376806640625,-0.10643611190963684,-0.013729044236242771,-0.07223977346372011,-0.0071441675536334515,0.15700486206922296,0.9772075670375375,0.30431612396755986,right,0.0006796717643737793,-0.266762922859441,-1.00496278584972,-9.406248998433352,-0.12327281362511414,0.03206850215792656,0.0037738531827926636,2.5851336895957586,-0.001965641975402832
1745972317899768000,11.71376806640625,-0.10598470714374754,-0.0012028273195028305,-0.07193213403053753,0.004022942390292883,0.15695923942854317,0.9773083454378911,0.30431942042290366,right,-0.002678096294403076,-0.26554284044819787,-1.0010495579287408,-9.409830948573351,-0.1227106551398029,0.024365421384572983,0.0019685029983520508,2.5735902590572834,-0.003189384937286377
1745972317939768000,11.75376806640625,-0.10566419612106538,0.005938201677054167,-0.07173213053104588,0.0025503647048026323,0.1569727026019468,0.9773600684123113,0.3044093863080151,right,-0.001757979393005371,-0.2648596740651448,-0.9982187184169888,-9.411897233453393,-0.12239801533268964,0.00846521183848381,0.0024328455328941345,2.56712486243546,-0.0029209256172180176
1745972317979768000,11.79376806640625,-0.10566419612106538,0.007164747919887304,-0.07173213053104588,-0.00005901278927922249,0.1569727026019468,0.9773600684123113,0.3044093863080151,right,0.0006032586097717285,-0.2648596740651448,-0.9982187184169888,-9.411897233453393,-0.12239801533268964,0.004994358401745558,0.0018726438283920288,2.56712486243546,-0.0030013620853424072
1745972318019768000,11.83376806640625,-0.10565321818056155,0.015765734016895294,-0.07171121614476013,-0.006961718201637268,0.15718362796962246,0.9773665178893978,0.3048619580195964,right,-0.0006768703460693359,-0.2642565483487872,-0.9982784857802093,-9.413446216461061,-0.122087279241384,0.007846726104617119,-0.0006893351674079895,2.561415837138891,-0.0006683170795440674
1745972318059768000,11.87376806640625,-0.10583899358702609,0.013570127077400684,-0.07181492949869031,-0.0007552076131105423,0.15751252926072262,0.9773342057738518,0.305524291126884,right,0.005688071250915527,-0.2638741632765137,-1.0001306895181536,-9.41423415196836,-0.12186162217523512,0.01071282010525465,-0.0005912035703659058,2.557795893076062,0.0035935044288635254
1745972318099768000,11.91376806640625,-0.10583899358702609,-0.008332408033311367,-0.07181492949869031,0.005980403628200293,0.15751252926072262,0.9773342057738518,0.305524291126884,right,0.002680838108062744,-0.2638741632765137,-1.0001306895181536,-9.41423415196836,-0.12186162217523512,0.011720043607056141,0.0026502609252929688,2.557795893076062,0.002957254648208618
1745972318139768000,11.95376806640625,-0.10492655420435357,-0.012784615159034729,-0.07129167760333237,0.009663959965109825,0.15729369718520647,0.9774471379469256,0.3052165205020305,right,-0.005428791046142578,-0.26305839999416636,-0.9917585094269364,-9.41721462908387,-0.12154493052639814,0.011733715422451496,0.0023238882422447205,2.5500720208257435,-0.00028568506240844727
1745972318179768000,11.99376806640625,-0.1042155140158623,0.018006490543484688,-0.07090490178790701,0.006873001344501972,0.15733000590338359,0.9775061145559225,0.305401653709934,right,-0.006369352340698242,-0.26235607569305064,-0.9852483238153159,-9.41969650902748,-0.12125028346160525,0.01536056213080883,0.0026783719658851624,2.543421038503945,-0.003587067127227783
1745972318219768000,12.03376806640625,-0.10367371504891157,0.026285164058208466,-0.070659967298022,-0.000687106978148222,0.1577968655087127,0.9774841559751689,0.30644298757112265,right,-0.004584252834320068,-0.2617567295230286,-0.9803021726500243,-9.421743504685162,-0.12096257314133294,0.010099257342517376,0.004196174442768097,2.537744161911309,0.0005956590175628662
1745972318259768000,12.07376806640625,-0.10342850809561718,0.016009902581572533,-0.07055010636064732,-0.0016387463547289371,0.1581776764663303,0.9774651632795461,0.3072698745058892,right,-0.002104818820953369,-0.26120397966270636,-0.9781365190487354,-9.423377243366836,-0.12068203769765387,0.012596635147929192,0.0038583949208259583,2.5325077225625514,0.0029355883598327637
1745972318299768000,12.11376806640625,-0.10346895620291119,-0.00517500564455986,-0.07053893320080862,-0.0057870675809681416,0.15823873204001476,0.9774898563027176,0.30740687397043126,right,-0.0016257762908935547,-0.260663148435895,-0.978659008552879,-9.424698847359418,-0.12040911274112723,0.012138187885284424,0.0048027485609054565,2.527383511416614,0.005558133125305176
1745972318339768000,12.15376806640625,-0.10378556971303521,-0.024191394448280334,-0.07062432006760816,-0.011646926403045654,0.15789123605114938,0.9775604465973036,0.3066677952272571,right,-0.0022005438804626465,-0.26031913165243725,-0.9817330091707408,-9.425252389588952,-0.12024168063629917,0.004726152867078781,0.003633439540863037,2.524123632837832,0.004189848899841309
1745972318379768000,12.19376806640625,-0.10419629870451633,-0.011472263373434544,-0.07076771218362805,-0.00012116041034460068,0.1574262214778785,0.9776222361451218,0.30566462381821985,right,-0.0016863346099853516,-0.26035997571224384,-0.9855934109259397,-9.424746193632483,-0.12026476914670092,0.006482570432126522,0.0025171488523483276,2.5245105863288044,-0.0024360716342926025
1745972318419768000,12.23376806640625,-0.10460707515861156,0.0012468677014112473,-0.07091109672365686,0.011404606513679028,0.15696122813355418,0.977683759979564,0.30466153850905553,right,-0.0011722445487976074,-0.2604004224972772,-0.9894541049420833,-9.424238828632236,-0.12028782696826266,0.008238987997174263,0.0014008879661560059,2.524894032688439,-0.009061485528945923
1745972318459768000,12.27376806640625,-0.10402640853962357,0.037110306322574615,-0.07063530585401716,0.014482983388006687,0.15715540054346158,0.977686357340795,0.3051394054462968,right,-0.0021562576293945312,-0.2601128411002256,-0.9840569951388984,-9.42553354461789,-0.12017563579118191,0.01022091694176197,-0.0005825459957122803,2.522168699377775,-0.006453782320022583
1745972318499768000,12.31376806640625,-0.10352987887869562,0.04046786576509476,-0.07046559784785375,0.002071201801300049,0.1577401576118422,0.9776072063876093,0.30639782182172987,right,0.0003848075866699219,-0.2600766775488059,-0.9793862268488853,-9.426111636766791,-0.12015262418004309,-0.008452272042632103,0.0005038231611251831,2.5218261695504185,-0.0009999573230743408
1745972318539768000,12.35376806640625,-0.10246565983267822,0.027905311435461044,-0.07005082222557132,0.028143752366304398,0.15827120495775338,0.9775185231127944,0.30760094317147985,right,0.0010875463485717773,-0.2605329510740165,-0.969236442625895,-9.426002915695308,-0.12041792164758557,-0.02158646658062935,0.0025577768683433533,2.52614987796843,0.005189388990402222
1745972318579768000,12.39376806640625,-0.10113592352107922,0.008599180728197098,-0.06947703723436793,0.026144683361053467,0.1584267783039745,0.9774831129569105,0.30806299582958535,right,-0.0012590289115905762,-0.2611973154980612,-0.9565317862883209,-9.425611870551108,-0.12083246838816182,-0.014776364900171757,0.00391416996717453,2.532444594198465,0.005256354808807373
1745972318619768000,12.43376806640625,-0.10017232222942371,0.006395347416400909,-0.06904187957961319,0.016338516026735306,0.15846724033972617,0.9774787244618751,0.3082550808979004,right,-0.002076447010040283,-0.2615298250661245,-0.9473645833618939,-9.425690781006216,-0.1210649909424966,0.00044185761362314224,0.0015001818537712097,2.5355945826619863,0.002251923084259033
1745972318659768000,12.47376806640625,-0.09956292029384546,0.010385142639279366,-0.06875481584881708,0.006361477077007294,0.158646616690626,0.9774794176987656,0.3087041995290656,right,-0.002817809581756592,-0.2613046231885349,-0.9416771123100072,-9.426834105822444,-0.12098754480882686,0.012239627540111542,0.000005930662155151367,2.5334610777646303,0.0019971132278442383
1745972318699768000,12.51376806640625,-0.09941999872514623,-0.007918249815702438,-0.06863757625707272,0.00514947297051549,0.1585546765988871,0.977532025417813,0.3085490678369548,right,-0.001241147518157959,-0.2607831517785232,-0.9404607953228056,-9.428281966543198,-0.12074882431339769,0.010995644144713879,0.00102175772190094,2.5285206987529993,0.0018808245658874512
1745972318739768000,12.55376806640625,-0.09927705098946112,-0.026221642270684242,-0.06852034556813144,0.0039374688640236855,0.15846275670980184,0.9775847149737681,0.3083939987735959,right,0.00033527612686157227,-0.26026180024866574,-0.9392436015527695,-9.429726904654503,-0.12051011789972234,0.009751660749316216,0.0020374953746795654,2.523580319741368,0.0017645061016082764
1745972318779768000,12.59376806640625,-0.09920353555496043,-0.04276101663708687,-0.06838708895816603,0.0015794755890965462,0.157907997274363,0.9777034324707329,0.3072803766601074,right,-0.0011722445487976074,-0.25984562643923564,-0.938654257357493,-9.430839834332465,-0.12035021021617243,0.0037034968845546246,0.0021120980381965637,2.5196362582907077,-0.00003769993782043457
1745972318819768000,12.63376806640625,-0.09957263486935292,-0.04165871441364288,-0.06844429651695998,-0.0027105244807899,0.15705124479018379,0.9778463433762333,0.3054888343791688,right,-0.0012853145599365234,-0.2596319621721208,-0.9421886420287191,-9.431028634902834,-0.12027776351599624,0.0035503096878528595,0.002280712127685547,2.517611182203889,-0.004457741975784302
1745972318859768000,12.67376806640625,-0.10000350270684134,-0.02428719773888588,-0.06854336284170505,-0.0016190160531550646,0.15634068764910836,0.9779691394535058,0.3039916206962457,right,0.0006619095802307129,-0.2593315249323958,-0.9463274953991174,-9.431373502817749,-0.120148092845418,0.010039666667580605,0.0025032460689544678,2.5147636838182805,-0.00758187472820282
1745972318899768000,12.71376806640625,-0.10005428695916782,0.0024200771003961563,-0.06850158834250908,-0.00012336357031017542,0.1561499525823334,0.9780383219962325,0.30361382477508814,right,-0.00030410289764404297,-0.25871913853684764,-0.946960167279467,-9.432856434851884,-0.1198570060341788,0.011116472072899342,0.000935383141040802,2.5089585046708582,-0.0066484808921813965
1745972318939768000,12.75376806640625,-0.0995251672379425,0.007937779650092125,-0.0682579403054517,0.005428224802017212,0.156500786573843,0.9780246891880531,0.30440964774716334,right,0.0009779930114746094,-0.2582657460869288,-0.9420818206533789,-9.43448666640222,-0.11964900294473255,0.006362691055983305,0.000880017876625061,2.5046599306941033,-0.0033762753009796143
1745972318979768000,12.79376806640625,-0.09899650972995137,0.013455484062433243,-0.06801428336559125,0.010979813523590565,0.15685160036269888,0.9780109745429661,0.30520520106357496,right,0.0022597312927246094,-0.2578120116236481,-0.9372063235715031,-9.436113390821218,-0.11944098577353249,0.0016089105047285557,0.0008249282836914062,2.500357557325065,-0.0001036524772644043
1745972319019768000,12.83376806640625,-0.09818957832902123,0.026104941964149475,-0.06766741181071122,0.020881636068224907,0.15726112200589865,0.9779723480857462,0.3061446202320196,right,0.0036745071411132812,-0.2576960033113282,-0.929620179291442,-9.437155593350528,-0.11941564935731194,0.0022998014464974403,0.0008960515260696411,2.499257487128675,-0.000280529260635376
1745972319059768000,12.87376806640625,-0.0969553045834131,0.033025242388248444,-0.06717011447005118,0.01211404800415039,0.1580018263828093,0.9778765355185427,0.30780751450529326,right,-0.0004572272300720215,-0.2577909217676026,-0.9179484461981803,-9.438059264191985,-0.1195033755620887,-0.00219856109470129,0.002263016998767853,2.5001576508387924,0.0037880241870880127
1745972319099768000,12.91376806640625,-0.09602059965600632,0.02688271924853325,-0.06684349219603693,0.012940446846187115,0.15882440426300795,0.9777446658442432,0.3095952817335669,right,0.0002911686897277832,-0.25811193014504913,-0.9090492465581744,-9.438114209249616,-0.11967476555511553,-0.0025661790277808905,0.006183207035064697,2.503201548579335,0.007491439580917358
1745972319139768000,12.95376806640625,-0.09553484186817462,-0.01172519102692604,-0.0666841052402992,0.007906012237071991,0.15913852994324193,0.9776723721298708,0.31028347806796813,right,-0.002429664134979248,-0.25861395750326766,-0.9043445029333234,-9.43730230834484,-0.11993630664560954,-0.014112407341599464,0.009174823760986328,2.507961310327053,0.010772675275802612
1745972319179768000,12.99376806640625,-0.09550520061643436,-0.03509814292192459,-0.06670113680949413,-0.01110776886343956,0.15879828573105162,0.9776619016953625,0.30956308529135607,right,-0.0054926276206970215,-0.25963339339845914,-0.9038204790592194,-9.434778927347063,-0.12046199044209772,-0.027620282024145126,0.008771099150180817,2.517624918468296,0.007516592741012573
1745972319219768000,13.03376806640625,-0.0962603084353008,-0.01863587647676468,-0.06708503816428575,-0.01933971792459488,0.15831951858394122,0.977648814231204,0.3084596789623248,right,-0.001698315143585205,-0.2607462005314674,-0.9106746558029204,-9.431299268537758,-0.1209840668914715,-0.015979690477252007,0.004687346518039703,2.528170570141077,0.0027286112308502197
1745972319259768000,13.07376806640625,-0.09753881802607796,0.005156049504876137,-0.06773941481324408,-0.027315516024827957,0.15825532673202805,0.9775853904281822,0.308151462722185,right,0.006482958793640137,-0.26140589519197316,-0.9225693109318613,-9.42846550641656,-0.12121636446084641,-0.004258765839040279,0.00253383070230484,2.534420570446551,-0.001962035894393921
1745972319299768000,13.11376806640625,-0.09817001607579656,0.04855781048536301,-0.06811344891960587,-0.002520684152841568,0.15873668564255897,0.9774823618625577,0.3090538072540305,right,0.009784221649169922,-0.2615545074339015,-0.928483430346474,-9.427506305995584,-0.1212084760105742,0.008860322646796703,-0.001384727656841278,2.5358283914178608,-0.0058168768882751465
1745972319339768000,13.15376806640625,-0.0973775046992869,0.054658085107803345,-0.06785804771088456,0.018488237634301186,0.15973830460841287,0.9773366383118123,0.31120091707311864,right,0.0046128034591674805,-0.26157866165018784,-0.9210057879421859,-9.428178506168722,-0.12121042301765206,0.0006542913615703583,-0.0006626024842262268,2.536057231737673,-0.0021208524703979492
1745972319379768000,13.19376806640625,-0.09612954478395369,0.03357049822807312,-0.06737812627201625,0.032605573534965515,0.160638001001005,0.9772108229901536,0.3131935758353401,right,0.002657175064086914,-0.26170133121297423,-0.90920918636024,-9.429010280817746,-0.12130307394307903,-0.0003068684018217027,0.00465703010559082,2.53721926125437,0.00238877534866333
1745972319419768000,13.23376806640625,-0.09478033512675625,0.02205086313188076,-0.0668103858802822,0.022233590483665466,0.16119114677132942,0.9771400835193936,0.3144886226659273,right,-0.004014313220977783,-0.26187454067488775,-0.8964450549203902,-9.429791202062368,-0.12145298051212458,-0.00038721109740436077,0.007179133594036102,2.53886001419872,0.0006883442401885986
1745972319459768000,13.27376806640625,-0.09438208295901825,0.005084678530693054,-0.06667417556663727,-0.006991175934672356,0.1615190505456026,0.9770821006210145,0.3152040505533847,right,-0.005333960056304932,-0.26207431014650656,-0.892641717114672,-9.429642148980498,-0.12155902287832054,-0.002523998497053981,0.00800660252571106,2.5407524038165805,0.0015270411968231201
1745972319499768000,13.31376806640625,-0.09511821473758034,-0.0068276552483439445,-0.06703931951254126,-0.025098519399762154,0.1615728464519342,0.9770520632324997,0.3152210148472262,right,0.0011516213417053223,-0.2621344745494959,-0.8995684476379304,-9.428830248075723,-0.12152844310609158,0.002378855599090457,0.007891140878200531,2.54132202039808,-0.002017766237258911
1745972319539768000,13.35376806640625,-0.09578167695104423,0.004060269333422184,-0.06734453193433516,-0.027624839916825294,0.16166776292066667,0.9770438693511333,0.3153422833857827,right,-0.0009791851043701172,-0.26178252951320685,-0.9059094141624867,-9.429121339976787,-0.12129848464422102,0.007839018478989601,0.0036197975277900696,2.5379884920611975,-0.004110991954803467
1745972319579768000,13.39376806640625,-0.09671348256430062,0.0037810704670846462,-0.06781127466221444,-0.03618372604250908,0.16185150662620862,0.9769952535914908,0.31560440237362886,right,-0.0002428293228149414,-0.26172452977419397,-0.914709318146482,-9.428419329187273,-0.12118586158258275,-0.007252500392496586,0.0010033026337623596,2.5374390414848924,-0.0036074817180633545
1745972319619768000,13.43376806640625,-0.09765303444513136,0.003511844901368022,-0.06830971612925059,-0.018497761338949203,0.16195941514723994,0.9769248553688709,0.31569610749686644,right,0.003194451332092285,-0.26217877808926454,-0.9234549346599727,-9.426407989364861,-0.12132902786598333,-0.01967884972691536,0.0006118863821029663,2.541741707114875,-0.0039862096309661865
1745972319659768000,13.47376806640625,-0.09777493365378905,0.012144522741436958,-0.06843092269173186,0.003640536218881607,0.1620559603339566,0.976860127549108,0.3158592770896688,right,0.0024116039276123047,-0.2628717116471149,-0.9244318899333477,-9.424539857405424,-0.12165273047192925,-0.0188065767288208,-0.0009408518671989441,2.5483044266313315,-0.002938300371170044
1745972319699768000,13.51376806640625,-0.09785689199938805,0.01265664678066969,-0.0685485768369171,-0.007516010664403439,0.16218489305773476,0.9767802847992217,0.3160892929269308,right,0.0005145668983459473,-0.2637229526887374,-0.9249920080341398,-9.422302307611703,-0.12205482780384762,-0.02765212394297123,-0.002346053719520569,2.5563643989682197,-0.0010649561882019043
1745972319739768000,13.55376806640625,-0.09810166465785325,0.017243266105651855,-0.0687520561562383,-0.005910463165491819,0.1623779403796495,0.9766861772478382,0.31643042970598373,right,0.0009983181953430176,-0.2645666991801092,-0.9270867152910679,-9.419925641608238,-0.12243617203988899,-0.014834119938313961,0.00012640655040740967,2.5643518905907867,-0.0034246742725372314
1745972319779768000,13.59376806640625,-0.09749282199953203,0.02811630442738533,-0.0685224827333142,0.01680055633187294,0.16278440899130017,0.9766221703853177,0.31733457373873736,right,-0.002194523811340332,-0.26473173792510973,-0.921310104651004,-9.420066511383652,-0.12253540036298984,0.003983563743531704,0.0007676780223846436,2.565914025340974,0.0004609823226928711
1745972319819768000,13.63376806640625,-0.09698585157410035,0.005744127556681633,-0.06831775322679573,-0.0062964484095573425,0.1631515407887391,0.9765795956692421,0.31815270639113086,right,-0.004512786865234375,-0.26463477703088817,-0.9165583800792694,-9.420780212610959,-0.12250127096534776,-0.0008854763582348824,0.000966385006904602,2.5649960337132214,0.0054433345794677734
1745972319859768000,13.67376806640625,-0.09771270723951088,-0.018553875386714935,-0.06865747309913203,-0.014712238684296608,0.16306966409269003,0.9765751934799357,0.3178936128777799,right,0.0024459362030029297,-0.26464365748722496,-0.9234034236684441,-9.42008872321546,-0.12245521260765978,0.0036806687712669373,0.002989858388900757,2.5650802048653363,0.003999799489974976
1745972319899768000,13.71376806640625,-0.09811765765379306,-0.015264307148754597,-0.06877823945044327,-0.0026856092736124992,0.16278811671395368,0.9766473891743748,0.3172808964220638,right,-0.00005614757537841797,-0.2641176534222223,-0.9273500424023717,-9.421055522421002,-0.12218588957754997,0.017166731879115105,0.0006819590926170349,2.560101247408986,0.0010786950588226318
1745972319939768000,13.75376806640625,-0.09858859662749696,-0.022705309092998505,-0.06894130005556609,-0.011682222597301006,0.16245854060360307,0.9767109075434334,0.3165555932723718,right,0.0007659792900085449,-0.2638155174262741,-0.9318627705864607,-9.421386946332454,-0.12202471663244958,0.0007750745862722397,-0.00009589642286300659,2.557240889541805,0.002008289098739624
1745972319979768000,13.79376806640625,-0.09867403838925598,-0.013019678182899952,-0.06892592890577957,-0.003594287671148777,0.16214161259189144,0.9767767734663442,0.3159024810322004,right,-0.0005159974098205566,-0.2635844451741368,-0.9327259632870555,-9.421895480376481,-0.12192721448670729,0.007100136950612068,0.00010634958744049072,2.555053024108708,0.0002613067626953125
1745972320019768000,13.83376806640625,-0.09875934764815661,-0.003334048204123974,-0.06891056665879695,0.004493646323680878,0.16182473559996044,0.976842670206382,0.3152496203813003,right,-0.001798093318939209,-0.2633534274444315,-0.9335879138786345,-9.422402845376729,-0.12182972642271848,0.013425198383629322,0.00030847638845443726,2.5528657431975006,-0.0014857351779937744
1745972320059768000,13.87376806640625,-0.09909058881384655,-0.008365046232938766,-0.06898418803557065,-0.001467116642743349,0.16157576552330408,0.9769254909195337,0.31472007461526785,right,0.00042575597763061523,-0.2626016057007612,-0.9368985727965832,-9.424000343701243,-0.12145322286649965,0.03096405416727066,0.0011982843279838562,2.545746266581118,-0.0032230615615844727
1745972320099768000,13.91376806640625,-0.09987189046973986,-0.05345470458269119,-0.06921097196990864,-0.026807371526956558,0.1613090222244252,0.9770557206224004,0.3141234854834109,right,0.0028348565101623535,-0.2610032981335673,-0.9446657727319747,-9.427301723334192,-0.12062837676228333,0.05075589567422867,0.006735816597938538,2.530606272855401,-0.0005450844764709473
1745972320139768000,13.95376806640625,-0.10031072704704132,-0.0999411940574646,-0.06893920988903621,0.031010489910840988,0.15998270285453922,0.977552362627142,0.3114870970332022,right,0.010594844818115234,-0.25655984652208164,-0.9499193824112415,-9.437981522780657,-0.11850840628770196,0.1526745855808258,-0.0023956596851348877,2.4884821183532475,-0.0015634000301361084
1745972320179768000,13.99376806640625,-0.10138938079820334,-0.17101168632507324,-0.06843230753270393,0.022949926555156708,0.15663183069183437,0.978628326474646,0.3047790926486588,right,0.008137047290802002,-0.2477255219997734,-0.9622867696184665,-9.458453817445038,-0.11432440179701953,0.25567442178726196,-0.00506051629781723,2.4045865683093663,-0.021077454090118408
1745972320219768000,14.03376806640625,-0.10448305311637227,-0.29138511419296265,-0.06860239209047732,-0.04322424530982971,0.15153315740202947,0.9800076951956178,0.2943704737525066,right,0.011025786399841309,-0.23695974801439662,-0.9941858827043324,-9.480629408895968,-0.10916105409349508,0.2728082835674286,-0.000997982919216156,2.302095915649831,-0.050007253885269165
1745972320259768000,14.07376806640625,-0.10520381871988997,-0.09052689373493195,-0.0678048558884229,0.037252701818943024,0.14844149802089868,0.9811634928527652,0.2884156611682329,right,0.008045017719268799,-0.22486911600778722,-1.0038684878069908,-9.506896653574705,-0.1033714910879376,0.244081512093544,0.0005919784307479858,2.1866752003990113,-0.018435373902320862
1745972320299768000,14.11376806640625,-0.10581670530444305,-0.09520155936479568,-0.06747760681304041,-0.006806630641222,0.14617077161807565,0.9818167401651252,0.28394160125336737,right,-0.0009137392044067383,-0.21897738528836877,-1.0110381602406502,-9.518925529542566,-0.10058141518214851,0.042159900069236755,-0.00286053866147995,2.130313992360234,-0.0023474544286727905
1745972320339768000,14.15376806640625,-0.10815022447120952,-0.03943705931305885,-0.06844958889925627,-0.05442768707871437,0.1445336150981464,0.9819920712663939,0.2803643879144838,right,-0.013751089572906494,-0.21907062134350036,-1.0332265381079166,-9.51634311183393,-0.10057923246663007,-0.07850636541843414,-0.0006835535168647766,2.1312065572857857,0.003459542989730835
1745972320379768000,14.19376806640625,-0.11060460227706843,-0.032773301005363464,-0.06985213974904803,-0.07315048575401306,0.14383364623608783,0.9817831896627705,0.2785118862208248,right,-0.011224567890167236,-0.22348261196980151,-1.055531966483593,-9.504340539351105,-0.10263609682306968,-0.13315795361995697,0.00563763827085495,2.173418390071392,0.011929705739021301
1745972320419768000,14.23376806640625,-0.11101034148861427,0.04753168672323227,-0.07029337776250569,0.01009504497051239,0.14385344846976722,0.9815540776263263,0.27835871543805935,right,-0.011756420135498047,-0.2272848924067618,-1.0584649511955677,-9.495629409629107,-0.10448185817867967,-0.07173430919647217,0.0041051581501960754,2.209762938258797,0.010657817125320435
1745972320459768000,14.27376806640625,-0.10973084791355421,0.06148909777402878,-0.06993009141106958,0.009109490551054478,0.14468303631968568,0.9813157240077082,0.2800830635937544,right,-0.014546513557434082,-0.22992407229895825,-1.0456721781831233,-9.49114612673521,-0.10581110321360418,-0.06333937495946884,0.0011005103588104248,2.234971175403893,0.019581273198127747
1745972320499768000,14.31376806640625,-0.10925548174098236,0.04664330184459686,-0.06997970473412893,-0.0034550614655017853,0.14555128464946007,0.9810322719599738,0.2817934314945752,right,-0.0061492919921875,-0.2328158678885532,-1.0404512286644427,-9.48517815824151,-0.1072070033698442,-0.06053699925541878,0.0018142908811569214,2.262574344861507,0.014951184391975403
1745972320539768000,14.35376806640625,-0.10847944095382325,0.07596912980079651,-0.06987864482415873,0.0007688696496188641,0.14681044963378212,0.9807415716483415,0.284366299623603,right,-0.0005864500999450684,-0.23492613441584476,-1.0325707776129245,-9.481215099829434,-0.10821062609171635,-0.025859616696834564,0.0027782991528511047,2.282705571003258,0.010262712836265564
1745972320579768000,14.39376806640625,-0.10747483133649972,0.08293614536523819,-0.06964581047546219,0.010090146213769913,0.14834976242402334,0.9804614607514924,0.2875698465389783,right,0.0034013986587524414,-0.23619887959230543,-1.0227329088833181,-9.479351059523225,-0.10879819103593065,0.0034572575241327286,0.003912411630153656,2.2948422912597657,0.005144655704498291
1745972320619768000,14.43376806640625,-0.10625885591584258,0.07483063638210297,-0.06919530009255127,0.0038605090230703354,0.14993121844163665,0.9802861185095888,0.29095106754224,right,-0.0018641948699951172,-0.23564095528327253,-1.0113410887099803,-9.481859827473759,-0.10849750931032155,0.036688536405563354,0.0029685646295547485,2.2895224114112556,0.005572482943534851
1745972320659768000,14.47376806640625,-0.10653319768249167,0.027539141476154327,-0.06932687682080152,-0.00905392225831747,0.15073117151809615,0.9802349370650996,0.2926008715203673,right,0.002447187900543213,-0.23430627789163863,-1.014266401572153,-9.484611756530404,-0.10776438592881646,0.05003483220934868,0.0022269487380981445,2.276793424350023,0.0009043663740158081
1745972320699768000,14.51376806640625,-0.10769857826861057,-0.00951024517416954,-0.06950499986235394,-0.012792514637112617,0.15025434846986124,0.9805673642144379,0.29168342973902284,right,-0.005791902542114258,-0.22932542387816252,-1.0265251407731324,-9.494580192837118,-0.10526242775748779,0.07650567591190338,0.0022451281547546387,2.229254551322758,0.01517978310585022
1745972320739768000,14.55376806640625,-0.10885792539994944,-0.04655963554978371,-0.06968265923063187,-0.01653110608458519,0.14977652247299875,0.9808932666664155,0.29077297560958837,right,-0.014055728912353516,-0.22434351924286924,-1.038725646980852,-9.504306052559613,-0.10275976736040078,0.10297652333974838,0.0022573769092559814,2.181650211843848,0.029461845755577087
1745972320779768000,14.59376806640625,-0.11184348480204052,-0.05070915073156357,-0.0708263533966914,-0.005360741168260574,0.14797102351327737,0.9811841732483707,0.28684935092628744,right,0.0024261474609375,-0.22258617602091668,-1.0675229215938598,-9.504957794466614,-0.10181179155583808,-0.010644637048244476,-0.0010428056120872498,2.164845207515359,0.0036197006702423096
1745972320819768000,14.63376806640625,-0.11382674205279256,-0.04023316875100136,-0.07178639696243033,-0.023141946643590927,0.14665941335237592,0.9812101999716217,0.2838860698354659,right,0.004316151142120361,-0.22464204167506613,-1.0858637571875005,-9.49838016964197,-0.10278180478309033,-0.069822758436203,-0.0008118301630020142,2.184504286100715,-0.014172911643981934
