time,seconds_elapsed,roll,rotationRateZ,quaternionY,rotationRateY,quaternionZ,quaternionW,yaw,devicelocation,accelerationZ,pitch,gravityX,gravityZ,quaternionX,rotationRateX,accelerationX,gravityY,accelerationY
1745972110673690600,0.476690673828125,-0.7886906842308764,0.006075984798371792,-0.3732124894022961,0.01858624443411827,1.7148895841395683e-17,0.9163852036699585,-0.11229110071104655,right,-0.2088431715965271,-0.2684966188393254,-6.707873252800106,-6.6638482331126925,-0.14474383683645745,0.012300228700041771,0.5391378998756409,2.6015295286014672,0.15358412265777588
1745972110713690600,0.516690673828125,-0.2751919734262874,0.0067477962002158165,-0.14890883171500618,0.027551408857107162,0.09947603935133324,0.9641383905249621,0.14668169892324326,right,-0.014800667762756348,-0.41952952042483,-2.433689036414027,-8.619228852415084,-0.19587701327661505,0.017385851591825485,0.10514965653419495,3.994550113403797,0.015475422143936157
1745972110753690600,0.556690673828125,-0.22404182228309474,0.0013578454963862896,-0.1272049164737879,0.02637382037937641,0.10827473681212928,0.9653391995228494,0.17454833381398896,right,-0.008397936820983887,-0.4276375478283409,-1.9825624946080147,-8.700520649701357,-0.20053888596307493,0.017607806250452995,0.06209927797317505,4.067035211639106,0.005405336618423462
1745972110793690600,0.596690673828125,-0.17248707203729619,-0.004032105207443237,-0.10542826814907501,0.02519623190164566,0.11701151765065954,0.9659880078404861,0.2029308232222709,right,-0.003841578960418701,-0.43443070841232584,-1.5267967486940324,-8.763704543367028,-0.2050860947990672,0.017829760909080505,0.018575847148895264,4.1275598229676485,-0.0034452080726623535
1745972110833690600,0.636690673828125,-0.16260542305708123,0.0028283302672207355,-0.1012195325644127,0.008647268638014793,0.11848869498356432,0.9660887483840112,0.20803047146827255,right,-0.0062950849533081055,-0.43541736759279515,-1.439463771547377,-8.774341088193655,-0.20588280468168796,0.007491729222238064,0.009915724396705627,4.136334957836568,-0.001163572072982788
1745972110873690600,0.676690673828125,-0.15771045627808342,-0.004708892200142145,-0.09913999969806447,-0.020642446354031563,0.11926647297393672,0.9661417789039188,0.2106662910176376,right,-0.00173872709274292,-0.4357362768464831,-1.3962893773399292,-8.779978801819682,-0.20619636113860956,-0.021920233964920044,0.005908101797103882,4.139170473523437,0.0013162493705749512
1745972110913690600,0.716690673828125,-0.1556225291123081,-0.009009648114442825,-0.09821566294080869,-0.02183614671230316,0.11946492034103945,0.966205234742254,0.21152862135111244,right,0.0015486478805541992,-0.4356289238695363,-1.3780232144176958,-8.783314083722233,-0.20622638088333184,-0.006052739918231964,-0.001468569040298462,4.13821594927758,-0.0018852949142456055
1745972110953690600,0.756690673828125,-0.15619789835369496,-0.0034420709125697613,-0.0984696391525629,-0.020607994869351387,0.11945348693225588,0.966211368438525,0.2113952226519848,right,0.0023556947708129883,-0.4353908989256243,-1.3832298431500791,-8.783492362898588,-0.2060831579858063,0.001934935338795185,-0.0025758296251296997,4.136099687775969,-0.001681298017501831
1745972110993690600,0.796690673828125,-0.1567731294408584,0.0021255062893033028,-0.0987235940552491,-0.019379843026399612,0.11944208514689444,0.96621745161081,0.21126209551114158,right,0.0031623244285583496,-0.43515281481866225,-1.3884358873605727,-8.783667719465493,-0.20593991296107217,0.009922612458467484,-0.0036831647157669067,4.133982549491525,-0.0014771819114685059
1745972111033690600,0.836690673828125,-0.15803619682232295,0.006162456702440977,-0.09931692574497736,-0.016478102654218674,0.11952344248778483,0.9661797036723174,0.2111710803106403,right,0.0016731619834899902,-0.4349779543150814,-1.3996427794210613,-8.782620840761066,-0.20578418562143938,-0.0015742434188723564,-0.0011793076992034912,4.1324274290040135,0.001978069543838501
1745972111073690600,0.876690673828125,-0.15865102228221528,0.00106469402089715,-0.09961155072664037,-0.007958059199154377,0.11953933795424279,0.966132625386793,0.21106135823757988,right,0.0002931356430053711,-0.4351864166263417,-1.4049062529072165,-8.780907607102394,-0.2058539591730861,-0.006637386046350002,-0.0006773024797439575,4.134281240177154,0.0011823177337646484
1745972111113690600,0.916690673828125,-0.15865102228221528,0.004688662011176348,-0.09961155072664037,0.001009119674563408,0.11953933795424279,0.966132625386793,0.21106135823757988,right,-0.0005141496658325195,-0.4351864166263417,-1.4049062529072165,-8.780907607102394,-0.2058539591730861,-0.014779957011342049,-0.0021398067474365234,4.134281240177154,-0.00188523530960083
1745972111153690600,0.956690673828125,-0.15798509236677882,0.02952207252383232,-0.09944289076269422,0.01467824075371027,0.11992872166908923,0.9659483223502854,0.2119264023813679,right,0.00028693675994873047,-0.43667482532098256,-1.3980888279773294,-8.775755046644806,-0.20657240752921766,-0.022445425391197205,-0.0046210139989852905,4.1475124776721,-0.006742268800735474
1745972111193690600,0.996690673828125,-0.15604053497543297,0.06146317720413208,-0.09873080419329941,0.060294609516859055,0.12060532492334325,0.965822706134157,0.21368652333905727,right,0.005356192588806152,-0.4377157941767311,-1.380349465408176,-8.774187358936667,-0.20710674571824228,-0.021915441378951073,-0.006955578923225403,4.156760783010721,-0.01672220230102539
1745972111233690600,1.036690673828125,-0.15409482151270443,0.0477275624871254,-0.09800251438438244,0.05422461777925491,0.12121449243605144,0.9657111351748087,0.2153133781095927,right,0.003648817539215088,-0.4386898983871337,-1.3626526268064976,-8.772851141896844,-0.20761650071899232,-0.05536123365163803,-0.002599567174911499,4.165410830195248,-0.013070493936538696
1745972111273690600,1.076690673828125,-0.15128879777551693,-0.011795945465564728,-0.09674041288934451,0.11561176180839539,0.1213249763838719,0.9657793036956498,0.2161370531819691,right,0.018096327781677246,-0.4388554380282492,-1.3379266202203928,-8.775958460262418,-0.20782676942601105,0.007708236575126648,0.009583905339241028,4.1668806104868645,-0.0006832778453826904
1745972111313690600,1.116690673828125,-0.14831159076493242,-0.10399741679430008,-0.09482252816804185,0.10097135603427887,0.119022311781692,0.9663140336248788,0.2120779191198552,right,0.00035268068313598633,-0.43752809855044217,-1.312608931351453,-8.785365171033144,-0.20755660277453097,-0.04208967089653015,-0.0040293484926223755,4.155093726581335,0.007825136184692383
1745972111353690600,1.156690673828125,-0.14762386278532424,-0.09561089426279068,-0.09419320361961998,0.07010295242071152,0.11687499569659912,0.9661628729839734,0.20757832475293816,right,-0.0014551281929016113,-0.44154128546064847,-1.3041035533346235,-8.769701153433322,-0.20975540976246043,-0.09315989911556244,0.0031999051570892334,4.190708645319939,0.00878956913948059
1745972111393690600,1.196690673828125,-0.14695479233882955,-0.08722436428070068,-0.09356292639513211,0.03923454508185387,0.11472652961659835,0.966002202879198,0.20307322191523725,right,-0.003281712532043457,-0.4455572301459564,-1.2957609646640718,-8.75385301143825,-0.21195214379701655,-0.14423012733459473,0.010445788502693176,4.22628060169965,0.009758323431015015
1745972111433690600,1.236690673828125,-0.14755375285590042,-0.06431764364242554,-0.09365545592864792,0.005784869194030762,0.11317403237776334,0.9656626339839016,0.1994958718559865,right,-0.000009655952453613281,-0.45008715387274295,-1.2981759168513118,-8.73404882529378,-0.21428046615035493,-0.1338127851486206,0.009181782603263855,4.2663235660135745,0.0030282437801361084
1745972111473690600,1.276690673828125,-0.14778290983148845,-0.022895462810993195,-0.09366269544875008,-0.010509287938475609,0.11203690187788706,0.9652791352143179,0.19685677159916434,right,-0.005177438259124756,-0.4546276572560352,-1.2973115551069379,-8.71450124425888,-0.2165904403611504,-0.10169906914234161,0.0018408596515655518,4.306372083285451,0.005757272243499756
1745972111513690600,1.316690673828125,-0.1482865234159342,0.04107291251420975,-0.0940481666996415,-0.037408847361803055,0.11207469569089817,0.9647680270872084,0.19659934905521767,right,-0.0026897192001342773,-0.45895842125230996,-1.2989325804375111,-8.695319573926925,-0.2186710721680119,-0.09408246725797653,-0.009527131915092468,4.344487878929078,0.011237293481826782
1745972111553690600,1.356690673828125,-0.1487374854273386,0.040115877985954285,-0.09450323083049836,-0.032860685139894485,0.11279666823286721,0.9643826472784665,0.19786506825964006,right,0.005541682243347168,-0.4614678626147811,-1.3012339892476796,-8.683923735165596,-0.21980051809929754,-0.07463516294956207,-0.007589206099510193,4.366536629129946,0.01861068606376648
1745972111593690600,1.396690673828125,-0.14774293346281242,0.06104310229420662,-0.09440394784698485,0.03661971911787987,0.11391792116748242,0.9639540979044963,0.20027156396553697,right,-0.0025197863578796387,-0.4643563465824737,-1.2907346609346568,-8.672702083927392,-0.22114060993197687,-0.05380592867732048,-0.013004973530769348,4.391881790527701,0.031334370374679565
1745972111633690600,1.436690673828125,-0.1470292964844607,0.05547475814819336,-0.09422989882898178,0.01942458562552929,0.11430358240599023,0.963723164993209,0.20114475166379425,right,0.00707697868347168,-0.46617688402294444,-1.2833717309512198,-8.665697173601389,-0.22202059705009924,-0.01216348260641098,-0.023239687085151672,4.407837484550476,0.019783735275268555
1745972111673690600,1.476690673828125,-0.1463495996208894,0.02323967218399048,-0.09405418152694237,0.03662671893835068,0.1146246496024092,0.963508477887572,0.20188251316492134,right,0.011392772197723389,-0.4679042567741483,-1.2763691587127743,-8.659021933621167,-0.22285996886926926,-0.02675354853272438,-0.01517188549041748,4.422963157489896,0.01997712254524231
1745972111713690600,1.516690673828125,-0.14556835149172076,-0.018384777009487152,-0.09364936066244674,0.07887697219848633,0.11402083290422489,0.9633017663770597,0.20068154189874643,right,0.009094715118408203,-0.4705282109490819,-1.2679160954050719,-8.648504046738147,-0.22422942487017883,-0.03063194267451763,-0.0037115365266799927,4.4459141172274945,-0.0023854970932006836
1745972111753690600,1.556690673828125,-0.14432768015205863,-0.03571077063679695,-0.09290776560659342,0.06956186890602112,0.11295188435457858,0.9632223130059188,0.19864880781323715,right,0.005586087703704834,-0.47264457042537283,-1.2558290595091879,-8.64073984247744,-0.22541748349009189,-0.00012215040624141693,0.012541718780994415,4.4644031291201705,-0.017127662897109985
1745972111793690600,1.596690673828125,-0.14308415252665002,-0.01843625120818615,-0.09219122004185504,0.06647582352161407,0.112299578225662,0.9633319161713209,0.19758235215458703,right,0.0035874247550964355,-0.47271049929803827,-1.2450411235131322,-8.642002994281054,-0.22556874554725295,0.0038628741167485714,0.016560934484004974,4.464978883181512,-0.02946007251739502
1745972111833690600,1.636690673828125,-0.1399314697608522,0.0625060647726059,-0.09076689994277959,0.053158462047576904,0.11239043147611161,0.9634587478950611,0.19852306399174152,right,-0.006024301052093506,-0.4724139725326745,-1.2179741067588328,-8.647195886749028,-0.2255594876050809,-0.013105865567922592,0.017836183309555054,4.462389743471145,-0.030667632818222046
1745972111873690600,1.676690673828125,-0.1365134387845323,0.1012885719537735,-0.08959076079016523,0.025912633165717125,0.1137626568560068,0.9632149895384926,0.20210008009021463,right,-0.0001856088638305664,-0.47404787031985235,-1.1874168367359788,-8.644073955336212,-0.22638110743401282,-0.08262515068054199,0.022241316735744476,4.476651785318553,-0.02231404185295105
1745972111913690600,1.716690673828125,-0.13303488409358086,0.14545369148254395,-0.08850392742368016,0.035059064626693726,0.11550031638323638,0.9628414817598909,0.20642886951785158,right,0.0009289383888244629,-0.4763810767712848,-1.1559522426098585,-8.63777573197484,-0.22751498414556912,-0.0971776470541954,0.018283262848854065,4.496997238732874,-0.015884459018707275
1745972111953690600,1.756690673828125,-0.12712315100294036,0.18134115636348724,-0.08680218644283934,0.02825852669775486,0.11904450245939104,0.9621526185868935,0.21505186859359607,right,0.00041478872299194336,-0.48004148857459333,-1.1027737562604247,-8.628072668606043,-0.22925122302947212,-0.07099198549985886,0.010272175073623657,4.528866833463311,-0.0010476410388946533
1745972111993690600,1.796690673828125,-0.12116478175644056,0.21722862124443054,-0.08509881663111774,0.021457988768815994,0.1225864132565752,0.9614455957613622,0.2237155463053316,right,-0.00011849403381347656,-0.48365651517192,-1.049359561458975,-8.618181973710655,-0.23098315507625639,-0.04480632394552231,0.0022370219230651855,4.5602816701635716,0.01383545994758606
1745972112033690600,1.836690673828125,-0.13274335593777972,1.0340245962142944,-0.09396269509269534,-0.8334355354309082,0.13890274143778,0.9595655841099106,0.2551282984656374,right,0.05139315128326416,-0.4779679631577443,-1.1524880736306309,-8.631028595802187,-0.22607754609965558,0.3898319602012634,0.04849463701248169,4.510820889163017,0.05230945348739624
1745972112073690600,1.876690673828125,-0.1334289754717549,-0.7032378911972046,-0.09784157332730266,0.6473830938339233,0.15578311847296292,0.9577498928406393,0.29041121320736846,right,0.07408183813095093,-0.471195209679413,-1.1624430659338831,-8.660316649606823,-0.2210741264710087,-0.5283187031745911,0.11164500564336777,4.4517432617723935,0.1360182762145996
1745972112113690600,1.916690673828125,-0.12306136936697609,-1.0232124328613281,-0.08914832259963659,0.6885379552841187,0.13703656385534546,0.9600869017532896,0.2535156296475291,right,0.03261440992355347,-0.4782423048479841,-1.068717976597324,-8.64055396451652,-0.2269514540487758,-0.2970825135707855,-0.028964459896087646,4.513209830126166,0.01191645860671997
1745972112153690600,1.956690673828125,-0.1333280397781554,-0.6645451188087463,-0.09048619444158781,0.2268534004688263,0.12364960487798349,0.9620299104920927,0.22336678034954835,right,0.044021010398864746,-0.4746009450408744,-1.159546759970486,-8.645357565405964,-0.22587986349705122,-0.10949200391769409,-0.027547597885131836,4.481476721256971,-0.03951576352119446
1745972112193690600,1.996690673828125,-0.14746848056653317,-0.45952582359313965,-0.09409323070428958,0.028357788920402527,0.11208788778416688,0.9633657880143519,0.196183713615861,right,0.023148536682128906,-0.4713753617264989,-1.2837931712336836,-8.642350784805416,-0.22474259931525684,-0.04468353092670441,0.04895368963479996,4.45331737922132,-0.04320058226585388
1745972112233690600,2.036690673828125,-0.14808016704634927,-0.35615426301956177,-0.09228639636226037,-0.019898533821105957,0.10334675104443297,0.9644995421987473,0.1779836812622489,right,-0.0027756690979003906,-0.46984680053580874,-1.2900821883752942,-8.648286020073295,-0.2248185068253161,-0.13571497797966003,-0.007285550236701965,4.439956962388754,-0.030763983726501465
1745972112273690600,2.076690673828125,-0.14261280374756,0.22918272018432617,-0.08988658621561244,0.21957902610301971,0.10377689335660813,0.9646623117788388,0.1801615482373124,right,0.012573659420013428,-0.46962364652407046,-1.2429206242278217,-8.656191094109415,-0.2248944536585953,0.09013378620147705,0.019390419125556946,4.438005536060035,-0.02915051579475403
1745972112313690600,2.116690673828125,-0.10849804902226647,0.25686711072921753,-0.07534657459787013,0.8950255513191223,0.10935278699873625,0.9658749460397998,0.1999103232915414,right,0.01954716444015503,-0.46234799512182356,-0.9504222904320806,-8.725416606026887,-0.2223745910793896,0.5744296312332153,0.018135622143745422,4.374263423989713,0.0069008469581604
1745972112353690600,2.156690673828125,-0.033261100757505054,-0.2498820424079895,-0.03768888782513835,2.2727959156036377,0.10467936592769425,0.9724202250475691,0.20740350773256253,right,0.027007997035980225,-0.41868857669308346,-0.29794985893359405,-8.954624590107798,-0.20498964779659729,1.4446370601654053,-0.009107492864131927,3.987016795289516,0.008366167545318604
1745972112393690600,2.196690673828125,0.04565022230221319,-0.6876603960990906,0.006603027980525921,2.5634443759918213,0.0813419591986852,0.9798076331094163,0.17407456846034744,right,-0.05457878112792969,-0.36464036574636,0.4180974017769098,-9.152338534772396,-0.18252946949861962,1.3803958892822266,-0.11304780840873718,3.497181314252317,0.004638344049453735
1745972112433690600,2.236690673828125,0.1276362643208587,-0.08245426416397095,0.05124148180173557,1.654036045074463,0.06368092282783996,0.9838147101892779,0.14939646116693658,right,-0.03177285194396973,-0.31228496117720084,1.1879143379293382,-9.256428439322113,-0.15946096854884048,1.108635425567627,-0.046167194843292236,3.0129344470024106,0.016114145517349243
1745972112473690600,2.276690673828125,0.1853121022328092,0.909741222858429,0.08195726842713125,0.7183029055595398,0.0624399820428602,0.9856625208314725,0.15044093672280937,right,-0.030013561248779297,-0.2559557631558148,1.7480423755936323,-9.324735082828997,-0.13361823412104823,1.0647763013839722,-0.005717620253562927,2.482750588963926,-0.012183219194412231
1745972112513690600,2.316690673828125,0.19720579047657802,1.8929851055145264,0.08615535659430998,-1.2865843772888184,0.09462450135772464,0.9850671347594915,0.21260048292163705,right,-0.1469903588294983,-0.21220300659998007,1.878319153062254,-9.400869643482565,-0.11517936601363217,-0.0999075174331665,-0.039414361119270325,2.065417157296836,-0.03487950563430786
1745972112553690600,2.356690673828125,0.15796795851085882,1.3567440509796143,0.06447757056927504,-1.727146863937378,0.11915682477946558,0.9842989263485076,0.25753468199272184,right,-0.04693937301635742,-0.2088723257819512,1.50917209854573,-9.474057044768333,-0.11313776053391081,-0.22943079471588135,0.012790858745574951,2.033475666373968,0.02164977788925171
1745972112593690600,2.396690673828125,0.08716931546788058,1.2249321937561035,0.026264484804840015,-2.183854579925537,0.14901225000977328,0.982083374637037,0.31055286449417746,right,0.0047035813331604,-0.21444659494752222,0.8342014377795159,-9.5456405179888,-0.112329664484883,-0.2575705051422119,0.013059347867965698,2.0869205485746263,0.017590448260307312
1745972112633690600,2.436690673828125,0.03424261445483576,0.8474571108818054,-0.0014816269950358677,-1.7929500341415405,0.16598663592777407,0.9800326670269962,0.3392784755482498,right,0.018684208393096924,-0.2167407575438999,0.32788517939951267,-9.571594458934664,-0.10946365865202476,-0.13607487082481384,0.027404166758060455,2.1088976948440075,0.007916852831840515
1745972112673690600,2.476690673828125,-0.01786200539839,0.08808839321136475,-0.029268797903831766,-0.24823343753814697,0.1822336403262489,0.9767438414373921,0.36687915001191995,right,0.07903027534484863,-0.22573155409633677,-0.17071288755228742,-9.556336684048174,-0.10911350999486538,-0.20623303949832916,0.06213069334626198,2.194917981956899,0.009076997637748718
1745972112713690600,2.516690673828125,0.011412225934947094,-0.9302548170089722,-0.013845166804326908,1.9096726179122925,0.1715463511341999,0.9787573303007295,0.348302213818477,right,0.0961199402809143,-0.2247419677570796,0.10909943980742245,-9.55940659301281,-0.11141916589179196,0.27940165996551514,0.043375711888074875,2.185458664216101,0.009046807885169983
1745972112753690600,2.556690673828125,0.12476926767641693,-1.8039302825927734,0.04739599924740366,3.273280382156372,0.13158589626418538,0.9841888551412175,0.2785370525872435,right,0.01252371072769165,-0.20283657824112727,1.1953776595473289,-9.530934531766176,-0.1086792703940725,0.8493881225585938,-0.01385006308555603,1.9755349340587853,0.025829672813415527
1745972112793690600,2.596690673828125,0.1887105588893465,-1.0419152975082397,0.0819671150592301,1.947435975074768,0.10826351099469486,0.9851694156886722,0.23694886714770952,right,-0.10252493619918823,-0.19006222822959146,1.8065268593966959,-9.459093868914247,-0.10488962356599718,0.37755638360977173,-0.039440423250198364,1.852671793847531,-0.021533459424972534
1745972112833690600,2.636690673828125,0.22368609185093008,-0.10842841863632202,0.0997132564754076,-0.027249693870544434,0.09542840521217903,0.9842297756306204,0.21585903078494553,right,-0.09602832794189453,-0.2001039965289601,2.1319569372616707,-9.371523722010851,-0.11064601616587029,-0.7289953827857971,-0.03725695610046387,1.9492795259483158,0.02649112045764923
1745972112873490700,2.67649072265625,0.20437014123086122,0.40237313508987427,0.08670320757634047,-0.8734387755393982,0.10364320595155815,0.982324567667363,0.234839267759611,right,0.05439424887299538,-0.23878045196404535,1.9337949565686285,-9.330111515170335,-0.1295347086947917,-0.5785284042358398,0.00401465455070138,2.3194471556842324,0.10317713767290115
1745972112913490700,2.71649072265625,0.18584143633044398,-0.1603497862815857,0.07712027201219733,-1.4931645393371582,0.09808105289739195,0.9825443905430757,0.22324942544376553,right,-0.06495553255081177,-0.25890398206733345,1.7516178959928452,-9.316574572727083,-0.1379832272799722,-1.2294423580169678,0.01685263216495514,2.510709732252359,0.028143495321273804
1745972112953490700,2.75649072265625,0.1669688922040832,-0.7230727076530457,0.06752234981810223,-2.1128902435302734,0.09249979867426618,0.9825733001081887,0.21120956681881098,right,-0.1849384903907776,-0.27881389672991846,1.5668695236243306,-9.296828254249691,-0.14640493026615842,-1.8803564310073853,0.029952779412269592,2.698941855083406,-0.04658113420009613
1745972112993490700,2.79649072265625,0.15299065840709086,-0.5210148692131042,0.05970062930742702,-1.5039750337600708,0.09150342938229848,0.9818017858427437,0.20891104964286256,right,-0.12787550687789917,-0.2985005520753929,1.4283923424348235,-9.263506999406218,-0.1553332998069059,-1.3518807888031006,0.02116018533706665,2.8840114222303033,-0.03267332911491394
1745972113033490700,2.83649072265625,0.1388769724827562,-0.31895703077316284,0.051870402836437145,-0.8950597643852234,0.09049402255813087,0.9808903365096867,0.20630860925973035,right,-0.07135981321334839,-0.3181542994428515,1.289415687290579,-9.224818080049753,-0.16423953437208677,-0.8234052062034607,0.01241852343082428,3.067657094053924,-0.018620312213897705
1745972113073491000,2.876490966796875,0.12461450581763014,-0.11689920723438263,0.044032783132794795,-0.28614455461502075,0.08947172977375775,0.9798390469793395,0.20339501386032427,right,-0.01538914442062378,-0.3377708383698516,1.150018468646705,-9.180784877055883,-0.17312235737704268,-0.2949296832084656,0.0037197694182395935,3.249773072092235,-0.0044113099575042725
1745972113113491000,2.916490966796875,0.13495711625738366,-0.7167892456054688,0.04797558016202491,1.2201361656188965,0.09683044258387571,0.9792408137526627,0.2198169763167569,right,0.22172003984451294,-0.33267722803909777,1.2471195372223853,-9.184683638060092,-0.17149286659856855,0.22091007232666016,0.12571312487125397,3.2026024478554724,0.30490779876708984
1745972113153490700,2.95649072265625,0.14989868701426218,-0.8194887638092041,0.05557337107380457,-0.03286290168762207,0.09389081804152534,0.9790058001664614,0.21644487512690874,right,0.06456226110458374,-0.3327915824363883,1.384154118388146,-9.164663178816436,-0.1721738400419474,-0.20301195979118347,0.09174934029579163,3.203662478302419,0.1852102279663086
1745972113193490700,2.99649072265625,0.16484048192149264,-0.9221882224082947,0.0631674473325993,-1.2858617305755615,0.0909448802509531,0.9787053776764876,0.2130747445601284,right,-0.09281933307647705,-0.33295358728497926,1.5208458774656057,-9.142447255355119,-0.17284330357758276,-0.6269340515136719,0.05782049894332886,3.205163822776079,0.06546765565872192
1745972113233490700,3.03649072265625,0.1379301854385604,-0.39591705799102783,0.05014416385244009,-0.49932706356048584,0.0893515618562593,0.9791299219722033,0.20581641139634696,right,0.010107338428497314,-0.34133868666717215,1.2705590111292897,-9.153115364363789,-0.17551795581480578,-0.1866915225982666,0.0459989458322525,3.2827640720680353,0.005107313394546509
1745972113273490700,3.07649072265625,0.12667708242659342,-0.2775647044181824,0.044942365818118196,-0.340038001537323,0.08744748848096945,0.979370931751236,0.2001880248125325,right,0.00380021333694458,-0.34471905628858945,1.1660711933031678,-9.155773185396194,-0.1765380498327262,-0.12431100010871887,0.03365790843963623,3.3139828016743063,0.008558809757232666
1745972113313491000,3.116490966796875,0.11539033167779833,-0.1592123806476593,0.039739140981889694,-0.18074895441532135,0.08554065539342776,0.9795809621739727,0.1945127928777599,right,-0.0026150941848754883,-0.3480395659357044,1.0613874145135282,-9.157369514676928,-0.17755255012144158,-0.06193048134446144,0.021336838603019714,3.344612040954828,0.012070387601852417
1745972113353491000,3.156490966796875,0.10671805163022324,-0.09314248710870743,0.03582281415724204,-0.11206582188606262,0.08366998700026441,0.9797523117127902,0.18930284131730277,right,-0.0015061497688293457,-0.3505804455007284,0.9810248609013855,-9.157750038427114,-0.17832955785747745,-0.02877841889858246,0.011075697839260101,3.3680247729852795,0.0011207759380340576
1745972113393490700,3.19649072265625,0.09964505616800991,-0.020242536440491676,0.03259846396250918,-0.11983322352170944,0.08269044859194291,0.9799295065525716,0.18607888139139622,right,0.008019566535949707,-0.35150391609937354,0.9159183286100625,-9.161360630139708,-0.17843187584964373,0.025622431188821793,0.0004995763301849365,3.3765283974364397,-0.009058177471160889
1745972113433490700,3.23649072265625,0.09684484214661836,0.011191653087735176,0.03124118093048626,-0.088560551404953,0.08307138014698263,0.9800235031170406,0.18630158202498126,right,0.00871807336807251,-0.35081099614434536,0.8904870232988148,-9.166216253477334,-0.17798043474507835,0.009148653596639633,-0.0016808435320854187,3.370148048749566,-0.007889598608016968
1745972113473490700,3.27649072265625,0.09532627358997373,0.024746648967266083,0.030419269634845505,-0.0505877323448658,0.08360771512260558,0.9800051520313832,0.18712608264784808,right,0.002462446689605713,-0.3508995898309516,0.8765380659885704,-9.167260794094204,-0.17797319191182143,-0.003907158970832825,-0.007243402302265167,3.3709637490466235,-0.010938704013824463
1745972113513490700,3.31649072265625,0.09411205164646168,0.020044980570673943,0.02970818211297857,-0.03902720659971237,0.08426857725024554,0.9799515326549277,0.188272235144145,right,-0.0006672143936157227,-0.3511806699371704,0.8653172184679657,-9.167374775862694,-0.17807696512102086,-0.020283980295062065,-0.0023375749588012695,3.3735523042351003,0.004061877727508545
1745972113553490700,3.35649072265625,0.09261025020440056,-0.022156978026032448,0.028935828718646313,-0.03457190841436386,0.08438370547530963,0.9799126316086327,0.18827933199467423,right,-0.0011559128761291504,-0.35189435446799805,0.8513258102554827,-9.166264184272288,-0.17836290177820427,-0.0270694550126791,0.001660086214542389,3.3801229147970675,0.010858505964279175
1745972113593491000,3.396490966796875,0.09074290456282726,-0.062212273478507996,0.02812015371969819,-0.03789499029517174,0.08369421895969847,0.9799232313556419,0.18659571108381634,right,-0.0044425129890441895,-0.3529153638001773,0.8338946368526667,-9.164396052312851,-0.17875989514808566,-0.021382249891757965,0.0034335702657699585,3.3895202732175584,0.012210220098495483
1745972113633490700,3.43649072265625,0.08816278067686788,-0.07329922914505005,0.027043904917914002,-0.04689915105700493,0.0825874548464051,0.9799820496997181,0.18392864565803754,right,-0.0015325546264648438,-0.35394112329353095,0.8099400530304759,-9.163048729357122,-0.1791177160810949,-0.007042400538921356,0.006957791745662689,3.398957963648438,0.012069493532180786
1745972113673490700,3.47649072265625,0.08475429283425036,-0.10851666331291199,0.02564798292522954,-0.06385865807533264,0.08088419427762822,0.9800409710604568,0.1799321813447556,right,0.0002243518829345703,-0.3556810106887286,0.7782014642685652,-9.159850225576758,-0.1797771088854697,-0.025161772966384888,0.005616545677185059,3.4149574968129395,0.003232032060623169
1745972113713490700,3.51649072265625,0.0840936100289303,0.04531991481781006,0.0254883683169092,0.05058357119560242,0.08008298401412918,0.9801306444381446,0.17816905544726763,right,0.020407915115356445,-0.35556121691578096,0.7721838844794779,-9.160769678509235,-0.17966936587634452,0.08840665966272354,0.007026776671409607,3.41385625757277,-0.03910228610038757
1745972113753490700,3.55649072265625,0.08356349738777434,0.00025640055537223816,0.025248781729257874,0.00009737536311149597,0.08000338104229492,0.980142558859057,0.17791288530829452,right,0.009808182716369629,-0.3556204696837695,0.7673106524199247,-9.160976014736294,-0.17967389138362216,-0.08654142171144485,-0.0018356889486312866,3.414401031973958,-0.005372136831283569
1745972113793490700,3.59649072265625,0.08260973951652223,-0.04095251113176346,0.02468811290696351,-0.04993210732936859,0.0804712352675361,0.9800840874421287,0.1787180194062926,right,0.0037748217582702637,-0.3560611211832098,0.7584487160503863,-9.160203276798129,-0.17986134879272123,-0.11059816181659698,-0.0028614401817321777,3.418451768669486,0.021366894245147705
1745972113833491000,3.636490966796875,0.08102674989316991,-0.042055580765008926,0.02379418146538972,-0.030781075358390808,0.08033676948706271,0.9798393191866902,0.17833565824319889,right,0.0030478239059448242,-0.3592820598400872,0.7430522633455693,-9.15037044956982,-0.18136918625996862,-0.0879165530204773,0.0003188326954841614,3.4480393899425863,0.015941470861434937
1745972113873490700,3.67649072265625,0.07972721637017349,-0.01800830103456974,0.02313849647054043,0.009814657270908356,0.07965803302853731,0.9796325460429113,0.17688889607597214,right,0.010233521461486816,-0.362478818126341,0.7302787795554846,-9.140294461235403,-0.18286417815981296,-0.04078090190887451,0.004368983209133148,3.47736952932328,-0.0012739598751068115
1745972113913490700,3.71649072265625,0.07968512176252576,-0.03108326531946659,0.02311971423344216,0.01917392387986183,0.07900125172883286,0.9794743922739011,0.17567152111144582,right,0.0020453929901123047,-0.3648232554028876,0.7292430798321962,-9.132173114100098,-0.18399519331280287,-0.05741886422038078,0.005832940340042114,3.498856846249103,0.0024362802505493164
1745972113953490700,3.75649072265625,0.08127105818535545,-0.015810616314411163,0.02384330889637409,0.028661614283919334,0.07869146193458648,0.9793221199589925,0.17542877004830607,right,-0.0048545002937316895,-0.3664379856535905,0.743265613835305,-9.12536226504147,-0.18484454901054356,-0.030667506158351898,0.006054207682609558,3.513645250058174,0.008892446756362915
1745972113993490700,3.79649072265625,0.08061071249014119,-0.060918018221855164,0.02350613640295172,-0.028912881389260292,0.07785177960600467,0.9790752229277611,0.17379096943544337,right,-0.009041070938110352,-0.3700053221549312,0.7362255591306835,-9.113299486804008,-0.18654357423088136,-0.12676461040973663,0.008894778788089752,3.5462840755954383,0.0117473304271698
1745972114033490700,3.83649072265625,0.08045617203286085,0.011837206780910492,0.023238199046342695,-0.047762442380189896,0.07840056732429301,0.978873402906126,0.17498136260936487,right,-0.010166406631469727,-0.3717489611647734,0.7343190679222344,-9.1072356567204,-0.18740383448774894,-0.08007098734378815,0.005470246076583862,3.5622204803958533,0.0218544602394104
1745972114073491000,3.876490966796875,0.0789082221114619,0.0445510596036911,0.02214040485699502,-0.07515789568424225,0.07935977748208226,0.978497705755214,0.17684305640040493,right,-0.00016182661056518555,-0.3752759698727858,0.7192258359476924,-9.095780196726322,-0.18908752684571517,-0.0905090719461441,0.006203740835189819,3.594423837125301,0.01059049367904663
1745972114113491000,3.916490966796875,0.07610523895662162,0.027187878265976906,0.020440821453789202,-0.0775337964296341,0.08036286401110744,0.9781358296249437,0.17854661866634267,right,0.0013048052787780762,-0.37881105706227874,0.6927572965431958,-9.085033761784434,-0.19072067133145232,-0.07220655679702759,0.009712770581245422,3.6266561276882885,-0.012402832508087158
1745972114153490700,3.95649072265625,0.07505839998734942,-0.0011777859181165695,0.019705904308297745,-0.02069433405995369,0.08098861750955824,0.9778873250281582,0.17974707201650783,right,-0.0004082918167114258,-0.3810917618492294,0.682624317324534,-9.077482323491573,-0.19180432503092643,-0.06206522136926651,0.004799418151378632,3.6474271130383014,-0.004190117120742798
1745972114193490700,3.99649072265625,0.07542406160817469,-0.0062177651561796665,0.01986332452095112,0.009489268064498901,0.08098929562534939,0.9778551222145457,0.1798351508494546,right,-0.010447263717651367,-0.38136315995335307,0.685868925268948,-9.076244890651106,-0.19195250279634005,0.020854078233242035,0.0011881887912750244,3.649897594805062,-0.011700868606567383
1745972114233490700,4.03649072265625,0.07669268940739797,-0.005902590695768595,0.02054687652344801,0.008517829701304436,0.08091424531437102,0.9779678383227202,0.17985457393720533,right,-0.006712913513183594,-0.37999642019794677,0.697764311050251,-9.080332452225685,-0.19133666789687676,-0.0029110200703144073,-0.003623388707637787,3.6374540005564686,0.013467013835906982
1745972114273490700,4.07649072265625,0.0784297686938793,-0.00040303822606801987,0.021298260181890336,0.07252047955989838,0.08086736285024405,0.9778069304001974,0.18017796560158045,right,0.008162438869476318,-0.3813984743401309,0.7131362138357012,-9.074013770598173,-0.19209492003579395,-0.03716767206788063,0.004856109619140625,3.6502190818443894,0.017477214336395264
1745972114313491000,4.116490966796875,0.08012784930546434,-0.010721388272941113,0.02215648063430808,0.033033475279808044,0.08034658008101217,0.9777426890483948,0.17949198484150328,right,-0.00004118680953979492,-0.3821917871628877,0.7283115711357444,-9.069900490060448,-0.19254319729561137,0.004718359559774399,0.0015960559248924255,3.657438511703908,0.005086809396743774
1745972114353491000,4.156490966796875,0.08033366806560195,-0.014257202856242657,0.022349186685639094,-0.008883584290742874,0.07992274738388844,0.977795875709962,0.17865200039240467,right,-0.0013497471809387207,-0.3819558487661666,0.7302475076343864,-9.070610099634528,-0.19242692290852276,0.020019087940454483,0.003227122128009796,3.6552915628030895,0.0046784281730651855
1745972114393490700,4.19649072265625,0.07935886167566515,-0.002240339294075966,0.021953575729880423,-0.0374230332672596,0.07971353266992777,0.977869831128039,0.17800926055431812,right,-0.0009638667106628418,-0.38155151145547134,0.7215222032565624,-9.072790366283058,-0.19218347800777189,0.021485041826963425,0.001926124095916748,3.6516119975075125,0.00003725290298461914
1745972114433490700,4.23649072265625,0.0780265738114513,0.02178184874355793,0.02129614097262847,-0.04609943926334381,0.08007876191112943,0.977937685873094,0.17845120054700433,right,0.0004622936248779297,-0.3807828775198458,0.7096525364384054,-9.076538905161618,-0.19175972506245534,0.019373169168829918,0.004797354340553284,3.644615270487964,0.003040909767150879
1745972114473490700,4.27649072265625,0.076821451630464,0.043419837951660156,0.020630050127367853,-0.046735551208257675,0.08090262886872494,0.9780026875923036,0.1798346091266014,right,-0.00300675630569458,-0.37961248266328895,0.6990406145963818,-9.081634182474017,-0.19115418763504943,0.037695612758398056,0.006431452929973602,3.6339570983514187,0.0027513206005096436
1745972114513490700,4.31649072265625,0.0757001189326056,0.05574651435017586,0.020006685319857134,-0.04887404292821884,0.08203563000489394,0.978150007426143,0.1818025571748184,right,-0.012365460395812988,-0.37726218627269986,0.6895007059000432,-9.090904115122557,-0.1899806220467254,0.08306736499071121,0.00481848418712616,3.6125393395304677,-0.0036497116088867188
1745972114553490700,4.35649072265625,0.07370708954358483,0.07573267817497253,0.018937964964300995,-0.1079740896821022,0.0837260183583078,0.9783847609533708,0.18467235406291482,right,-0.008825182914733887,-0.37359502868467453,0.672351929635182,-9.105410779380797,-0.18813459029336416,0.09344466775655746,0.006020344793796539,3.5790815988257525,0.002812296152114868
1745972114593491000,4.396490966796875,0.07052650729750178,0.05953960120677948,0.017271588287378646,-0.10384165495634079,0.08540334281007728,0.9785585996130732,0.1873388689553796,right,0.0087851881980896,-0.3707434689079765,0.644104617055133,-9.117646576097608,-0.1866309239165991,0.05590580776333809,0.0019066110253334045,3.55303179628998,0.0001023411750793457
1745972114633490700,4.43649072265625,0.06698348341569757,0.09157206118106842,0.015350856284502409,-0.12305551767349243,0.08752270279177722,0.9786882541346483,0.19085071534479567,right,0.015236198902130127,-0.36793007662517024,0.6124632781226188,-9.129808723056316,-0.18513142863701282,0.06737251579761505,0.0029482729732990265,3.527302311749756,-0.0005296468734741211
1745972114673490700,4.47649072265625,0.06399134769616835,0.10353467613458633,0.013684896115421664,-0.11963441967964172,0.08982540235951708,0.9788252879462227,0.1948268086447344,right,-0.00042366981506347656,-0.3646541951874688,0.5858787476556375,-9.143083215171098,-0.18342637632612332,0.10364729166030884,-0.0013525672256946564,3.497308155502379,-0.014323055744171143
1745972114713490700,4.51649072265625,0.061677968112808575,0.16900525987148285,0.012337758126773356,-0.07984071969985962,0.09283142798216552,0.9790729623889739,0.20026712331173996,right,0.003902733325958252,-0.3591868576485388,0.5658959170086308,-9.163361448568105,-0.18068304230350873,0.1517225205898285,-0.0015484541654586792,3.44716523745656,-0.010080516338348389
1745972114753490700,4.55649072265625,0.060850976282395434,0.1529577523469925,0.0115587645003259,-0.08870154619216919,0.09640035694918772,0.9791559195257303,0.20717657996733915,right,-0.01444023847579956,-0.3545177061734173,0.5592904177963733,-9.179792358887195,-0.178401945387245,0.057043202221393585,-0.01007353886961937,3.4042610384926197,0.01591646671295166
1745972114793490700,4.59649072265625,0.05798595937142264,0.09136895835399628,0.009763529486431785,-0.12041144073009491,0.09920243057432226,0.9790233585614336,0.2123208439805555,right,-0.0007732510566711426,-0.3533108591285045,0.5332256003545597,-9.18545169982314,-0.17769912320235481,0.0033524781465530396,-0.01128031313419342,3.3931595065027476,0.0084267258644104
1745972114833491000,4.636490966796875,0.05462129068838161,-0.008135102689266205,0.00789054185445297,-0.08489446341991425,0.10047850165752524,0.9788658169858776,0.21435561899389843,right,0.004588782787322998,-0.35413429932593027,0.5021639244735241,-9.184400729465484,-0.17794276165930606,-0.0413299985229969,-0.007535278797149658,3.4007349101930853,0.005474567413330078
1745972114873490700,4.67649072265625,0.05112682859099557,-0.1048247367143631,0.006232831203119105,-0.02590804174542427,0.09965663196855541,0.9787609999301572,0.21215888371172015,right,0.006433963775634766,-0.35675949922576033,0.4696085394360125,-9.17715207351148,-0.1790436585488266,-0.07656272500753403,0.0021468251943588257,3.4248698190182445,-0.005527079105377197
1745972114913490700,4.71649072265625,0.04740698241656913,-0.10150564461946487,0.004617087988465579,-0.05157402530312538,0.09760744239615111,0.9786479824073632,0.20746473053678136,right,0.004545927047729492,-0.36081550047265576,0.4348058869283646,-9.164884128090739,-0.18083042678086061,-0.0889701098203659,0.005047548562288284,3.46211292348057,-0.0038745105266571045
1745972114953490700,4.75649072265625,0.04366107179849871,-0.09818655252456665,0.0030013040966448057,-0.0772400051355362,0.09555724204538432,0.9785251206533165,0.2027471611137122,right,0.0026360750198364258,-0.3648550294870117,0.3998584191225469,-9.152401663136482,-0.18261537464211966,-0.10137749463319778,0.007963031530380249,3.499147938150167,-0.0022007524967193604
1745972114993490700,4.79649072265625,0.04107629932974447,-0.03621012344956398,0.0017248786031664619,-0.042646799236536026,0.09522879091761395,0.9783887323615339,0.2016773160839212,right,0.004553675651550293,-0.3669861034750687,0.37589316777586934,-9.14593334390521,-0.18353255716373426,-0.08370977640151978,0.00365496426820755,3.518663078220188,-0.0029182732105255127
1745972115033490700,4.83649072265625,0.03848697055702812,0.02576630935072899,0.0004484575134205735,-0.008053597062826157,0.0949000951848295,0.9782495892264413,0.20060065036297706,right,0.006461799144744873,-0.3691144245006977,0.3519211578948423,-9.139372085693479,-0.18444922712807651,-0.06604206562042236,-0.0006524138152599335,3.5381370094969866,-0.0036316215991973877
1745972115073491000,4.876490966796875,0.038618094511262524,0.054773636162281036,0.00019292300887701122,-0.021934054791927338,0.09572637744544475,0.977895956442045,0.20242747713176187,right,-0.007885456085205078,-0.37205494785237175,0.3527163268605247,-9.128890439167618,-0.18589272428375858,-0.11372651159763336,-0.0042611174285411835,3.5650162485942243,0.0033058226108551025
1745972115113491000,4.916490966796875,0.038738564793562136,0.07775555551052094,-0.0002748275129471594,-0.026829460635781288,0.09695981244342187,0.9772863788523771,0.205175503225359,right,0.011274755001068115,-0.3772615631243035,0.3530924301639199,-9.110176386347412,-0.1884415386615298,-0.14125239849090576,-0.01351381465792656,3.6125337865725156,-0.008297950029373169
1745972115153490700,4.95649072265625,0.038849664342064216,0.0571637824177742,-0.0007974528513539999,-0.021445702761411667,0.09837157600546986,0.9766370254220678,0.20829758330358003,right,0.010052323341369629,-0.38261051016994646,0.3533489987408742,-9.090698363417387,-0.1910569577880831,-0.14610178768634796,-0.012188445776700974,3.6612481331199405,-0.0007966458797454834
1745972115193490700,4.99649072265625,0.03826074677744727,-0.009046226739883423,-0.0014663262471763092,0.01522921398282051,0.09892227827223884,0.9761061230309088,0.20950821681401857,right,0.005880296230316162,-0.3876111076189024,0.3472905754847452,-9.072495767250656,-0.1934665251095424,-0.11557672172784805,-0.002979736775159836,3.706695586825907,0.015604853630065918
1745972115233490700,5.03649072265625,0.037900419515312624,-0.08610840141773224,-0.0015945309502808007,0.022331492975354195,0.09781157244765629,0.9759122850640224,0.2072865900161168,right,-0.010556697845458984,-0.39079246598441963,0.34357290666848417,-9.060790716409683,-0.19500181179262804,-0.029147334396839142,-0.0013024434447288513,3.735560739043355,0.020646214485168457
1745972115273490700,5.07649072265625,0.03657049254012295,-0.13413791358470917,-0.001738849204552426,0.019354430958628654,0.09549316617455353,0.976181417760369,0.20225932660685406,right,-0.009667634963989258,-0.3905073402355406,0.33156138369422405,-9.06230345906019,-0.1948026803228187,0.04833828657865524,0.007671970874071121,3.732975106464326,0.016645878553390503
1745972115313491000,5.116490966796875,0.034149268079632034,-0.1410500854253769,-0.002271654212753481,-0.019053442403674126,0.09274443642954115,0.976564999293852,0.19610866426131657,right,0.0012676119804382324,-0.38949579446221194,0.30974731903206554,-9.066849285796284,-0.1942014388399388,0.02823924645781517,0.008318748325109482,3.723800158622861,0.006591081619262695
1745972115353491000,5.156490966796875,0.030648404170093894,-0.1187833622097969,-0.003461279703405186,-0.04241044819355011,0.09026459646193978,0.9767477151480651,0.19036167256832756,right,0.012992024421691895,-0.3902818815815506,0.2779138915935531,-9.064949005132913,-0.19443314118990107,-0.04086842015385628,0.008279595524072647,3.7309304488942026,-0.01731395721435547
1745972115393490700,5.19649072265625,0.027433328331386973,-0.051028937101364136,-0.00489520251783808,-0.0584988072514534,0.08886113376530987,0.9764993187375701,0.1869803952247007,right,0.015128552913665771,-0.3943628738308699,0.2483482994891703,-9.05050020854175,-0.1962879295627267,-0.15192191302776337,0.0057358648627996445,3.767910810767114,-0.028063535690307617
1745972115433490700,5.23649072265625,0.025503851053009903,-0.015215672552585602,-0.006166778141103241,-0.06866811960935593,0.08853441242454918,0.9756783484651655,0.1861976751083528,right,-0.00669783353805542,-0.40304159906744746,0.23004251694260164,-9.017931817892194,-0.200438029289978,-0.28661102056503296,-0.0012482516467571259,3.8463442960128185,-0.01838436722755432
1745972115473490700,5.27649072265625,0.02281986282704388,-0.03548611328005791,-0.007959616698289998,-0.06599503755569458,0.08832662341539163,0.9745177199995751,0.18558024212288374,right,-0.005493462085723877,-0.41476574670816496,0.2047946053742431,-8.972814911314845,-0.20603496988312792,-0.3223530650138855,0.00007457658648490906,3.951839391185343,0.006612271070480347
1745972115513490700,5.31649072265625,0.019823273878270285,-0.07431751489639282,-0.009684554939274493,-0.05720554664731026,0.08759635850473292,0.9735634967148461,0.1837403843387887,right,-0.012144267559051514,-0.4246644148728076,0.1771217864802107,-8.933838991710543,-0.2107301503058446,-0.21005204319953918,0.006232170388102531,4.040486519670486,0.039581865072250366
1745972115553490700,5.35649072265625,0.01640333404081651,-0.07993222773075104,-0.011182705879910168,-0.048687055706977844,0.0862927163701478,0.9732649304644876,0.18043486152192498,right,-0.010202348232269287,-0.42870680377683906,0.14629853159808553,-8.917988511627913,-0.212565457779918,-0.036531805992126465,0.004539111629128456,4.0765743166178465,0.03303557634353638
1745972115593491000,5.396490966796875,0.01323376849268074,-0.037170927971601486,-0.012420912358459858,-0.0576053224503994,0.08535001065289172,0.973415746190378,0.17779187908084748,right,-0.005687892436981201,-0.4281744627808582,0.11806039783833548,-8.920576190033554,-0.21218606208479981,0.053486913442611694,0.0004256200045347214,4.071825953046977,0.008473068475723267
1745972115633490700,5.43649072265625,0.010157883548427742,-0.0037280768156051636,-0.013950773094350203,-0.0819869190454483,0.08592945533431205,0.9734242371899591,0.17830041920876083,right,0.007032632827758789,-0.4276953253004547,0.09064102398240938,-8.922847057574987,-0.21181785206606074,0.015533491969108582,-0.0007144361734390259,4.067550759945809,0.004091322422027588
1745972115673490700,5.47649072265625,0.0070823729846228225,0.029714778065681458,-0.015480605800801515,-0.10636851191520691,0.08650865541072185,0.9734299733462326,0.17881044792371625,right,0.019743680953979492,-0.4272175649540563,0.0632120877136942,-8.92502557065785,-0.21144902680578886,-0.02241992950439453,-0.001853523775935173,4.063287257282435,-0.00029155611991882324
1745972115713490700,5.51649072265625,0.0031808629423996583,0.019724152982234955,-0.017585463570449433,-0.09824713319540024,0.08734347288780649,0.9730965197091234,0.17973091263800225,right,0.03584635257720947,-0.42968792248177096,0.02835860691781854,-8.91513955193758,-0.21247386824532047,-0.099345363676548,-0.005066624842584133,4.08532314800173,-0.010958939790725708
1745972115753490700,5.55649072265625,0.0011699795998867495,0.017574822530150414,-0.018808958520332892,-0.005836218595504761,0.08782900546400516,0.972621654009456,0.1803718848323948,right,0.025324463844299316,-0.43370718210560666,0.010411961698468076,-8.898686429786682,-0.21433498100037837,-0.102473683655262,-0.005612822715193033,4.12112248339653,-0.01618748903274536
1745972115793490700,5.59649072265625,0.00222335003596784,0.06878384947776794,-0.018585567374994783,0.03462500870227814,0.08846178540271853,0.972275305910558,0.18196190339839755,right,-0.01622629165649414,-0.4363702692823568,0.019761093638127204,-8.887664100512861,-0.21566136361636823,-0.0413065068423748,-0.006096145138144493,4.144805849061906,0.001862645149230957
1745972115833491000,5.636490966796875,0.004003756556248917,0.09848004579544067,-0.018122776650698284,-0.009014952927827835,0.0900403355288796,0.9721066843017198,0.18560891932898094,right,-0.04491156339645386,-0.4365762931163275,0.035581288180348926,-8.886761014193295,-0.21580749069807628,0.04358183220028877,0.0009063743054866791,4.1466368638813496,0.032747119665145874
1745972115873490700,5.67649072265625,0.004300116139225565,0.1414724588394165,-0.018340720313085007,-0.06252782046794891,0.09257646617676661,0.9723257656773682,0.19079478632359143,right,-0.027430415153503418,-0.43234940508493036,0.038289987733331504,-8.904197886684537,-0.21371918509262458,0.1466105431318283,0.0027555220294743776,4.109036324283481,0.03670930862426758
1745972115913490700,5.71649072265625,0.0030990815255492934,0.11949092149734497,-0.01925404077062901,-0.05876501649618149,0.0955566649067191,0.9726679543961672,0.19652621784876725,right,0.006642758846282959,-0.4264689969016842,0.02767011776358122,-8.928246286270022,-0.21074969302574725,0.13544593751430511,0.0024659382179379463,4.056604710778593,0.008452385663986206
1745972115953490700,5.75649072265625,0.001864324805265649,0.09750937670469284,-0.02016699577253361,-0.05500221252441406,0.09853504961873163,0.9729919205829759,0.20225013225992508,right,0.04068070650100708,-0.42059488324230926,0.016690024762868415,-8.951948064374923,-0.207776262975555,0.12428133189678192,0.002213079947978258,4.004089510643482,-0.019795984029769897
1745972115993490700,5.79649072265625,0.0014525412070642391,0.04545670747756958,-0.02061074674850261,-0.02972983941435814,0.10042575425461626,0.9730986301076265,0.20598382913124402,right,0.03291577100753784,-0.4177274071862714,0.013020380356395616,-8.963398848193883,-0.20632267403668517,0.01294407993555069,-0.0006202413933351636,3.9784032807230947,-0.031036078929901123
1745972116033490700,5.83649072265625,0.0004350917701837779,-0.007141102105379105,-0.021355912905929746,-0.02858126163482666,0.1009103506072501,0.972712551816024,0.20683576571381124,right,0.022765696048736572,-0.4209399627786147,0.00389499015303445,-8.950580283153057,-0.20782525955061118,-0.15255892276763916,-0.0023934687487781048,4.0071784165695306,-0.036901652812957764
1745972116073491000,5.876490966796875,-0.0007843267594904164,-0.03397064283490181,-0.02224010072190871,-0.006441634148359299,0.10052633409295528,0.9719442495597008,0.20595260791358685,right,0.0006805658340454102,-0.4285666639550249,-0.006995338209238252,-8.919757274866104,-0.211481311750921,-0.22911852598190308,-0.0003190510324202478,4.075324608817696,-0.004284650087356567
1745972116113491000,5.916490966796875,-0.0019862854314491316,-0.06157030165195465,-0.023003580361375543,-0.015865135937929153,0.09953741744144742,0.9711673448475387,0.20383111707343066,right,-0.03001457452774048,-0.43670825003879316,-0.01765001748499926,-8.8862676777184,-0.21540031941618726,-0.178618922829628,0.0019754553213715553,4.147809707053005,0.04078236222267151
1745972116153490700,5.95649072265625,-0.0039308327334338046,-0.06291516870260239,-0.02375708173928748,-0.02682757005095482,0.09826696007295564,0.9710007913546514,0.20083892601421657,right,-0.028700649738311768,-0.4394057906403349,-0.03488562949980842,-8.874995173075794,-0.2166490024186266,0.027791544795036316,0.002488948404788971,4.1717654599189755,0.04409736394882202
1745972116193490700,5.99649072265625,-0.006159723406633106,-0.04929214343428612,-0.024336130345718007,-0.02999785728752613,0.0973305536004792,0.9716156364149441,0.19832172338421467,right,-0.0046790242195129395,-0.4346024777325518,-0.054789716371777465,-8.894830923402308,-0.2142372731372457,0.2067282795906067,0.0021297303028404713,4.129088055448234,0.021953046321868896
1745972116233490700,6.03649072265625,-0.00874679970662446,-0.07053475826978683,-0.024899171584997586,-0.004480790346860886,0.0965338572465592,0.9726875153953208,0.19595252879627834,right,0.04104185104370117,-0.42530169848610533,-0.07813364378260448,-8.932676377671957,-0.20961942523967894,0.27762484550476074,0.007266472093760967,4.046180055136978,-0.0010674893856048584
1745972116273490700,6.07649072265625,-0.010541111444668735,-0.0937926173210144,-0.025059750620054305,-0.008193482644855976,0.09532654377651463,0.9736993443836743,0.19295193262571006,right,0.03741145133972168,-0.4167590290675443,-0.0945224228598643,-8.966758680015802,-0.2054131521553039,0.1741265207529068,0.007494337856769562,3.9697216693565247,-0.009333431720733643
1745972116313491000,6.116490966796875,-0.012370241910878647,-0.11622931063175201,-0.02538835742664265,0.0009878883138298988,0.09335090834180715,0.9741197348020171,0.18847749002303932,right,0.014749586582183838,-0.4145020840867991,-0.11103417072966694,-8.97550663461685,-0.2042840129264489,-0.030117183923721313,0.0031706616282463074,3.9494729543149467,-0.012033522129058838
1745972116353491000,6.156490966796875,-0.014909005705512495,-0.09550122171640396,-0.02633174628520813,-0.022722382098436356,0.09126291832423565,0.9738536806519215,0.1837114112004401,right,-0.0019304752349853516,-0.4188892198750185,-0.13356086804005315,-8.957784515443445,-0.20636556837608602,-0.13821476697921753,-0.001545419916510582,3.9888144923612474,-0.023671746253967285
1745972116393490700,6.19649072265625,-0.017443438354124194,-0.04648621380329132,-0.02743746637863079,-0.04327844828367233,0.09000192661869312,0.9735015775892594,0.1806315313053292,right,-0.01836150884628296,-0.42327219800010124,-0.15595686990916727,-8.93985138386786,-0.20842658717879115,-0.06509725749492645,-0.0008826758712530136,4.0280423409000035,-0.0070209801197052
1745972116433490700,6.23649072265625,-0.01913995204413794,0.015787165611982346,-0.02817889378613889,-0.0179926548153162,0.08986467384286839,0.9735480774095903,0.17998256586368902,right,-0.011272311210632324,-0.4228823894413203,-0.17115325173093004,-8.941142592722176,-0.2081695134899675,0.06639374792575836,-0.0012107379734516144,4.024556544610857,0.0017065107822418213
1745972116473490700,6.27649072265625,-0.018180002427671812,0.07950350642204285,-0.027727797813007417,0.0010454300791025162,0.0909512221677872,0.974008345743565,0.18236470249023146,right,-0.015462517738342285,-0.41756375359670084,-0.1629569579295814,-8.962578179460763,-0.20558909124150868,0.16353654861450195,-0.0071409232914447784,3.976936423040926,0.008982300758361816
1745972116513490700,6.31649072265625,-0.016264123263101928,0.09585478901863098,-0.026936012543356,0.006752025336027145,0.09283091090540457,0.974507211447576,0.1865545319975401,right,-0.0027727484703063965,-0.4110920971997436,-0.14620097124143502,-8.988419892203808,-0.20246627288398397,0.14846527576446533,-0.007285646162927151,3.918841376946866,0.01278829574584961
1745972116553491000,6.356490966796875,-0.01430101639682558,0.05449815094470978,-0.02620021276039071,0.024493420496582985,0.0942024847213047,0.9746128741623238,0.1897491221256543,right,0.00989389419555664,-0.4088409650957709,-0.12868130670441313,-8.997487580278515,-0.20141835058973953,0.06558459252119064,-0.005596629343926907,3.8985947077319025,0.0074295103549957275
1745972116593491000,6.396490966796875,-0.012347579581941822,0.013141516596078873,-0.02546430130205166,0.042234815657138824,0.09557380812192662,0.9747150049059622,0.19293595327032204,right,0.02255457639694214,-0.40658404202432274,-0.11121340888724662,-9.006497400686145,-0.2003697079611916,-0.01729608327150345,-0.003902309574186802,3.878275850063562,0.0020780861377716064
1745972116633490700,6.43649072265625,-0.011009902845196397,-0.041915249079465866,-0.024882207767868012,0.0566306933760643,0.09532667318745057,0.9745457652502646,0.1927319588383101,right,0.024065792560577393,-0.408523219258858,-0.09908254298279061,-8.99910086069405,-0.20138132310882068,-0.07963716983795166,-0.0008067619055509567,3.8957352266475556,-0.006907731294631958
1745972116673490700,6.47649072265625,-0.009299346945490209,-0.07632613182067871,-0.023943874235637905,0.0882231667637825,0.09388210883660529,0.9743495546965538,0.1901716624379795,right,0.0023509860038757324,-0.4118511368294131,-0.08356791639155708,-8.986243132686614,-0.20311527596361922,-0.08185874670743942,0.003626462072134018,3.9256636241823433,-0.0016627907752990723
1745972116713490700,6.51649072265625,-0.007373798181577726,-0.07639610022306442,-0.022759132308193514,0.06683120876550674,0.09200667261931701,0.9743045070177319,0.1867591476596488,right,-0.026478111743927002,-0.41406315418807127,-0.06620013621430844,-8.977682225090264,-0.20432238778757703,-0.02573779970407486,0.006919139064848423,3.9455326922565694,0.012424707412719727
1745972116753490700,6.55649072265625,-0.007195132912911882,-0.04625429958105087,-0.022378541613907663,0.0009852349758148193,0.09072667283359204,0.9744893337641746,0.1841593731654852,right,-0.031992554664611816,-0.4134372584801728,-0.0646138853695942,-8.980161182424425,-0.20405492053347443,0.03782506287097931,0.006992158479988575,3.9399125142872333,0.019489288330078125
1745972116793490700,6.59649072265625,-0.008757213583592318,0.013668879866600037,-0.02295144059778571,-0.07431406527757645,0.09068842957864122,0.9748180385468769,0.18370635811320582,right,-0.01800823211669922,-0.4102423872466431,-0.07875136468899435,-8.99259045588672,-0.20243201235967093,0.10770414769649506,0.005352764390408993,3.9112013835877177,0.011247038841247559
1745972116833491000,6.636490966796875,-0.01114636392640409,0.04844614863395691,-0.024092772154145913,-0.08098116517066956,0.09177510058936938,0.9751485777323561,0.18538116584448328,right,0.0025748610496520996,-0.40593989696392063,-0.10042240415127016,-9.009120150405169,-0.20020549867849152,0.11100614070892334,0.0043359859846532345,3.8724733012646433,0.003445953130722046
1745972116873490700,6.67649072265625,-0.013423170675625056,0.042970214039087296,-0.025261629204118063,-0.07428078353404999,0.09314623621595414,0.9753931241659712,0.18767863326937143,right,0.021141469478607178,-0.40215693282990456,-0.12112992321047931,-9.023452042618393,-0.1982267665544669,0.08069778978824615,0.00004605669528245926,3.8383623573482035,-0.00395733118057251
1745972116913490700,6.71649072265625,-0.014618004317713833,0.010812286287546158,-0.025905999131329686,-0.014843162149190903,0.09390395605185482,0.9754629223149826,0.1889720883970327,right,0.027736127376556396,-0.4006954717386189,-0.13199321686453186,-9.028900371152162,-0.19744136837554616,0.008136704564094543,-0.004922116175293922,3.825169698297977,-0.012435883283615112
1745972116953490700,6.75649072265625,-0.014339367738662392,-0.022155646234750748,-0.025815129854643057,0.04123055562376976,0.09378664040671415,0.9753394977479448,0.18880432470151573,right,0.018332481384277344,-0.4020499276966527,-0.12940301770824006,-9.023747810694575,-0.19811737528921514,-0.06532394140958786,-0.0009269928559660912,3.8373967271864413,-0.004643917083740234
1745972116993490700,6.79649072265625,-0.012306889056248953,-0.019903402775526047,-0.02485977940117179,0.08519934117794037,0.09305354842767867,0.9751053128978179,0.1877545579495603,right,0.000023126602172851562,-0.40513764310541667,-0.11091584157962352,-9.01210121204257,-0.19973159730597137,-0.06764859706163406,0.00364356255158782,3.865243934533,-0.0007879436016082764
1745972117033490700,6.83649072265625,-0.009629454695357993,-0.007910044863820076,-0.023578230084042293,0.05639881640672684,0.09247306391540062,0.9749767018379872,0.18713990334507324,right,-0.01805400848388672,-0.4070214674737835,-0.0867159046942368,-9.005068829187751,-0.20078181692338973,-0.03289065510034561,0.0070154559798538685,3.88221552760005,0.009635388851165771
1745972117073491000,6.876490966796875,-0.00873036308989264,0.011493798345327377,-0.023172206501981454,-0.018913231790065765,0.09240527930969453,0.9749251336019095,0.18719489917594698,right,-0.020062804222106934,-0.40761175240395736,-0.07859946206291206,-9.0028499840945,-0.20111052620553446,-0.009706277400255203,0.0048510171473026276,3.88753058514297,0.007511049509048462
1745972117113491000,6.916490966796875,-0.010156860372089445,0.016616135835647583,-0.023952205710479214,-0.06394058465957642,0.09288987174777963,0.9748448630987918,0.1878991991481212,right,-0.0035115480422973633,-0.4079164787875746,-0.09142988193831406,-9.00154357767105,-0.2011847236928628,-0.025360826402902603,0.004547249525785446,3.8902740386322137,0.004062831401824951
1745972117153490700,6.95649072265625,-0.01208360931235485,0.007210916839540005,-0.02505039061201453,-0.0523887500166893,0.09346322720494422,0.9746094089999305,0.1887013697609527,right,0.009775757789611816,-0.40963906925358534,-0.10869228377863764,-8.994636867022514,-0.2019248432200398,-0.0730668306350708,0.0005746539682149887,3.9057749746248125,0.0020158886909484863
1745972117193490700,6.99649072265625,-0.013520119875361385,-0.01547169592231512,-0.025897436765480484,-0.02639496698975563,0.09352171681471932,0.9742371226322438,0.18856963626303866,right,0.01339113712310791,-0.41317122628984554,-0.12142578261820598,-8.98062061662972,-0.20358071034418782,-0.09507668018341064,-0.0038346825167536736,3.937523281063139,-0.004435330629348755
1745972117233490700,7.03649072265625,-0.014188012139105744,-0.04079693183302879,-0.02627877429562342,0.00005705840885639191,0.09303653878795144,0.9738984975731775,0.18748108810677178,right,0.005378425121307373,-0.4168719713265897,-0.1272162299873773,-8.965905862578749,-0.20536663884476636,-0.10205026715993881,-0.002005624584853649,3.970734353530407,0.004852473735809326
1745972117273490700,7.07649072265625,-0.014136767856355616,-0.030675064772367477,-0.02624594389619542,0.025509219616651535,0.09230190365834036,0.9736376809678531,0.18602371078929256,right,0.000489354133605957,-0.4200442195464065,-0.12657807821431197,-8.953272590976953,-0.20693310034449683,-0.06726332008838654,0.00043360423296689987,3.9991593607649203,0.007760822772979736
1745972117313491000,7.116490966796875,-0.0137278932699412,-0.00579751655459404,-0.026057684602000294,0.014273516833782196,0.09188213221812878,0.973470362911285,0.1852741202367035,right,-0.0043773651123046875,-0.4220288975053219,-0.12280810382207855,-8.9453692705065,-0.2079281098758113,-0.027074649930000305,-0.00022125430405139923,4.016922396470606,0.0035288631916046143
1745972117353491000,7.156490966796875,-0.013478897510695764,0.01709875464439392,-0.026011206817711283,-0.004339206963777542,0.09205132024534336,0.9733795815451529,0.18568441922554457,right,-0.003393232822418213,-0.42274747370615373,-0.12054180285790934,-8.942511542987823,-0.20828404179457616,-0.005754675716161728,-0.0014663618057966232,4.023350091430545,0.006470620632171631
1745972117393490700,7.19649072265625,-0.013414156752436646,0.021915504708886147,-0.02608411880627207,-0.0021571514662355185,0.0925577061103394,0.9733440320547959,0.18673721615655223,right,0.001404106616973877,-0.422631242349427,-0.11996913580279797,-8.942986759284139,-0.2082167308119816,0.013246746733784676,0.0005034189671278,4.022310519249737,0.0025678277015686035
1745972117433490700,7.23649072265625,-0.01280695618142629,0.014453032985329628,-0.025863081939391845,0.010579961352050304,0.09293720681877539,0.9733554946429968,0.1876409239102621,right,-0.00016826391220092773,-0.42219644303467635,-0.1145613128093537,-8.944805791404843,-0.2080214950944205,0.015633685514330864,0.0014472473412752151,4.018421402856707,0.0008323192596435547
1745972117473490700,7.27649072265625,-0.012123262805188455,0.005939604714512825,-0.025568023268351055,0.010487162508070469,0.0931052382302978,0.9733717155623257,0.18812826154628906,right,-0.0011612772941589355,-0.42190916559798447,-0.10845977193070575,-8.946036209982633,-0.2079071677355166,0.008722450584173203,0.0024216799065470695,4.015851260107755,-0.0019398331642150879
1745972117513490700,7.31649072265625,-0.012123262805188455,0.006481023970991373,-0.025568023268351055,-0.0067167943343520164,0.0931052382302978,0.9733717155623257,0.18812826154628906,right,-0.0030150413513183594,-0.42190916559798447,-0.10845977193070575,-8.946036209982633,-0.2079071677355166,-0.010658612474799156,0.0038434499874711037,4.015851260107755,-0.002037554979324341
1745972117553491000,7.356490966796875,-0.012561855727769617,0.012234640307724476,-0.025874905205465086,-0.03346683830022812,0.09345231770697272,0.9732719650254157,0.18875641714685715,right,-0.004034757614135742,-0.4225285932232022,-0.11235215799305587,-8.943498215937614,-0.2081801656570437,-0.010764646343886852,0.0035687489435076714,4.021392527621984,-0.002815753221511841
1745972117593491000,7.396490966796875,-0.013824050568912432,0.02015550807118416,-0.026579255629292246,-0.04847436398267746,0.09396056742834963,0.9731977121617273,0.18953365087293805,right,-0.0014723539352416992,-0.4227316674115766,-0.12362921094661578,-8.94253258577585,-0.20820968594515085,0.00043401215225458145,0.0015281029045581818,4.023208637133241,0.00010961294174194336
1745972117633490700,7.43649072265625,-0.015183411722251131,0.020178595557808876,-0.027321493635481812,-0.04660455510020256,0.09459278132459567,0.9731859313584674,0.19053552860063325,right,0.001061081886291504,-0.42221787290771273,-0.13581659281128086,-8.944422345045208,-0.20788202878838125,0.01936744526028633,-0.001492091454565525,4.0186131260365245,0.002729952335357666
1745972117673490700,7.47649072265625,-0.016446403418814193,0.012032551690936089,-0.027969179049204505,-0.033114828169345856,0.0951306681896197,0.9732485727861551,0.19135718090992662,right,0.0037268400192260742,-0.421078278118922,-0.14718842964251524,-8.948816780611873,-0.20725605849455744,0.03254653513431549,-0.0022424980998039246,4.008416141670942,0.0037108957767486572
1745972117713490700,7.51649072265625,-0.01737876139446789,-0.0020531341433525085,-0.028400385067565547,-0.02385944128036499,0.0953623454519311,0.9733363433182142,0.19162189145948758,right,0.003268599510192871,-0.41999005728570726,-0.15560758154746143,-8.953031767958402,-0.20667815527250888,0.03076016716659069,-0.0011120159178972244,3.9986742075964807,-0.0007988512516021729
1745972117753490700,7.55649072265625,-0.01839352622003032,-0.015165308490395546,-0.02880070628384912,-0.021602194756269455,0.09525949336407247,0.9734524719364458,0.19118328246709887,right,0.004817843437194824,-0.41893563741123596,-0.16477016309769824,-8.957079582044482,-0.20612268947703985,0.030409984290599823,0.0007351990789175034,3.9892303796857593,-0.003769218921661377
1745972117793490700,7.59649072265625,-0.019645054727616015,-0.020935937762260437,-0.029277662906520913,-0.028971532359719276,0.09495246132877849,0.973566318982514,0.19027854165134775,right,0.007246553897857666,-0.4180780309287873,-0.17604721605125814,-8.960283346521853,-0.20565871692228702,0.017522335052490234,0.0033522462472319603,3.9815459626629948,-0.011850208044052124
1745972117833491000,7.636490966796875,-0.02089779009067982,-0.015001725405454636,-0.029786925779459107,-0.02638300321996212,0.09466039508374023,0.9736151374734002,0.1894115136289248,right,0.007958054542541504,-0.41782550000656826,-0.18729294228479265,-8.961060760635137,-0.205489150161335,-0.009378064423799515,0.0048398207873106,3.979282693906128,-0.014359861612319946
1745972117873490700,7.67649072265625,-0.022291494523677572,0.0045221056789159775,-0.030457030384358166,-0.02794465608894825,0.09461140966420582,0.9735398254960291,0.18902308083856462,right,0.009313464164733887,-0.41852652187712946,-0.19971960366489364,-8.958000204020738,-0.20577043622987623,-0.02849709615111351,0.004257284104824066,3.985564842915535,-0.015561610460281372
1745972117913490700,7.71649072265625,-0.023393756681199578,0.01309556420892477,-0.0311457351962167,-0.03774450719356537,0.09487010265158158,0.9732316721258479,0.18934416733719178,right,0.0020800232887268066,-0.4211732233383809,-0.2093460581335239,-8.94719765497744,-0.2070020133883081,-0.11225302517414093,0.0013004820793867111,4.009266036498547,-0.0032555460929870605
1745972117953490700,7.75649072265625,-0.024120379418113312,0.025712549686431885,-0.03180882986099045,-0.013026107102632523,0.09524853968312082,0.9726276138284209,0.1900123143852364,right,0.002951383590698242,-0.4265023300751471,-0.21532887713648377,-8.925556316533685,-0.2095506552721771,-0.17010517418384552,0.006283912807703018,4.056902524681389,0.0013568699359893799
1745972117993490700,7.79649072265625,-0.023549927803002243,0.057187169790267944,-0.031995468869312246,0.0012567490339279175,0.09585039100961337,0.9718291741202272,0.19143652495599375,right,-0.010496795177459717,-0.43343197910835923,-0.20957020401190965,-8.897358980575204,-0.21292545404895694,-0.17966866493225098,0.001110883429646492,4.118673628939688,0.007944673299789429
1745972118033490700,7.83649072265625,-0.02323025628603135,0.028058918192982674,-0.0323734934065462,-0.05046052485704422,0.09667886215948178,0.9709489685613965,0.1932843966591248,right,-0.02918297052383423,-0.44077514364435727,-0.20601788182519376,-8.866949813786148,-0.2164794433760954,-0.1763157993555069,-0.0021842531859874725,4.183914747396111,0.036982834339141846
1745972118073491000,7.876490966796875,-0.02558565169492174,-0.020722607150673866,-0.03372012224553347,-0.0655534490942955,0.09689613087046453,0.9704132171145075,0.19324791402726388,right,-0.012763023376464844,-0.44531161697544197,-0.2264145539700985,-8.847374760222435,-0.21856896730409792,-0.049248069524765015,-0.00038031674921512604,4.2241070570528505,0.028378576040267944
1745972118113491000,7.916490966796875,-0.02819662007828537,-0.03779708594083786,-0.0348287552387052,-0.04106130450963974,0.09653738829158143,0.9704645318832836,0.19191842561163736,right,-0.0018559098243713379,-0.44502427758159285,-0.24954817679822444,-8.847966296374798,-0.2183259796313236,0.05126752704381943,-0.0022742711007595062,4.221563802310824,0.016874879598617554
1745972118153490700,7.95649072265625,-0.0306036031343474,-0.03387180343270302,-0.03575053386973406,-0.045916296541690826,0.0961211270574105,0.9707171663376047,0.1905063025644742,right,0.0032486319541931152,-0.4429650075750862,-0.2711097828029655,-8.856010486620663,-0.2172349659642329,0.06327987462282181,-0.0038001947104930878,4.2033273038744925,0.003967314958572388
1745972118193490700,7.99649072265625,-0.032723238212228646,-0.014711111783981323,-0.03657374824476894,-0.02789061889052391,0.0958505624614292,0.9709575567875666,0.18946419774785317,right,0.011605441570281982,-0.44088150821711436,-0.29016654811361803,-8.86414995393455,-0.21614004334351897,0.05522977560758591,-0.00007897242903709412,4.184858165726065,-0.00523531436920166
1745972118233490700,8.03649072265625,-0.0337354091453272,-0.004241876304149628,-0.03695180699912903,-0.02036123350262642,0.09580133532883593,0.971145853986818,0.18912992040766652,right,0.00565493106842041,-0.43913610815471016,-0.29938434871612113,-8.871137913125754,-0.21524966204361853,0.04289329797029495,-0.0018733460456132889,4.169371842780709,-0.005760073661804199
1745972118273490700,8.07649072265625,-0.034782359824380195,-0.004901411011815071,-0.03737380414831593,-0.018245922401547432,0.09588117472894107,0.971323311559957,0.18905571089201784,right,0.0047359466552734375,-0.4373617678294386,-0.30892858652770516,-8.878198937553167,-0.21433859720948303,0.04681111127138138,0.0027927830815315247,4.153616055244207,-0.004180938005447388
1745972118313491000,8.116490966796874,-0.0357062854362988,-0.0044312383979558945,-0.03773804096862811,-0.024415118619799614,0.09592121314268344,0.9714866158964315,0.1889292092157859,right,-0.0007991194725036621,-0.43575403377597716,-0.31736922874525186,-8.88457197971642,-0.21351520855420056,0.03347048535943031,0.0009849518537521362,4.139328294433653,-0.0027911365032196045
1745972118353491000,8.156490966796875,-0.037019800540200584,-0.006311918143182993,-0.03831472910786099,-0.040605440735816956,0.0960138313119233,0.971590855247295,0.18882844643926489,right,-0.002996385097503662,-0.43460519662517383,-0.3292147840354591,-8.888893934568761,-0.21289560470400845,0.022228047251701355,0.002001706510782242,4.129112020845711,0.0011613965034484863
1745972118393490700,8.19649072265625,-0.03892107781274459,-0.01043904758989811,-0.03918154403956942,-0.06067783385515213,0.09611138337499173,0.9716475542470565,0.18861166162999973,right,-0.004416406154632568,-0.4338365799317312,-0.3462378150288015,-8.891420822697878,-0.21243477585759837,0.021580811589956284,0.0009373724460601807,4.122273991519212,0.001963287591934204
1745972118433490700,8.23649072265625,-0.041241704107492894,-0.01903224177658558,-0.040210576580877844,-0.05686136335134506,0.09612425515596268,0.9717414682709049,0.18813073588423954,right,-0.0003193020820617676,-0.4327528231806888,-0.3670545026840642,-8.89505128815472,-0.21180583093319594,0.02812141552567482,0.0019374676048755646,4.112628211295604,0.0026592910289764404
1745972118473490700,8.27649072265625,-0.043112577273358946,-0.02032133750617504,-0.040992139185569564,-0.037884119898080826,0.09591706451698231,0.971840950049276,0.18729745103604137,right,-0.00009644031524658203,-0.4318486007322745,-0.3838554884245619,-8.898060991364718,-0.21129317127081382,0.008817968890070915,-0.0002848617732524872,4.104576422265172,0.003528386354446411
1745972118513490700,8.31649072265625,-0.04433741880446246,-0.027023114264011383,-0.04146554318496903,-0.008383570238947868,0.09548085248291477,0.9718685277298609,0.18613346485203242,right,0.0018360018730163574,-0.4318762386891024,-0.3947488940890878,-8.897471208778024,-0.21127197858824878,-0.007634058594703674,0.0007962696254253387,4.104822798241675,-0.0005922615528106689
1745972118553491000,8.356490966796875,-0.04522940022387414,-0.017145007848739624,-0.04181180606126692,-0.011815153993666172,0.09504780973528368,0.9718320610913552,0.18504696361188805,right,0.0018285512924194336,-0.4325220561423785,-0.40256515733059495,-8.894465012699365,-0.21156623254770074,-0.017983874306082726,-0.0005899444222450256,4.110573616853356,-0.0034658312797546387
1745972118593491000,8.396490966796875,-0.046158213760054606,-0.016583573073148727,-0.042236823234883564,-0.012820642441511154,0.09478653895398172,0.9717147278411659,0.18430369246972572,right,0.0029135942459106445,-0.43375403041745164,-0.4105922868438065,-8.889021944862604,-0.21213693981876822,-0.0360330268740654,0.0006262771785259247,4.121539539764822,-0.0023173391819000244
1745972118633490700,8.43649072265625,-0.046793746979028036,-0.00693146139383316,-0.04254843745994709,-0.008230897597968578,0.09461843671996009,0.971584478136178,0.18381502850475026,right,-0.00190657377243042,-0.43504686736490905,-0.41599188086502253,-8.883429239422082,-0.21274587004074624,-0.03595879301428795,-0.0011408217251300812,4.13304030020535,0.001845329999923706
1745972118673490700,8.47649072265625,-0.04730739169903819,-0.006797417998313904,-0.04280817505048393,-0.0039595612324774265,0.09447988931840276,0.971455991536234,0.18341320084096022,right,0.0008222460746765137,-0.4363030866339156,-0.4203089038139209,-8.878021242898702,-0.2133409818912406,-0.024421006441116333,-0.000589374452829361,4.144208759951591,0.0019981861114501953
1745972118713490700,8.51649072265625,-0.04761063626386178,-0.009632265195250511,-0.042938663044601186,0.00020740600302815437,0.09431510009026786,0.9713995391971041,0.1830051514854521,right,0.0019246935844421387,-0.43693891035080806,-0.42287557596415276,-8.875259376969932,-0.213644541974461,-0.009321341291069984,0.0007657036185264587,4.149859333059191,0.0029428601264953613
1745972118753490700,8.55649072265625,-0.04761063626386178,-0.008838634938001633,-0.042938663044601186,0.0038279921282082796,0.09431510009026786,0.9713995391971041,0.1830051514854521,right,-0.0010541677474975586,-0.43693891035080806,-0.42287557596415276,-8.875259376969932,-0.213644541974461,-0.0036881165578961372,0.0014321915805339813,4.149859333059191,0.0030132532119750977
1745972118793490700,8.59649072265625,-0.04796886011588365,-0.017758674919605255,-0.043035159626275056,-0.007820704020559788,0.09399899610522905,0.9714250851363508,0.18227552886815698,right,-0.0025325417518615723,-0.43694967917453265,-0.4260527446955442,-8.875062977614999,-0.2136485806709659,0.005089109763503075,0.0011422671377658844,4.1499549023881555,0.004188567399978638
1745972118833491000,8.636490966796876,-0.04880978864538169,-0.02205534279346466,-0.043339064732864405,-0.02045280858874321,0.09363976142982751,0.9714656146467767,0.18135159210883073,right,-0.00219118595123291,-0.43680875725933394,-0.43354441562518475,-8.875285680454969,-0.21356056935041226,0.001863665645942092,-0.0006262212991714478,4.148702856500447,0.0034839212894439697
1745972118873490700,8.67649072265625,-0.0497951051327231,-0.012586318887770176,-0.043745206428248945,-0.017294637858867645,0.09338520886694252,0.9714611267270804,0.18061016167053917,right,-0.00014442205429077148,-0.4369709017407376,-0.44225569147765637,-8.874182103127241,-0.21360948553853107,-0.008335074409842491,0.0003706105053424835,4.150143410697579,0.00833219289779663
1745972118913490700,8.71649072265625,-0.05089992824674252,-0.012847954407334328,-0.044245187449012256,-0.023267030715942383,0.09321352226996736,0.9713919894780055,0.18001016460738337,right,0.0009118318557739258,-0.4376374589740514,-0.45191897082533683,-8.870922809070349,-0.2138952505221635,-0.014028031378984451,-0.001263011246919632,4.156064909701049,0.007138967514038086
1745972118953490700,8.75649072265625,-0.052144345160408126,-0.00019058212637901306,-0.044830230145651254,-0.025961093604564667,0.09315164625312905,0.9713192974029193,0.17960526136182833,right,0.0031300783157348633,-0.4382222869466262,-0.46283097159247844,-8.867924796298146,-0.21413060857708183,-0.003117930144071579,-0.0002489425241947174,4.161258971212804,0.003215968608856201
1745972118993490700,8.79649072265625,-0.05305977030956701,-0.0002480075054336339,-0.045271708311516015,-0.004456786438822746,0.09321959605916515,0.9712920729487197,0.17954283318706005,right,0.010200083255767822,-0.43831008417796785,-0.47092933971099554,-8.867132769137621,-0.21413202799786452,0.018302543088793755,0.0023264549672603607,4.162038723413646,-0.005870312452316284
1745972119033490700,8.83649072265625,-0.05278789896754249,0.0058527314104139805,-0.04513458325653141,0.01274142600595951,0.09333991899524516,0.9713866511270656,0.17985649131611858,right,0.00793302059173584,-0.43736564648275666,-0.4687257652521133,-8.871181752267479,-0.21367847548365518,0.032454293221235275,0.0029317475855350494,4.153650542035699,-0.008155673742294312
1745972119073491000,8.876490966796876,-0.05209171360312175,0.009120481088757515,-0.044807116815703374,0.0048927729949355125,0.09351485776343921,0.9714969907062291,0.18037636434940085,right,-0.000022590160369873047,-0.43627477169856105,-0.46278534235246477,-8.876025685167312,-0.21316887883517024,0.02521785907447338,0.001888364553451538,4.143957123278081,-0.006690561771392822
1745972119113491000,8.916490966796875,-0.051682438205294515,0.01365356519818306,-0.04466749679987215,-0.004591570235788822,0.09379702267924599,0.971507580972675,0.18104880705509035,right,-0.004644572734832764,-0.4359726759868865,-0.4592172015421092,-8.877464193537831,-0.21302609690287658,-0.010577114298939705,0.0022875703871250153,4.141271829716861,-0.0029443204402923584
1745972119153490700,8.95649072265625,-0.051794186356737486,0.0169663242995739,-0.044843435445472965,-0.018658047541975975,0.09421579293131137,0.9713795722810239,0.18188191566879344,right,-0.004319190979003906,-0.4367655587164029,-0.4600391123842448,-8.874130665200948,-0.213387726181568,-0.030374886468052864,0.002758193761110306,4.148318825618922,0.002384394407272339
1745972119193490700,8.99649072265625,-0.052303996711439836,0.026609767228364944,-0.04523725669489614,-0.029593631625175476,0.09479037925266943,0.9712329259696179,0.18294850302248145,right,-0.005225479602813721,-0.43754241340702826,-0.46439456764739007,-8.870674387267231,-0.21371730247712262,-0.013423789292573929,0.0002534724771976471,4.155220860092341,0.0025740861892700195
1745972119233490700,9.03649072265625,-0.05316374551024572,0.01928650587797165,-0.04581954468605397,-0.039965227246284485,0.0954818431045015,0.9710679514533997,0.1841784843398072,right,-0.00961977243423462,-0.43833742053430613,-0.4718452489795163,-8.866970272052287,-0.21403486015671175,-0.029839450493454933,0.0008913613855838776,4.162281299997866,0.011830300092697144
1745972119273490700,9.07649072265625,-0.054232888186617347,0.021531442180275917,-0.046489077188347466,-0.04171986132860184,0.09609771411429836,0.9708887118540845,0.18520518659681057,right,-0.007475137710571289,-0.43930002412272307,-0.481107619376108,-8.862456009498239,-0.21442780374759018,-0.012242471799254417,-0.001091301441192627,4.170827010025084,0.011770546436309814
1745972119313491000,9.116490966796874,-0.05537486598737417,0.01127585582435131,-0.047127041812630284,-0.0267343632876873,0.09664876560659193,0.9708484213794589,0.18609001468305625,right,0.002809286117553711,-0.43903457323606393,-0.4912892965747043,-8.863006044596434,-0.2142230678020447,0.03316091001033783,0.00011855363845825195,4.168470802287757,0.011306703090667725
1745972119353491000,9.156490966796875,-0.056089931219041884,0.007334832567721605,-0.047451003574838245,-0.02220408245921135,0.09698259900824162,0.9710149693317393,0.18663381454846154,right,0.006097733974456787,-0.43711622926481647,-0.49807417094185946,-8.8706194422096,-0.21324324083811952,0.06545599550008774,-0.0024385154247283936,4.151434619551897,0.0045185387134552
1745972119393490700,9.19649072265625,-0.056288531311661144,0.0016813152469694614,-0.04746645533046699,0.004430873319506645,0.09714204828426061,0.9712859928681827,0.18693839464103668,right,0.01059424877166748,-0.4344482676284613,-0.5004571936208755,-8.881547663459182,-0.21192934590024734,0.07008405029773712,0.0006047077476978302,4.127716182573139,-0.0003377199172973633
1745972119433490700,9.23649072265625,-0.0561232619157291,-0.0082810427993536,-0.047303146199565015,0.005049253348261118,0.09715887196270254,0.9715202025209768,0.18702517753668418,right,0.00801175832748413,-0.4322815453379366,-0.49948984642606226,-8.89053877916634,-0.21088172972922894,0.05010563135147095,0.0015129297971725464,4.1084322209104895,-0.0038037896156311035
1745972119473490700,9.27649072265625,-0.05602860814302713,-0.025454504415392876,-0.0471381337522015,0.008458237163722515,0.09686622141960284,0.9716993753161399,0.18645369036155893,right,0.0032668709754943848,-0.4308973824027504,-0.4989662974759936,-8.896255403247475,-0.21022661376136217,0.0259537473320961,0.001518499106168747,4.0961029006913305,-0.0038456618785858154
1745972119513490700,9.31649072265625,-0.05586134041073524,-0.024726057425141335,-0.046920836245404926,0.01436544954776764,0.09626572531062846,0.9717869811710356,0.18525579012247723,right,-0.0030753016471862793,-0.4306581132862603,-0.4975329402046278,-8.897316894999147,-0.2101464548267968,-0.012956686317920685,0.0008010715246200562,4.093970857098698,-0.0020104944705963135
1745972119553491000,9.356490966796875,-0.055600394634282464,-0.015213856473565102,-0.04671767327992639,0.011790720745921135,0.09573581486478683,0.9717584436266576,0.18421569635417567,right,-0.0011452436447143555,-0.43144299246952933,-0.495032501691021,-8.894235295596719,-0.21056513186995787,-0.01809757947921753,0.00025127455592155457,4.1009637847259635,-0.005251884460449219
1745972119593491000,9.396490966796875,-0.05505026904106269,-0.018398813903331757,-0.046434074405253926,0.031706303358078,0.09552302663043116,0.97174149217421,0.18389392346982333,right,-0.0032563209533691406,-0.4318628855136073,-0.4900447033410892,-8.892786265832186,-0.210803147690361,-0.014001666568219662,-0.0003791004419326782,4.104703848037124,-0.0016332566738128662
1745972119768905500,9.571905517578125,-0.05681657030293667,-0.002659447956830263,-0.04717974608156315,-0.011007163673639297,0.09526806807804777,0.9717878708535685,0.18298948905539356,right,-0.002887821989133954,-0.43144883762453834,-0.5058477275528014,-8.893602842912077,-0.21053867513821115,-0.015549767762422562,0.0018068891949951649,4.101015807174146,-0.0037609622813761234
1745972119808808200,9.61180810546875,-0.05690004940181486,-0.0013220065739005804,-0.04726790231116212,-0.0059792292304337025,0.09529681680350163,0.9716695898740195,0.18302171115581622,right,-0.003870967775583267,-0.43251193558250267,-0.5063419042779133,-8.889202562126517,-0.21105105648484623,-0.04411511495709419,0.001127478783018887,4.110483600482344,0.00402110954746604
1745972119848808000,9.651807861328125,-0.056249840001392694,0.00003805418964475393,-0.04699967537474233,0.001317259855568409,0.09528919365461447,0.9715879616040191,0.18314054985666148,right,-0.0020990371704101562,-0.43335569979705396,-0.5003668119236827,-8.88606426410079,-0.2114896229982899,-0.030986769124865532,0.0015667229890823364,4.117994706764817,0.004651367664337158
1745972119888808000,9.691807861328124,-0.05559928620980974,0.0013981149531900883,-0.04673143898803428,0.008613748475909233,0.0952815327045982,0.9715061690392025,0.18326003364947016,right,-0.0003281831741333008,-0.4341994741077399,-0.4943925598196685,-8.882915444681048,-0.21192814843802596,-0.01785842329263687,0.002006072551012039,4.125502890437841,0.005281955003738403
1745972120048224300,9.851224365234375,-0.05565366554974034,-0.010737652890384197,-0.04665734017169766,-0.020695718005299568,0.09453492585524839,0.971408167897145,0.18169909795603567,right,0.0003641938092187047,-0.43577135532232064,-0.49451428650319573,-8.87640270178616,-0.21272638641230496,-0.005347386933863163,0.003463238012045622,4.139482315951586,-0.003940798807889223
1745972120088127500,9.89112744140625,-0.05710742451069217,0.022401779890060425,-0.04744647718005028,-0.062378767877817154,0.09490799294387925,0.9712580223515546,0.18214164706672212,right,-0.005925916135311127,-0.4366428929391172,-0.5072117824476212,-8.872069056496024,-0.21307089002312327,-0.025421716272830963,0.003217150457203388,4.147228692294657,-0.0032863717060536146
1745972120128127700,9.931127685546874,-0.05873462392311799,0.0345536507666111,-0.048460622572768994,-0.056206297129392624,0.09592621691439647,0.9710326140757779,0.18387314117264586,right,-0.005001962184906006,-0.43759353481356184,-0.5214160662258044,-8.867292343613505,-0.21341388850957063,-0.02436872199177742,0.0008530542254447937,4.155674741339683,-0.0004271268844604492
1745972120168127700,9.971127685546875,-0.05998090465722754,0.031973108649253845,-0.04928329279871748,-0.04261153191328049,0.0969348864354671,0.9708481975957067,0.1856712140201428,right,0.0005143284797668457,-0.43820794141770286,-0.5323136366087943,-8.864085072004794,-0.21360850967755662,-0.012076971121132374,0.0003705024719238281,4.161131545440853,0.0030532777309417725
1745972120208127700,10.011127685546874,-0.06045291187615219,0.02198931947350502,-0.049681216620911205,-0.010110460221767426,0.09765957536916624,0.9707148478418449,0.1870557006900928,right,0.0042572021484375,-0.4387036266855033,-0.5363728123391047,-8.861773287931085,-0.213792196263096,-0.003436524420976639,-0.00028580427169799805,4.165532703009248,0.00025972723960876465
1745972120248127700,10.051127685546875,-0.060448753050945436,-0.0002766922116279602,-0.04973518947864111,0.0017192326486110687,0.09793365768641396,0.9706991432819807,0.18762234467325725,right,0.0044863224029541016,-0.4385958745392576,-0.5363630946626886,-8.862223369786143,-0.2137259343340561,0.014070304110646248,-0.0016662627458572388,4.164576132936776,-0.0003826618194580078
1745972120288127700,10.091127685546875,-0.06045356425045785,-0.02303502708673477,-0.04967352401423844,0.014800040982663631,0.09771065248748279,0.9707605293590174,0.18716513789279202,right,0.003634035587310791,-0.4382378481777942,-0.5364957445990294,-8.863708639907836,-0.21356308655150452,0.004734024405479431,0.00028850138187408447,4.161397210639715,0.0034801065921783447
1745972120328127700,10.131127685546875,-0.06059787897434687,-0.03453519940376282,-0.04961073852190904,0.00891401432454586,0.09708789079608601,0.9708007982268857,0.18584861661880486,right,-0.0003407001495361328,-0.43842243009154025,-0.5377283916665241,-8.86286400577724,-0.21367845157627952,-0.008425028063356876,0.0005077570676803589,4.163036210018396,0.0011155009269714355
1745972120368127700,10.171127685546875,-0.06109584848180684,-0.027423091232776642,-0.04971285169118467,0.004559847991913557,0.0963952358925972,0.9707966874377845,0.18430607136756508,right,-0.0023177266120910645,-0.4390288191175135,-0.5419875469483435,-8.860074082797766,-0.2139873508320494,-0.005977276712656021,0.0017196312546730042,4.16841965662241,-0.003365933895111084
1745972120408127700,10.211127685546876,-0.06173457565794438,-0.009560074657201767,-0.04994898993478711,-0.011998515576124191,0.0960752057998649,0.9707875003114408,0.18350297109316333,right,-0.002872288227081299,-0.4393196247775324,-0.5475717768214643,-8.85851574743986,-0.2141179592882639,-0.00595216266810894,0.0013589337468147278,4.171000905287266,-0.004068583250045776
1745972120448127700,10.251127685546875,-0.062431895305545944,0.015103209763765335,-0.050314917194940016,-0.015370339155197144,0.09622396945200021,0.9707323837924179,0.18365269875034973,right,0.0006494522094726562,-0.43959591084130095,-0.5536769252961501,-8.856981377479434,-0.21421497561822272,-0.009081223048269749,0.0016526728868484497,4.1734529746145,-0.003895312547683716
1745972120488127700,10.291127685546876,-0.06254314203423306,0.02230972982943058,-0.050481895725973606,-0.01232174038887024,0.09665641848204011,0.9706331881742274,0.18451386625351032,right,0.0005077123641967773,-0.44009576131652883,-0.5545317885598168,-8.854836766666173,-0.21443080141746354,-0.011994486674666405,0.0019060149788856506,4.177888034452498,-0.0019266605377197266
1745972120528127700,10.331127685546875,-0.06269330497420283,0.01702852174639702,-0.050669970449862954,-0.01489814929664135,0.09709499988343032,0.9705281270646172,0.18537871227264216,right,0.00036150217056274414,-0.44063430588473457,-0.5557204138224944,-8.852506277891994,-0.2146633649634817,-0.014633247628808022,0.0018298998475074768,4.182665624117851,0.0011947154998779297
1745972120568127700,10.371127685546876,-0.06288901325829047,0.012192224152386189,-0.050860475838560806,-0.012634465470910072,0.09743782298868486,0.9704252905271361,0.18603559444725,right,-0.0007500052452087402,-0.44123221835216087,-0.5572956272499635,-8.84989989478588,-0.21492768635078127,-0.016434738412499428,0.0017437823116779327,4.187968406701088,0.002349555492401123
1745972120608127700,10.411127685546875,-0.06292109190309998,0.015795115381479263,-0.050978870442632405,-0.009310307912528515,0.09780139843048227,0.9703263721272923,0.1867719385787934,right,0.0016329288482666016,-0.44179622371260885,-0.5574309075348078,-8.847523228782414,-0.21518136361643117,-0.010675428435206413,0.0016416050493717194,4.192968991467357,0.0014133751392364502
1745972120648127700,10.451127685546876,-0.06288636682568348,0.01304424088448286,-0.051068030440821276,-0.011404816061258316,0.09826917808844729,0.9702756592855379,0.18774344450347497,right,0.0019701123237609863,-0.4418311501292055,-0.5571144619967788,-8.847396387532353,-0.21517527282177865,-0.000655442476272583,0.0027343258261680603,4.193278495807945,0.0017301738262176514
1745972120688127700,10.491127685546875,-0.06285165586591376,0.010293366387486458,-0.05115719043900955,-0.013499325141310692,0.0987369072224255,0.9702249148203621,0.1887149451387938,right,0.0023072361946105957,-0.4418662422707794,-0.5567981260566041,-8.8472689617604,-0.2151691820271239,0.009364544413983822,0.003827054053544998,4.193589461453259,0.0020468533039093018
1745972120728127700,10.531127685546876,-0.06285165586591376,-0.004304884932935238,-0.05115719043900955,-0.0031045228242874146,0.0987369072224255,0.9702249148203621,0.1887149451387938,right,0.00455474853515625,-0.4418662422707794,-0.5567981260566041,-8.8472689617604,-0.2151691820271239,0.003953160252422094,0.0038135014474391937,4.193589461453259,0.002618163824081421
1745972120768127700,10.571127685546875,-0.06285165586591376,-0.031181801110506058,-0.05115719043900955,-0.0046263448894023895,0.0987369072224255,0.9702249148203621,0.1887149451387938,right,0.0030490756034851074,-0.4418662422707794,-0.5567981260566041,-8.8472689617604,-0.2151691820271239,-0.0030405675061047077,0.005129888653755188,4.193589461453259,0.00403246283531189
1745972120808127700,10.611127685546874,-0.06400714658093988,-0.1074918806552887,-0.05136021561307462,-0.010966930538415909,0.09724872261144685,0.9703579109620817,0.18539114977397197,right,-0.004895508289337158,-0.44186732445830207,-0.5670203909939154,-8.846614881765841,-0.21519830515556432,-0.007883837446570396,0.0009407699108123779,4.193599106064439,0.012989252805709839
1745972120848127500,10.65112744140625,-0.06630281614471258,-0.10611828416585922,-0.05193734276720038,0.0147030558437109,0.09504429350625775,0.9705222379655755,0.18033671060843925,right,0.005433142185211182,-0.44204350606148196,-0.5872788237119093,-8.844552688539027,-0.21530405357828625,-0.01540356781333685,0.003161471337080002,4.195160948553681,-0.0009659230709075928
1745972120888127700,10.691127685546874,-0.06703190911562731,-0.057616740465164185,-0.05192837078404876,0.019926197826862335,0.09330747661371042,0.9705633204630364,0.17658173114744807,right,0.0005173087120056152,-0.44309845937784986,-0.5934304051442072,-8.839701741376519,-0.2158798570541887,-0.03413943573832512,0.0009699724614620209,4.204509791657328,-0.006253719329833984
1745972120928127700,10.731127685546875,-0.06703178952449161,-0.003947656601667404,-0.05183905215612683,0.005216446705162525,0.09261422460599805,0.9704383822956412,0.17512946397161022,right,-0.0026620030403137207,-0.4448314376407679,-0.5929403931375593,-8.832418014109134,-0.2167595946526459,-0.03670177981257439,0.0004863739013671875,4.219856998392939,-0.00938519835472107
1745972120968127700,10.771127685546874,-0.06659316507243561,0.03343549743294716,-0.05175698667011516,-0.007309317588806152,0.09294657795357732,0.9702785751011916,0.17589615586635293,right,-0.003556549549102783,-0.446049172675452,-0.5887238348884508,-8.827543686071039,-0.21735168584003825,-0.020331846550107002,0.001302570104598999,4.230633536212146,-0.005702674388885498
1745972121008127700,10.811127685546875,-0.06639932603762828,0.03955140709877014,-0.05187657456217661,-0.023794235661625862,0.09379868238310914,0.9701471345422383,0.1776899148928199,right,-0.0040673017501831055,-0.446521657823216,-0.5868800336526706,-8.825662110108137,-0.21754377366648384,-0.00987783819437027,0.000822070986032486,4.23481315998435,0.00028970837593078613
1745972121048127700,10.851127685546874,-0.06689964293671578,0.032969340682029724,-0.05231033887887112,-0.03947455435991287,0.09469028856743868,0.9700430202161244,0.17941476189794137,right,-0.0012722611427307129,-0.44660915403777596,-0.5912708159575238,-8.824997508719562,-0.2175177755008959,0.0036543700844049454,0.0007317140698432922,4.235587066966295,-0.0004985332489013672
1745972121088127500,10.89112744140625,-0.06787977559188789,0.02527669444680214,-0.052940478516706774,-0.04687412828207016,0.09550232517521985,0.9699577323166838,0.1808704833253562,right,-0.0006149411201477051,-0.4465217954716384,-0.5999452669309452,-8.824782989186048,-0.21739044832291735,0.0018654688028618693,0.00012927502393722534,4.234814329028129,0.0004342496395111084
1745972121128127700,10.931127685546874,-0.06900910680361105,0.02258305624127388,-0.05361584426670656,-0.040918413549661636,0.09619331487666351,0.9698705836184556,0.18204215583873976,right,-0.00045746564865112305,-0.4465308700903736,-0.6099083694754168,-8.824061689174174,-0.21730950013818778,-0.004164927173405886,0.00100640207529068,4.234894700787962,0.0005256235599517822
1745972121168127700,10.971127685546875,-0.06999139263083505,0.025341752916574478,-0.05422666303030903,-0.03886015713214874,0.09686210931686486,0.9697638470017977,0.18319819516300198,right,-0.0005732178688049316,-0.4467496206403195,-0.618511033854261,-8.822533748954534,-0.2173371539222693,-0.0050414493307471275,0.0005454719066619873,4.236829468242824,-0.00010156631469726562
1745972121208127700,11.011127685546874,-0.07106147411123684,0.02661273255944252,-0.054887592057619526,-0.04119566082954407,0.09755192958782158,0.9696389090932173,0.18437613153857865,right,-0.0007085800170898438,-0.4470944430254797,-0.6278477481286973,-8.820409596407414,-0.21742043166976094,-0.008680038154125214,0.0005694925785064697,4.239878918941319,0.0004305243492126465
1745972121248127700,11.051127685546875,-0.07225839052379457,0.02266409434378147,-0.05560501383139573,-0.04461729899048805,0.09823337339613598,0.9695119628772513,0.18550825571784865,right,0.0003644227981567383,-0.447437257006225,-0.6382995840381831,-8.818201272708176,-0.21749703652943655,-0.008289249613881111,0.0006096586585044861,4.242909957200289,-0.00043526291847229004
1745972121288127700,11.091127685546875,-0.07364902829476164,0.024233628064393997,-0.056416043036894924,-0.0460355281829834,0.09891124683390572,0.9693666792519174,0.1865874194061416,right,0.0010431408882141113,-0.4479120296949834,-0.6504135810062289,-8.815295029872656,-0.2176287504196427,-0.011913219466805458,-0.00009259581565856934,4.247107116629183,-0.001849144697189331
1745972121328127700,11.131127685546875,-0.07504237439369876,0.027766665443778038,-0.05724746867795279,-0.04312002286314964,0.09963590008213691,0.9691912573540705,0.1877587027808928,right,0.002866029739379883,-0.4486032415306553,-0.6624754824608564,-8.811450629404186,-0.2178618480958338,-0.01872054487466812,-0.0004614293575286865,4.253215954898297,-0.0032986700534820557
1745972121368127700,11.171127685546875,-0.07592925051371809,0.035984814167022705,-0.05786667663894016,-0.027211830019950867,0.10043902947777207,0.9690072941527241,0.18920426960287584,right,0.003504037857055664,-0.449369078286159,-0.6700425567142665,-8.807609151545167,-0.218147578876812,-0.017056969925761223,-0.00012157857418060303,4.25998179577142,-0.000796586275100708
1745972121408127700,11.211127685546876,-0.07635116777016415,0.032065194100141525,-0.05828144049573659,-0.02398648113012314,0.10125668446759796,0.9688131557024351,0.1907821721216674,right,0.0023140907287597656,-0.4502769506378932,-0.6734633249431848,-8.803466060391068,-0.21852104478182804,-0.020462211221456528,-0.0006099045276641846,4.267999390271306,0.0032213926315307617
1745972121448127700,11.251127685546875,-0.07678689600962875,0.022328540682792664,-0.058657875142170246,-0.020576030015945435,0.10190308395311529,0.9686540086083796,0.1920061697698481,right,0.002726733684539795,-0.4510233985075839,-0.677054554368183,-8.79999283132255,-0.21882528842806998,-0.014274049550294876,-0.00009060651063919067,4.274588705533743,0.005021542310714722
1745972121488127700,11.291127685546876,-0.07719960846215417,0.011753715574741364,-0.058963109703238765,-0.014064149931073189,0.10229401388574033,0.9685303727872957,0.19270912797986103,right,0.0017749667167663574,-0.45169189460428444,-0.6804658971816301,-8.7968615475595,-0.21910785558823387,-0.01720428466796875,0.0008134022355079651,4.280487992705405,0.0049655139446258545
1745972121528127700,11.331127685546875,-0.07765773542755279,0.007402694784104824,-0.05925502428466434,-0.010225885547697544,0.10251060691964868,0.9684099147665471,0.19303958398078674,right,0.002271592617034912,-0.45248710444534807,-0.6842316063906997,-8.793152756169437,-0.2194603488808066,-0.018726464360952377,0.0008357539772987366,4.287502839903533,0.0017583668231964111
1745972121568127700,11.371127685546876,-0.0778891240315921,0.0014375890605151653,-0.05942498305970361,-0.0031332941725850105,0.1026304809640443,0.9682922050951598,0.1932198138790234,right,0.001360476016998291,-0.45338221943768275,-0.685967344142124,-8.789164563316106,-0.2198772843048437,-0.019688764587044716,0.0005889460444450378,4.295395638979971,0.002043783664703369
1745972121608127700,11.411127685546875,-0.07806837214504025,-0.005205852910876274,-0.05953788217152282,-0.0009185331873595715,0.102602893633979,0.9681897835958515,0.1931070201979024,right,0.0011197328567504883,-0.45428729428782955,-0.6872392637740821,-8.785161757415533,-0.2203103646241006,-0.023679077625274658,0.0013690516352653503,4.303373193730414,0.002860516309738159
1745972121648127700,11.451127685546876,-0.07826303560485016,-0.013540338724851608,-0.05962209163214517,0.0008952942444011569,0.10238089535076049,0.9680831788509541,0.19258532202027617,right,-0.0001806020736694336,-0.4554057756844461,-0.6885726312696934,-8.780223716491461,-0.22085831733971603,-0.025620849803090096,0.00031226128339767456,4.31322647922486,0.0020117759704589844
1745972121688127700,11.491127685546875,-0.07866644984569583,-0.018329031765460968,-0.05976194530840609,0.001986296148970723,0.10199814487959709,0.9679978178585559,0.19168473268682823,right,0.0013450980186462402,-0.45645040500925643,-0.6917601752646267,-8.77544875717461,-0.22137109732207816,-0.021286768838763237,0.000597245991230011,4.322424223420024,0.00033912062644958496
1745972121728127700,11.531127685546876,-0.07894118562161166,-0.013930211775004864,-0.059837846497132,0.005202207248657942,0.10162975985038128,0.9679346679946199,0.1908460730843851,right,0.0012723207473754883,-0.4573034446711461,-0.6938800900280475,-8.771579222264885,-0.2217957693589823,-0.01570064201951027,0.0011034756898880005,4.329931822571158,-0.0003317594528198242
1745972121768127700,11.571127685546875,-0.07901647891327704,-0.008259894326329231,-0.059830782929669486,0.004840778652578592,0.1013291262258119,0.967886852163518,0.19019577328557985,right,0.0013156533241271973,-0.45798904315622047,-0.6943060603551566,-8.768566011923552,-0.22214377886942654,-0.011808869428932667,0.0017822310328483582,4.335963211689889,-0.003566443920135498
1745972121808127700,11.611127685546874,-0.07904499850609759,-0.0014957156963646412,-0.0598449419526369,-0.002324235625565052,0.10124647368222355,0.9678375802970599,0.19000970951987234,right,0.000017821788787841797,-0.45849350214176005,-0.6943832903098315,-8.76636470248699,-0.2223924409490271,-0.010228278115391731,0.0023482516407966614,4.3404000250935555,-0.0015693902969360352
1745972121963823400,11.7668232421875,-0.07968485673552964,-0.014076292514801025,-0.060217571955417895,-0.01175002008676529,0.10128553585907857,0.9676190128184968,0.18991213469717655,right,0.0007444637594744563,-0.46026771714735365,-0.6993783221181482,-8.758228157782554,-0.22322300195722755,-0.004730381537228823,0.002993171103298664,4.355995361371338,0.003909249324351549
1745972122003823400,11.8068232421875,-0.08036363109768813,-0.01800926961004734,-0.060487883476497174,-0.0043816459365189075,0.10097437227998053,0.9675483628679573,0.18909818222386385,right,0.003179311752319336,-0.46105999317784296,-0.7050457002300768,-8.754308938512205,-0.2235972026780685,-0.008904724381864071,0.002330407500267029,4.3629549712508915,-0.0006932914257049561
1745972122043823400,11.8468232421875,-0.0808121750175403,-0.014892841689288616,-0.06065382859317482,-0.003845642786473036,0.10065005973766558,0.9674696235022731,0.18830756561875647,right,0.0011649131774902344,-0.4619677465183149,-0.7086523464199155,-8.750040175151824,-0.22403846955372708,-0.024772465229034424,0.001457609236240387,4.370925511738657,0.00011903047561645508
1745972122083823400,11.8868232421875,-0.08134673947987409,-0.010970037430524826,-0.06088208114781539,-0.0034311136696487665,0.10035807941604549,0.9673385536369546,0.1875557551353006,right,0.0009198188781738281,-0.46328545688989337,-0.7128611232213675,-8.74391204766035,-0.22467295880064778,-0.034429505467414856,0.0015460997819900513,4.382489692804217,-0.002227574586868286
1745972122123823400,11.9268232421875,-0.08220285573583722,-0.018970903009176254,-0.061232208021252434,-0.012057277373969555,0.10007136694714787,0.967277371511612,0.18675179313811946,right,-0.0004812479019165039,-0.46393405963837364,-0.7201130671110004,-8.740463953033089,-0.22496887536604934,-0.023020470514893532,0.0016443133354187012,4.388178844356537,-0.0049318671226501465
1745972122163823400,11.9668232421875,-0.08305981816287998,-0.026971768587827682,-0.06158231281339938,-0.020683441311120987,0.09978462939997759,0.9672158924200589,0.1859469598822757,right,-0.0018831491470336914,-0.46458207877588936,-0.7273669837620109,-8.737007675099372,-0.22526474295188673,-0.011611434631049633,0.0017426908016204834,4.3938609816461796,-0.007635444402694702
1745972122203823400,12.0068232421875,-0.08475713606833755,-0.051989052444696426,-0.06218805983709844,-0.03195573389530182,0.09929664092226098,0.9674075294813869,0.18457376160632855,right,0.0073441267013549805,-0.4630693515608185,-0.74275722592175,-8.742373586046694,-0.22448976643757432,0.08743207901716232,0.004509948194026947,4.380593503794074,-0.01836150884628296
1745972122243823400,12.0468232421875,-0.08708466021145467,-0.08853450417518616,-0.0628155636981385,-0.033448055386543274,0.09836711035115758,0.9681453036309707,0.1822459405435495,right,0.012100517749786377,-0.45703890321198126,-0.7653869908809662,-8.76677912850678,-0.2215240283673242,0.17744451761245728,0.004304021596908569,4.3276039641454815,-0.022020310163497925
1745972122283823600,12.08682373046875,-0.09106362994557102,-0.06140247732400894,-0.06414926255996835,-0.08733122050762177,0.09733715776366157,0.9689738661515997,0.1793860348834506,right,0.015164315700531006,-0.4498770743564976,-0.8030615455631166,-8.794304264292121,-0.21794531501800443,0.13793280720710754,0.003135956823825836,4.264468585796654,-0.03449505567550659
1745972122323823400,12.1268232421875,-0.09583872367000912,-0.012175057083368301,-0.06622641196116003,-0.10609510540962219,0.09713258097968812,0.9691245576476901,0.17794806728925572,right,0.017834782600402832,-0.44778038162707207,-0.8458996204882859,-8.799250488522649,-0.21674217590824313,-0.034337133169174194,0.006675459444522858,4.245943333546817,-0.02713736891746521
1745972122363823400,12.1668232421875,-0.10004753817627625,0.017588134855031967,-0.06840909557584751,-0.0722535103559494,0.09747709355105112,0.9684473011117661,0.17757278399795645,right,0.00784444808959961,-0.45267407784002955,-0.8808404393576085,-8.774832086580991,-0.2189252846424961,-0.23338767886161804,0.00668884813785553,4.289151776154339,0.002845853567123413
1745972122403823400,12.2068232421875,-0.10267243208641272,0.005364684388041496,-0.0700441449667914,-0.033748749643564224,0.09744410455215023,0.9669131418525466,0.176513456056148,right,0.003132760524749756,-0.4656314403345283,-0.8980985942810773,-8.716471667549014,-0.2251165643455603,-0.21960201859474182,0.004591107368469238,4.403058725841343,0.012888610363006592
1745972122443823400,12.2468232421875,-0.10533020740774182,-0.006858767010271549,-0.07167615224944265,0.004756014794111252,0.09740688453651448,0.965337097267375,0.17540878332315749,right,-0.0017330050468444824,-0.47858630414655645,-0.9151876031827181,-8.656599090388417,-0.23129809957861658,-0.2058163732290268,0.002476140856742859,4.5162046280279755,0.02300897240638733
1745972122483823400,12.2868232421875,-0.10663099203453585,-0.02345060557126999,-0.07241751967791374,0.00014847610145807266,0.09699410950972406,0.9644216217899876,0.17399472829237914,right,-0.016765713691711426,-0.4863280725842736,-0.9226983441390096,-8.620377437928319,-0.23502931943603264,-0.09013552963733673,-0.000868871808052063,4.583459424394369,0.03800171613693237
1745972122523823400,12.3268232421875,-0.10788413220290416,-0.014233116991817951,-0.07292967610474411,-0.01118527352809906,0.09676380750008558,0.9644144518930275,0.17321187847242256,right,-0.007957696914672852,-0.48632443818391113,-0.9335019891608506,-8.619231190502642,-0.23499530742389166,-0.018424488604068756,-0.0012633949518203735,4.583427860212326,0.02567988634109497
1745972122563823400,12.3668232421875,-0.10913730792272718,-0.005015626549720764,-0.0734418183561421,-0.022519022226333618,0.09653344878875346,0.9644070355538434,0.17242898634467227,right,0.0008491873741149902,-0.4863199932824789,-0.9443049035303294,-8.618075006204844,-0.23496123380118925,0.053286559879779816,-0.0016580075025558472,4.583389281767606,0.01335880160331726
1745972122603823400,12.4068232421875,-0.10991303619990082,0.006691267713904381,-0.07385395858567849,-0.013499977998435497,0.09685509706566796,0.9644247594438445,0.172926422296777,right,0.008634388446807861,-0.4857430185924137,-0.9512797840442508,-8.619967103561759,-0.23462654372241273,0.018886234611272812,-0.0013089925050735474,4.578386358913779,0.004087716341018677
1745972122643823400,12.4468232421875,-0.11068887335415771,0.018398161977529526,-0.07426606728364162,-0.004480931907892227,0.09717666974032445,0.9644421547442144,0.17342413858471994,right,0.01641857624053955,-0.4851664021630021,-0.9582586831461638,-8.621848679524659,-0.23429176359036552,-0.015514086931943893,-0.0009595975279808044,4.573384897364676,-0.005183517932891846
1745972122683823400,12.4868232421875,-0.10963074858824151,0.020969346165657043,-0.07392115646571881,0.015334228053689003,0.09741569595602381,0.9641511547888608,0.1740958384468149,right,0.011970818042755127,-0.48760347013453553,-0.9479128648944198,-8.611753401967883,-0.2354961862575208,-0.0395851656794548,-0.0009606853127479553,4.594512733328342,-0.00083199143409729
1745972122723823400,12.5268232421875,-0.10856940991373643,0.02354053035378456,-0.07357612742734403,0.03514938801527023,0.09765455897923402,0.9638585057076396,0.17477133608811074,right,0.007517218589782715,-0.4900399763578772,-0.9375565252486616,-8.601600256744026,-0.23670023608059781,-0.06365624070167542,-0.0009628012776374817,4.615608420588075,0.003522813320159912
1745972122763823400,12.5668232421875,-0.10690355752195768,0.016758371144533157,-0.072940902319039,0.03736679255962372,0.0978003098478776,0.963569807773898,0.17540141232463377,right,-0.0016535520553588867,-0.4926281688585681,-0.9219485486850142,-8.59124369790256,-0.23800864788349096,-0.04865000396966934,-0.00017575174570083618,4.6379874256566165,0.01412913203239441
1745972122921746400,12.724746337890625,-0.10333573017484894,-0.016651637852191925,-0.07116520803754704,-0.009095407091081142,0.09728803499674471,0.9638382190099483,0.1752516513082112,right,0.0008239421877078712,-0.4915531635486967,-0.8918044625729322,-8.59943226505518,-0.23766886997647965,0.02940262109041214,0.0024679522030055523,4.628696157959103,-0.010096988640725613
1745972122961746700,12.76474658203125,-0.10368024929023369,0.0024060700088739395,-0.07125386946071223,-0.006914025638252497,0.09719166529770816,0.9640026346547959,0.17500683014079946,right,0.0005278587341308594,-0.49021443119636815,-0.8954076016314327,-8.605280406561493,-0.23701414091070624,0.014149853959679604,0.0009479224681854248,4.6171179483681914,-0.013522326946258545
1745972123121306000,12.92430615234375,-0.10303622616108432,0.04181840643286705,-0.07163432039541182,-0.012893293984234333,0.099741125929685,0.9635948825774996,0.18041647237783387,right,-0.005816071294248104,-0.491550341547363,-0.8892301551055163,-8.599712251040339,-0.23749786972554382,0.0051637934520840645,-0.004737644921988249,4.6286716080397365,0.004978989250957966
1745972123161218000,12.964218017578125,-0.10331286747078616,0.02753671258687973,-0.07196661051081485,-0.030693283304572105,0.10062411144272389,0.9635337508501622,0.18218988508413772,right,0.0003731250762939453,-0.4912450036216793,-0.8917549243427813,-8.600871357947588,-0.23727289151678094,0.012846730649471283,0.0012780685210600495,4.626031614924967,0.0026096717920154333
1745972123201217800,13.0042177734375,-0.10331286747078616,0.013074173592031002,-0.07196661051081485,-0.01727481000125408,0.10062411144272389,0.9635337508501622,0.18218988508413772,right,0.0015489459037780762,-0.4912450036216793,-0.8917549243427813,-8.600871357947588,-0.23727289151678094,-0.003848845139145851,0.0014275535941123962,4.626031614924967,0.0024982690811157227
1745972123241217800,13.0442177734375,-0.10331286747078616,-0.0013883654028177261,-0.07196661051081485,-0.0038563357666134834,0.10062411144272389,0.9635337508501622,0.18218988508413772,right,0.0027248263359069824,-0.4912450036216793,-0.8917549243427813,-8.600871357947588,-0.23727289151678094,-0.020544419065117836,0.0015770494937896729,4.626031614924967,0.0023868680000305176
1745972123400689400,13.203689453125,-0.10412437765917125,0.0140298493206501,-0.07241073345890096,-0.022312423214316368,0.10064356337153697,0.9632555152284534,0.18196888741753728,right,-0.0025093378499150276,-0.4933513600518641,-0.8977195318356156,-8.590434719607234,-0.23825708705997917,0.016093263402581215,0.0017738559981808066,4.644235087874532,0.0027789913583546877
1745972123440601000,13.24360107421875,-0.10422425368784559,0.013732876628637314,-0.07252164105292182,-0.011221129447221756,0.10099910669507253,0.9632948059358651,0.1827012291362446,right,-0.002042444422841072,-0.4927058120421992,-0.8988892332021147,-8.593324595829843,-0.23791384763997742,0.014425939880311489,-0.0009695657063275576,4.638658164525032,0.001863177283667028
1745972123600251000,13.4032509765625,-0.1057176300802354,0.010461621917784214,-0.07358196193592773,-0.013146643526852131,0.10264145563682395,0.963157045567808,0.1857600674149101,right,0.0021043072920292616,-0.4921185060193511,-0.9120086078204214,-8.594680102092028,-0.2374425546105375,-0.00008813547901809216,0.004076581913977861,4.633583053217828,0.0013570369919762015
1745972123640251000,13.4432509765625,-0.1065302503060069,0.0028456677682697773,-0.07395740835938631,-0.01693071238696575,0.10263085212144837,0.9631017490934712,0.18552870279069236,right,0.0013492703437805176,-0.49242017080820505,-0.9188438606679439,-8.592546597194671,-0.23755500433000626,-0.007088824175298214,0.0031663253903388977,4.63619002084583,0.0005678236484527588
1745972123680251000,13.4832509765625,-0.1073430923050608,-0.004770286381244659,-0.07433284533255377,-0.020714780315756798,0.1026201919043785,0.9630462061769098,0.1852969087295638,right,0.000593721866607666,-0.4927216036029514,-0.9256781636673956,-8.590406662556529,-0.2376674129757657,-0.014089511707425117,0.0022559762001037598,4.638794650386274,-0.0002212226390838623
1745972123720251000,13.5232509765625,-0.10846948903200698,-0.026151971891522408,-0.07480155219621012,-0.006886442191898823,0.10235673383537658,0.9629597795530328,0.18444976752930967,right,0.005040287971496582,-0.49343176161846053,-0.934996903893724,-8.586081785094738,-0.23798407347149392,-0.03629555553197861,0.0043174996972084045,4.6449294998794795,0.0005830228328704834
1745972123760251000,13.5632509765625,-0.10910903225947385,-0.038203220814466476,-0.0749565746547673,0.011988860554993153,0.10163284909996852,0.9628582803984095,0.18274647754316117,right,0.002848386764526367,-0.49475808790907094,-0.9398162138089537,-8.579350431013108,-0.23865540296888946,-0.04216211289167404,0.0025282129645347595,4.656380575959385,-0.0006819069385528564
1745972123919561200,13.722561279296874,-0.1112043807707833,0.008668577298521996,-0.07556860177734641,-0.015114222653210163,0.09971209144645046,0.9624679451505789,0.17809308887499442,right,-0.0031901528127491474,-0.4991342455337088,-0.9555203442234546,-8.557028709089755,-0.24083679029445046,-0.00599366519600153,0.0014506673905998468,4.694105034197866,0.003400050336495042
1745972124079210800,13.882210693359376,-0.11157212296030697,-0.00797591544687748,-0.0759327576729458,-0.018969254568219185,0.10061848703089038,0.9624720945033691,0.1799134077934177,right,-0.002201648196205497,-0.4982611281481269,-0.9591230448905378,-8.560746268308161,-0.24032817948747798,0.02166081964969635,0.0008189759682863951,4.686585452347994,-0.00045173944090493023
1745972124238860500,14.041860595703126,-0.11307689171052114,0.01023560669273138,-0.07672108655997444,-0.010306372307240963,0.10096717244158636,0.9623125949026897,0.18023928926421573,right,0.001365202246233821,-0.4989458739366764,-0.9716415310062467,-8.556102826416492,-0.24057025225441075,-0.017760608345270157,-0.0002276906743645668,4.692482985953986,0.0013780698645859957
1745972124278772700,14.081772705078125,-0.11317446422858166,0.001627268036827445,-0.07684652618646105,-0.011303736828267574,0.10115942172572949,0.9621633989813834,0.18058008651727014,right,0.0005269699613563716,-0.49996898086853053,-0.9719337188858538,-8.551233759075403,-0.24104576037420242,-0.025149887427687645,0.0008006285643205047,4.701290561787784,0.0009943062905222178
1745972124438422500,14.241422607421875,-0.11452408057711039,0.01615559309720993,-0.07755252875644415,-0.005234258249402046,0.10138694899703071,0.9619498637950151,0.1806722891446483,right,0.003931044135242701,-0.5012168103389922,-0.9828025380983948,-8.54407921114564,-0.24157569114946237,0.014925438910722733,0.0024165716022253036,4.7120261830747125,-0.002110989298671484
1745972124478422500,14.281422607421876,-0.11430899872251424,0.00669611431658268,-0.07747527595402191,-0.0013668127357959747,0.10150271502502002,0.9619791479366381,0.18097684646645823,right,0.002148270606994629,-0.500928130269033,-0.981119991838932,-8.545641638156772,-0.24143555617334672,0.006799115799367428,0.00184611976146698,4.7095431340873235,0.0002542436122894287
1745972124518422500,14.321422607421875,-0.11430899872251424,-0.00008677365258336067,-0.07747527595402191,-0.004137495998293161,0.10150271502502002,0.9619791479366381,0.18097684646645823,right,0.0006172657012939453,-0.500928130269033,-0.981119991838932,-8.545641638156772,-0.24143555617334672,0.003959648311138153,0.0014090090990066528,4.7095431340873235,-0.00013116002082824707
1745972124558422500,14.361422607421876,-0.11430899872251424,-0.0007341321324929595,-0.07747527595402191,-0.006699086632579565,0.10150271502502002,0.9619791479366381,0.18097684646645823,right,0.0003986358642578125,-0.500928130269033,-0.981119991838932,-8.545641638156772,-0.24143555617334672,0.00340237352065742,0.002000376582145691,4.7095431340873235,0.000003159046173095703
1745972124598422500,14.401422607421875,-0.11430899872251424,-0.003012432251125574,-0.07747527595402191,-0.007012674119323492,0.10150271502502002,0.9619791479366381,0.18097684646645823,right,0.0002581477165222168,-0.500928130269033,-0.981119991838932,-8.545641638156772,-0.24143555617334672,-0.0027723333332687616,0.0011010468006134033,4.7095431340873235,-0.0012732446193695068
1745972124638422500,14.441422607421876,-0.11490732187862363,0.0017146533355116844,-0.07775052826575925,-0.006905692163854837,0.10149992920149144,0.9619397844581539,0.18081422736537137,right,0.0018405914306640625,-0.5011222281001195,-0.9861280292592942,-8.544145262119173,-0.24150510540967704,-0.0028372558299452066,0.0015801414847373962,4.711212820865214,-0.002854675054550171
1745972124678422500,14.481422607421875,-0.11490732187862363,0.011159147135913372,-0.07775052826575925,0.00038760295137763023,0.10149992920149144,0.9619397844581539,0.18081422736537137,right,0.0013123154640197754,-0.5011222281001195,-0.9861280292592942,-8.544145262119173,-0.24150510540967704,-0.0009266264969483018,0.0008623898029327393,4.711212820865214,-0.0016452968120574951
1745972124718422500,14.521422607421876,-0.11496165057177334,0.007311045657843351,-0.07784467186728534,-0.006554699037224054,0.1017611920179467,0.9618952421133518,0.18133950321701514,right,-0.0013805031776428223,-0.5012472311535169,-0.9865246273614465,-8.543506379693746,-0.24154219721155798,-0.005268023815006018,0.0014573633670806885,4.712287756620348,0.0013666749000549316
1745972124758422500,14.561422607421875,-0.11539543327044759,-0.0032775974832475185,-0.07806898166303797,-0.01284943800419569,0.10185646969242201,0.9618550265944116,0.18142346561926592,right,-0.0003396272659301758,-0.501398354239977,-0.9901485900122672,-8.542370069140196,-0.24158972308113633,-0.000575607642531395,0.00088471919298172,4.7135874410420655,0.0003629922866821289
1745972124798422500,14.601422607421876,-0.11597014906256096,-0.005537921562790871,-0.07831212001602435,-0.004937754012644291,0.10181059003789833,0.9618612578251539,0.18118835088661753,right,0.0020865201950073242,-0.5012657376336622,-0.9951301778171211,-8.542420338022708,-0.24150569194335275,0.001738914754241705,0.001842886209487915,4.712447038835287,0.0002771615982055664
1745972124838422500,14.641422607421875,-0.11597014906256096,-0.0021643347572535276,-0.07831212001602435,-0.004282138776034117,0.10181059003789833,0.9618612578251539,0.18118835088661753,right,0.0009542703628540039,-0.5012657376336622,-0.9951301778171211,-8.542420338022708,-0.24150569194335275,-0.006872627418488264,0.0014709904789924622,4.712447038835287,0.0012239515781402588
1745972124878422500,14.681422607421876,-0.11597014906256096,-0.0016054040752351284,-0.07831212001602435,-0.005775077734142542,0.10181059003789833,0.9618612578251539,0.18118835088661753,right,0.0028186440467834473,-0.5012657376336622,-0.9951301778171211,-8.542420338022708,-0.24150569194335275,-0.0033163917250931263,0.0016749948263168335,4.712447038835287,0.0030911266803741455
