time,seconds_elapsed,roll,rotationRateZ,quaternionY,rotationRateY,quaternionZ,quaternionW,yaw,devicelocation,accelerationZ,pitch,gravityX,gravityZ,quaternionX,rotationRateX,accelerationX,gravityY,accelerationY
2025-04-30 01:23:57.303992600,0.19199267578125,-0.6293995509321857,-0.0065789259970188,-0.2913502858421029,-0.0236898809671401,2.076668631866733e-18,0.9349100652822288,0.1279324668763041,right,-0.2175691723823547,0.3885851021000155,-5.342393878135085,-7.336484459581971,0.2026287860119305,0.063306987285614,0.8213803768157959,-3.715537064929306,0.2471400201320648
2025-04-30 01:23:57.343992600,0.23199267578125,-0.2467730195806836,-0.0051713162101805,-0.1215822462420971,-0.002771383151412,-0.0198712237045524,0.9798691022696724,-0.0007811207595968,right,-0.0254493355751037,0.3180355752857431,-2.275396709294617,-9.032674628993869,0.1570971452257359,0.071669191122055,0.5042212009429932,-3.0665514708995816,0.1791628897190094
2025-04-30 01:23:57.383992300,0.271992431640625,0.1146945846485482,-0.0037637059576809,0.0522357520926603,0.0181471146643161,-0.0390805199824847,0.9921883031944388,-0.0907449165697737,right,0.0445603132247924,0.2084267633443501,1.0980160403393209,-9.53137409222722,0.1063325219851142,0.0800313949584961,0.1558162868022918,-2.0292013500556347,0.071583554148674
2025-04-30 01:23:57.423992300,0.311992431640625,0.2033591458523409,0.0130586996674537,0.0961775290268002,0.1067824512720108,-0.0435163234115281,0.9898649489849132,-0.1063512817618654,right,0.0213963985443115,0.1806727465941686,1.948317402917892,-9.448238128378987,0.0949937642832277,0.0403887219727039,0.0745405405759811,-1.762170561928302,0.0075744241476058
2025-04-30 01:23:57.463992600,0.35199267578125,0.2488923623038798,0.0244635231792926,0.1189625641533985,0.0443615615367889,-0.0451532610553363,0.9879462901571175,-0.1119277519645108,right,-0.0085928440093994,0.164177992094594,2.383194382321089,-9.376660500377415,0.0881548567309374,-0.0113920345902442,0.0436988472938537,-1.6028127975344657,0.0007127523422241
2025-04-30 01:23:57.503992600,0.39199267578125,0.271409463496044,-0.0629979372024536,0.1300340503478694,-0.0615536794066429,-0.0461709972152958,0.9865872609412312,-0.1155264744808814,right,0.0001193284988403,0.1607599395580279,2.595161162613332,-9.325848597028852,0.0872076926031378,0.0027364799752831,0.0201250314712524,-1.5697345576666295,0.0172232687473297
2025-04-30 01:23:57.543992600,0.43199267578125,0.2755644006932154,-0.0795967653393745,0.1319335434300583,-0.0962188392877578,-0.0475459782594049,0.9862297872005188,-0.1187238716136832,right,0.0053786635398864,0.1610500773091178,2.6337629882082343,-9.31454686629176,0.0876573616894461,0.0213081426918506,0.0113557875156402,-1.572543039216101,0.0104900002479553
2025-04-30 01:23:57.583992600,0.47199267578125,0.278515296860122,-0.0629796758294105,0.1333059824206114,-0.0700318366289138,-0.049800528757315,0.9860356149249636,-0.1231137261730242,right,-0.0022275447845458,0.157975338509138,2.6625544906675813,-9.31133901016116,0.0865062552577115,0.0210816618055105,0.0020872056484222,-1.5427730471134184,-0.0117256194353103
2025-04-30 01:23:57.623992300,0.511992431640625,0.2786866789248375,0.0219510868191719,0.1333434693020123,-0.0534774512052536,-0.050661027579229,0.9860061853183232,-0.1247745895512906,right,0.0096420049667358,0.1572888557971926,2.664441035066545,-9.31189898213148,0.086283304168859,0.0243772119283676,0.0151651203632354,-1.5361244028791785,-0.0127007663249969
2025-04-30 01:23:57.663992300,0.551992431640625,0.2783896096873028,0.0306471139192581,0.1331712919061535,-0.0363122932612896,-0.0503977129063978,0.9859950497689428,-0.1243850202929238,right,0.0101204514503479,0.1584654293010465,2.6611761880517006,-9.3109456269294,0.0868290904049959,0.016527883708477,0.0038428902626037,-1.5475190725967287,-0.0106896758079528
2025-04-30 01:23:57.703992600,0.59199267578125,0.277552512335448,0.0696766376495361,0.1327434855074214,-0.0577383711934089,-0.0491800702179304,0.9859978807019252,-0.1222736765131163,right,0.004016637802124,0.1614557185889153,2.652101193453372,-9.308678266519308,0.0881400628165593,-0.0019407626241445,0.0106046497821807,-1.5764694188795982,-0.0069171637296676
2025-04-30 01:23:57.743992600,0.63199267578125,0.2773889878428991,0.0111415795981884,0.1327053442330087,-0.0111324898898601,-0.0482639017227804,0.9860166890016008,-0.1205393615981177,right,-0.0048472881317138,0.1624155999137133,2.6501632111281155,-9.307651846081018,0.0884935533779543,-0.0334916934370994,-0.0140107572078704,-1.585759517533332,-0.0037593692541122
2025-04-30 01:23:57.783992600,0.67199267578125,0.2771404227968122,0.044057086110115,0.132640687522751,0.0332702472805976,-0.0473903785536241,0.9860555898179184,-0.1188201766289356,right,0.0171806812286376,0.1629347974696088,2.647624048039317,-9.30751740604639,0.0886291883913862,-0.0499297305941581,-0.0071485042572021,-1.5907839215666055,-0.0064344704151153
2025-04-30 01:23:57.823992600,0.71199267578125,0.2786918228882929,0.0924799144268035,0.1335848298966828,0.0250150188803672,-0.0459164151811116,0.9860703035934156,-0.1157803886604285,right,-0.011468768119812,0.1616271828807004,2.6626304785132406,-9.30539033088982,0.0878192288707381,-0.0760075151920318,-0.0126716792583465,-1.578129022654891,-0.0164611190557479
2025-04-30 01:23:57.863992600,0.75199267578125,0.2780585427725291,0.1145955622196197,0.1335533184203723,0.033159390091896,-0.042852509812934,0.9862579652203765,-0.1094876458020081,right,0.0012469291687011,0.1614699145352539,2.656805133360624,-9.30731340790689,0.0873074639491699,-0.0575397908687591,-0.0007186233997344,-1.576606927654147,0.0130905658006668
2025-04-30 01:23:57.903992300,0.791992431640625,0.2771432610297981,-0.0225861370563507,0.1332575413324144,-0.0292041674256324,-0.0410671231106274,0.9863907539306918,-0.1058081395207246,right,-0.0280369520187377,0.1616206867902789,2.6482202603667973,-9.30951237925589,0.0871170932625651,-0.0256945341825485,-0.0186794698238372,-1.5780661865517496,0.0338867902755737
2025-04-30 01:23:57.943992600,0.83199267578125,0.2744176734967445,-0.0635269582271575,0.1318014041547561,-0.0351325720548629,-0.0432201510999519,0.9865529114225808,-0.1096824005923664,right,-0.0142925381660461,0.1598653626301811,2.6235829549774525,-9.319347544571755,0.0864516432501031,-0.011698349379003,-0.0190791636705398,-1.561074281349033,0.0118759721517562
2025-04-30 01:23:57.983992600,0.87199267578125,0.2716859932046856,-0.1044677793979644,0.1303443176039767,-0.0410609766840934,-0.0453728647258615,0.986707947668194,-0.1135604031951953,right,-0.0005576610565185,0.158120492798223,2.598842773735523,-9.329089770907164,0.0857855741910525,0.0022978335618972,-0.0194682478904724,-1.5441786761276424,-0.0101250261068344
2025-04-30 01:23:58.023992600,0.91199267578125,0.2711166409660301,-0.0406054928898811,0.1300275697831265,0.0132534690201282,-0.0463458981241338,0.9867457799289978,-0.1153180621247968,right,0.0001304149627685,0.15694848287216,2.5940137461438773,-9.33230522582233,0.0853094185904616,0.0065066600218415,0.0005188584327697,-1.5328275532908735,-0.0095012485980987
2025-04-30 01:23:58.063992600,0.95199267578125,0.271524950787455,-0.0185587257146835,0.1302217031115609,-0.0040246080607175,-0.04676880052438,0.9867277610307692,-0.1161019153596031,right,-0.0158145427703857,0.1561783363424702,2.598139886163175,-9.332379460102318,0.0849904269831169,0.002951669273898,0.0047978162765502,-1.5253674465432765,0.0002884417772293
2025-04-30 01:23:58.103992600,0.99199267578125,0.2711105442027343,-0.012175453826785,0.1299814228379129,-0.0248194970190525,-0.0469312386559205,0.9867257170079914,-0.1164776582925633,right,-0.0157908797264099,0.1567617903712849,2.594033327627182,-9.332596317723391,0.0852926519763948,-0.0046631675213575,0.0107906758785247,-1.5310191886946558,0.012585625052452
2025-04-30 01:23:58.143992300,1.031992431640625,0.2711105442027343,-0.005792181007564,0.1299814228379129,-0.0456143915653228,-0.0469312386559205,0.9867257170079914,-0.1164776582925633,right,-0.0157893896102905,0.1567617903712849,2.594033327627182,-9.332596317723391,0.0852926519763948,-0.0122780036181211,0.0163647532463073,-1.5310191886946558,0.0243064910173416
2025-04-30 01:23:58.183992300,1.071992431640625,0.269086585246705,0.1042843386530876,0.1291231560738407,-0.0374738574028015,-0.0451707439518917,0.9869244059107664,-0.1128029009021196,right,0.0050599575042724,0.1572473674930841,2.574941381405294,-9.337109411233664,0.0852473145832159,0.0041050435975193,0.0158124268054962,-1.5357225440800188,0.0175547003746032
2025-04-30 01:23:58.223992600,1.11199267578125,0.2687336090262166,0.093726098537445,0.129019590716513,-0.034640796482563,-0.0439587837960576,0.9869674280786788,-0.1104443291487851,right,0.0111051797866821,0.1581638977669874,2.571270583938062,-9.336656991291044,0.0855389816546822,-0.0033505265600979,0.0066927075386047,-1.5445990934967997,-0.0110993683338165
2025-04-30 01:23:58.263992600,1.15199267578125,0.2698033072013205,0.069387212395668,0.129673669654127,0.0314657315611839,-0.0429456614560973,0.986983631209016,-0.1083277786836549,right,0.0123886466026306,0.1570477798722249,2.581714528802037,-9.335556921094655,0.0848751904541553,-0.0330126211047172,-0.0076221823692321,-1.533789384060353,-0.0112513154745101
2025-04-30 01:23:58.303992600,1.19199267578125,0.27118565714912,0.0659371390938758,0.1305364454454535,0.0524645410478115,-0.0413053441755966,0.9870070979927068,-0.1049533483555454,right,0.0153326392173767,0.1558429355574102,2.5951103092089296,-9.333753086543082,0.0840908744967755,-0.0564123466610908,-0.0002460479736328,-1.5221182354889808,-0.0017894059419631
2025-04-30 01:23:58.343992600,1.23199267578125,0.2733991219611124,-0.0007208958268165,0.131779911625396,0.0181997008621692,-0.0403016800622893,0.9869752598944248,-0.1028233172774213,right,-0.0203043222427368,0.1538307774712765,2.6165853511750696,-9.330915817290544,0.0830044576701567,-0.0679233968257904,-0.0094039738178253,-1.5026216539889574,-0.0005703270435333
2025-04-30 01:23:58.383992300,1.271992431640625,0.2734120742476394,-0.0368368774652481,0.1318329235103395,0.0001159310340881,-0.0404427801237835,0.9870283345581646,-0.1028832930470314,right,-0.0117589235305786,0.152225555930091,2.6173542897209523,-9.333192530050871,0.0822173488322738,-0.0569678992033004,-0.0041981041431427,-1.4870638732425867,0.0069964081048965
2025-04-30 01:23:58.423992300,1.311992431640625,0.2736673234781031,-0.0548400729894638,0.1319652866070262,-0.0018291715532541,-0.0415265106247646,0.987063231886999,-0.1047251333801742,right,-0.0210659503936767,0.1495737690109508,2.6207930319979784,-9.336288157978654,0.081036748519334,-0.042656235396862,-0.0089665949344635,-1.461354262446612,-4.97251749038e-05
2025-04-30 01:23:58.463992600,1.35199267578125,0.2739037526600575,0.0150346308946609,0.1321166457038774,0.0302271302789449,-0.0418618079495928,0.9870950365658236,-0.1051812126063643,right,0.0025156140327453,0.1478603133332489,2.623673555870354,-9.3380651045233,0.0802270344518844,-0.0192455444484949,0.0062279403209686,-1.4447364512532948,-0.0045466870069503
2025-04-30 01:23:58.503992600,1.39199267578125,0.2749436052165548,0.047820646315813,0.1326867492873432,0.0396305471658706,-0.041124228985996,0.987055745731432,-0.1037698239148497,right,-0.0094378590583801,0.1478505210058354,2.633386263850331,-9.33534532417059,0.0801503498830853,0.0003233272582292,0.0094457268714904,-1.4446414664462208,-0.0007414668798446
2025-04-30 01:23:58.543992600,1.43199267578125,0.2746831908866161,0.0304068699479103,0.1325983540621963,0.0042272433638572,-0.0403086060476956,0.9870801329601008,-0.1022022389930393,right,-0.0053925514221191,0.1485983517207184,2.6306615150615573,-9.33498818129599,0.0804097768688255,-0.009518340229988,0.0051278173923492,-1.4518947985753416,-0.0017743706703186
2025-04-30 01:23:58.583992600,1.47199267578125,0.2744216155659281,0.0129930935800075,0.1325098762133401,-0.0311760567128658,-0.0394929630356196,0.9871038606233308,-0.100634311122229,right,-0.0013474822044372,0.1493457979828279,2.6279247835740445,-9.334628700333834,0.0806691505053356,-0.0193600095808506,0.0008111298084259,-1.459143454529345,-0.0028077363967895
2025-04-30 01:23:58.623992300,1.511992431640625,0.2735253877111304,0.0106437308713793,0.1321055696538539,-0.0254098754376173,-0.0393294768442984,0.9871933211976296,-0.1001433105794902,right,0.0083980560302734,0.1487332451826495,2.6197987602636217,-9.337839479073882,0.080316977872235,-0.0213019009679555,0.0024497210979461,-1.45320295856446,-0.0098267495632171
2025-04-30 01:23:58.663992300,1.551992431640625,0.2729705949727142,0.0041874288581311,0.1318741680899948,-0.027233175933361,-0.0392067106597426,0.987266957820275,-0.0997271188611678,right,-0.0037324428558349,0.1478653640336288,2.614956580929458,-9.340501976281404,0.0798506577961017,-0.0283953994512558,-0.0052531361579895,-1.444785404961556,-0.0068663656711578
2025-04-30 01:23:58.703992600,1.59199267578125,0.2719499792760083,0.0108892200514674,0.1314163921766028,-0.0137633951380848,-0.0388729349353577,0.9873650779137356,-0.0989052150510849,right,0.0062265992164611,0.1474148170714157,2.605596924170852,-9.34379224999845,0.0795544460144495,-0.0335693880915641,-0.0009316504001617,-1.440415080922842,-0.002414271235466
2025-04-30 01:23:58.743992600,1.63199267578125,0.2721257978723516,0.0567900091409683,0.1316061881654283,0.0231396220624446,-0.038135739957726,0.9874276913353424,-0.0972465070761138,right,0.001764953136444,0.1461356361773917,2.6077327671557664,-9.345100994509458,0.078817849196947,-0.0617709420621395,-0.0067530274391174,-1.4280055350743233,-0.0180298238992691
2025-04-30 01:23:58.783992600,1.67199267578125,0.2741564055620828,0.0983945131301879,0.1328355639734862,0.0942328572273254,-0.0358315003534347,0.9874292229610157,-0.0925310241565405,right,0.0070950984954833,0.1446487351062404,2.627275379754603,-9.341820073142648,0.0778102539697288,-0.0674402713775634,-0.002513825893402,-1.4135779274016618,0.0014930665493011
2025-04-30 01:23:58.823992600,1.71199267578125,0.275993111680733,0.0591238029301166,0.1338783433342759,0.0541579164564609,-0.0343371211711278,0.9873831709452188,-0.0895440959497086,right,-0.0111407041549682,0.1439123783282921,2.644712252245843,-9.337978010761738,0.0772800948400154,-0.0452232211828231,-0.0035703182220458,-1.406431708908826,0.0112731903791427
2025-04-30 01:23:58.863992600,1.75199267578125,0.2766526551687127,0.0187027901411056,0.1342621400154582,0.0351494140923023,-0.0337864832645334,0.9873755725249836,-0.0884048826293227,right,-0.0034571886062622,0.1433822787687159,2.6510736039713025,-9.33694749867022,0.0769534875828427,-0.026521973311901,-0.0025123357772827,-1.4012867472358048,0.0055557340383529
2025-04-30 01:23:58.903992300,1.791992431640625,0.2767902509859888,0.0266740731894969,0.1343852996747585,-0.0050198584794998,-0.0334252125489734,0.9874081687440348,-0.0875615963373303,right,-0.0085627436637878,0.1425237187327497,2.652686299864948,-9.337736603221297,0.0764756731084805,-0.0197951272130012,0.0010136663913726,-1.3929530725240706,-0.0037114769220352
2025-04-30 01:23:58.943992600,1.83199267578125,0.2765032246479952,0.0042620934545993,0.1343049601251126,0.0019494486041367,-0.0330530410005152,0.9874749222645118,-0.0866433558336028,right,-0.0044780373573303,0.1415234811622332,2.650385037185252,-9.339833283239605,0.0759158024496459,-0.0077872034162282,-0.0030350089073181,-1.3832428487621249,0.0079245269298553
2025-04-30 01:23:58.983992600,1.87199267578125,0.2765032246479952,0.0118241691961884,0.1343049601251126,-0.0023813960142433,-0.0330530410005152,0.9874749222645118,-0.0866433558336028,right,0.0031325221061706,0.1415234811622332,2.650385037185252,-9.339833283239605,0.0759158024496459,0.0085120778530836,0.0043006539344787,-1.3832428487621249,0.0029370635747909
2025-04-30 01:23:59.023992600,1.91199267578125,0.276304477783646,0.0430745221674442,0.1342277784456189,0.0083665288984775,-0.0324846012957024,0.9874817616576872,-0.0855822625420133,right,-0.0047054290771484,0.1422660546573343,2.6482477328956127,-9.339369172859191,0.0762076402785142,0.0078799445182085,0.0024589896202087,-1.3904517572276294,-0.0048279464244842
2025-04-30 01:23:59.063992600,1.95199267578125,0.2761431213400729,0.0389933697879314,0.1341958776230795,0.0169537626206874,-0.0316150161232452,0.9874989544169598,-0.0838990447024824,right,0.0077249407768249,0.1429032092060485,2.6464985511407253,-9.33894188735783,0.0764064284416078,0.002131319604814,0.0065245032310485,-1.3966367294728754,0.0045004785060882
2025-04-30 01:23:59.103992600,1.99199267578125,0.2763988592385463,0.0615061223506927,0.1343722486711198,0.0063498942181468,-0.0307412620301503,0.9874900705107608,-0.0822265995403942,right,-0.0007218718528747,0.1434484032637742,2.6486785255283114,-9.337530851516126,0.0765670925668064,0.0011095745721831,0.0056640803813934,-1.4019285522706806,-0.0012843906879425
2025-04-30 01:23:59.143992300,2.031992431640625,0.276200411672846,0.0501996725797653,0.1343291783318402,-0.0123295793309807,-0.0297037622424708,0.9875052208618612,-0.0802323942919478,right,-0.0053627490997314,0.1443115191823144,2.646494459487497,-9.336888461959362,0.0768559499373345,0.0049896501004695,-0.0009080171585083,-1.410305335471779,-0.0036510974168777
2025-04-30 01:23:59.183992300,2.071992431640625,0.2760002091963435,0.0388932228088378,0.1342859548278363,-0.0310090519487857,-0.028666233144756,0.9875192311882532,-0.0782377774459508,right,-0.0100038051605224,0.1451742475684927,2.644292565529048,-9.336244318836927,0.0771447211763122,0.0088697262108325,-0.0074783563613891,-1.41867744249776,-0.0060183107852935
2025-04-30 01:23:59.223992600,2.11199267578125,0.2760127527031299,0.0186347961425781,0.1343442690904516,0.0108056031167507,-0.0277801864730518,0.9875232659328876,-0.0765263429816189,right,-0.0021586418151855,0.1457536324009469,2.644185305762291,-9.3354183894068,0.077315813854788,0.0001646261662244,-0.002280443906784,-1.424299227902293,0.0033742040395736
2025-04-30 01:23:59.263992600,2.15199267578125,0.2761179272893428,0.0038353791460394,0.1344134101693327,0.0039641656912863,-0.0276705548416465,0.9875300818637256,-0.0762692351772688,right,-0.0054136514663696,0.1454479316084048,2.6452859604805705,-9.335558674660325,0.0771491604384788,-0.0120888845995068,0.0005005598068237,-1.4213330715730783,-4.66555356979e-05
2025-04-30 01:23:59.303992600,2.19199267578125,0.2761179272893428,-0.0106134479865431,0.1344134101693327,0.0129615869373083,-0.0276705548416465,0.9875300818637256,-0.0762692351772688,right,0.0013037919998168,0.1454479316084048,2.6452859604805705,-9.335558674660325,0.0771491604384788,-0.0079745966941118,0.0033666789531707,-1.4213330715730783,0.0087363123893737
2025-04-30 01:23:59.343992600,2.23199267578125,0.2756343177352967,-0.0162191074341535,0.1341661232779975,-0.0333201512694358,-0.0280616014933277,0.987576651807466,-0.0769243959275355,right,-0.003182053565979,0.1447479343197033,2.6410408702567216,-9.337792132800818,0.0768410416226525,0.0051167048513889,0.0011642575263977,-1.4145404888235031,0.0021008998155593
2025-04-30 01:23:59.383992300,2.271992431640625,0.2749684229942519,-0.021590206772089,0.1338182611129011,-0.0242071226239204,-0.0284075882400603,0.9876190764106096,-0.077545104030406,right,-0.0047876238822937,0.1445485553335783,2.634898714239895,-9.33981983923614,0.0767748515504072,0.0017398945055902,-0.0046073794364929,-1.4126057213686405,0.0040502101182937
2025-04-30 01:23:59.423992300,2.311992431640625,0.274302406296018,-0.0269613079726696,0.1334703573694347,-0.0150940939784049,-0.0287535777425823,0.9876612597180616,-0.0781659447660521,right,-0.0063936710357666,0.1443495719655255,2.628753927874565,-9.341843454018235,0.0767086366470265,-0.0016369156073778,-0.0103787779808044,-1.4106746071755885,0.0059999227523803
2025-04-30 01:23:59.463992600,2.35199267578125,0.2736802012564875,-0.0286883041262626,0.1332005829374347,0.0390190184116363,-0.0294213950202105,0.9877857960388297,-0.0790569875641174,right,0.0225733518600463,0.1414103322944677,2.6240499879673123,-9.34742856067419,0.0753085352779441,-0.0698841363191604,-0.0068615972995758,-1.3821442398704589,-0.0088422149419784
2025-04-30 01:23:59.503992600,2.39199267578125,0.2750378269539268,-0.0590572878718376,0.1339038945366767,0.0194378681480884,-0.0301095261519495,0.9877742396006468,-0.0801326750725613,right,0.0042208433151245,0.1384258946039456,2.6378464581295846,-9.347785703548787,0.0739277244932035,-0.0371818616986274,-0.003796249628067,-1.3531630600579083,-0.0064941048622131
2025-04-30 01:23:59.543992600,2.43199267578125,0.2754811907886405,-0.0125810354948043,0.1341008819826608,0.0205406881868839,-0.0308092581562396,0.987757633442638,-0.0814338971826371,right,0.0086649060249328,0.1373733642411977,2.642376502774656,-9.347980933859944,0.0735022398154186,-0.0001975335180759,0.0073363482952117,-1.3429391876854002,-0.0078611224889755
2025-04-30 01:23:59.583992600,2.47199267578125,0.276406025149117,0.0250113047659397,0.1345589435591674,0.0258941892534494,-0.03071551557149,0.9876939783489522,-0.0813276442868522,right,-0.0021254420280456,0.1374772566299179,2.650982710817456,-9.345398516151308,0.0735605917672559,0.0138315130025148,0.0030080378055572,-1.343948364727944,-0.009651556611061
2025-04-30 01:23:59.623992300,2.511992431640625,0.2776256167527945,0.037958201020956,0.135183996732412,0.0122890351340174,-0.0298320970503389,0.9875927826041244,-0.0798194644382617,right,-0.003805935382843,0.1388109989654051,2.6618846285820004,-9.340426572957634,0.0741354611129475,0.0184328220784664,0.0026340782642364,-1.3569034156300126,-0.0060427337884902
2025-04-30 01:23:59.663992300,2.551992431640625,0.2788433122820924,0.050905093550682,0.1358088261999185,-0.0013161180540919,-0.0289486167066036,0.98748990951608,-0.0783125964738194,right,-0.0054891109466552,0.1401465252240714,2.672755274425447,-9.335427741757035,0.0747102115447686,0.0230341330170631,0.0022632777690887,-1.369873225709796,-0.0024324059486389
2025-04-30 01:23:59.703992600,2.59199267578125,0.2802501901113103,0.1167357787489891,0.1365951258806808,0.0647561475634574,-0.026919677059002,0.9873813589061508,-0.0745978847327112,right,0.0117865800857543,0.1421544302383202,2.685120250479877,-9.328996247404811,0.0754674637302053,0.0259675886482,0.001179814338684,-1.3893681997746228,-0.002100646495819
2025-04-30 01:23:59.743992600,2.63199267578125,0.281186620169744,0.1284099221229553,0.1371395949975262,0.0481044724583625,-0.0252080733859528,0.9873049813649668,-0.0714373421690378,right,0.0076407194137573,0.1437858866537238,2.693222600653768,-9.3242873390615,0.0760681876258034,0.0332166999578475,-0.0005651116371154,-1.405204066810012,-0.002890333533287
2025-04-30 01:23:59.783992600,2.67199267578125,0.2821180365954638,0.1400840580463409,0.1376835767236109,0.0314527973532676,-0.0234963697907492,0.9872249445860802,-0.0682775700025476,right,0.0034925937652587,0.145420248129254,2.701263283768296,-9.319556803408265,0.0766686378016468,0.04046580940485,-0.0023037493228912,-1.421064337634295,-0.0036775320768356
2025-04-30 01:23:59.823992600,2.71199267578125,0.2841410724967662,0.0647124797105789,0.1387908417966762,0.0613777711987495,-0.0209741026259346,0.9870316737246811,-0.0637675657343885,right,-0.0083138942718505,0.1484702015216439,2.7188836961328984,-9.309869522130487,0.0778837034924883,0.0043213949538767,-0.0027908086776733,-1.450651812776923,0.0086266696453094
2025-04-30 01:23:59.863992600,2.75199267578125,0.2834879058996141,-0.0209550783038139,0.1384045440091731,0.0053672268986701,-0.0215891111258312,0.98704092683641,-0.0650558328853136,right,-0.0008125901222229,0.1491158936576451,2.712539587803185,-9.3107416287899,0.078284472995371,-0.0007360824383795,-0.0021950304508209,-1.456913941911608,-0.0047949403524398
2025-04-30 01:23:59.903992300,2.791992431640625,0.2834980424918892,-0.0096187265589833,0.1383749457716692,0.009367698803544,-0.0222907006246782,0.9870524780147122,-0.0663660613022657,right,0.0045618414878845,0.1483428654086535,2.7129484608650207,-9.311792599147555,0.0779940042153219,-0.0082491030916571,0.002989262342453,-1.4494168641544878,-0.0146422088146209
2025-04-30 01:23:59.943992600,2.83199267578125,0.2842939612243667,0.015496059320867,0.1387878848067345,0.0420847833156585,-0.0221408998807359,0.9870141514721024,-0.0660679101719688,right,0.0037973523139953,0.1479477071521658,2.720519188380241,-9.310179903253912,0.0777873085570485,-0.0222842749208211,0.0009145736694335,-1.4455841541238128,-0.0034912079572677
2025-04-30 01:23:59.983992600,2.87199267578125,0.2852725254719909,-0.0151347471401095,0.1392977266197142,-0.0039174854755401,-0.0220266134998311,0.9869753880729514,-0.0658009326288279,right,-0.004726231098175,0.147177040217706,2.729941388981044,-9.308579482319953,0.0773994954525445,-0.0232475772500038,0.0032485127449035,-1.4381085575461388,0.0019869208335876
2025-04-30 01:24:00.023992600,2.91199267578125,0.2854626784686176,-0.0323405787348747,0.1393737393408539,0.0034668198786675,-0.022414871927048,0.9869703875292656,-0.0665319338888527,right,-0.0016443729400634,0.1466932226605007,2.731906843835115,-9.30872619731426,0.0772139501665218,-0.0153622580692172,0.0017939507961273,-1.4334151390329002,0.0031546801328659
2025-04-30 01:24:00.063992600,2.95199267578125,0.2851645638173611,0.0008759647607803,0.1392150929672363,-0.0201163981109857,-0.0227986425625281,0.987005422493676,-0.0671925197642963,right,-0.0050285458564758,0.1460509449280318,2.72939018483907,-9.310421895316242,0.0769398489429132,-0.0132737662643194,-2.05636024475e-05,-1.4271838434278965,-0.0105355978012084
2025-04-30 01:24:00.103992600,2.99199267578125,0.2849137539997721,0.0371101424098014,0.139138627125267,0.0116518642753362,-0.0223070634040808,0.9870451138178272,-0.0661324401580521,right,-0.0008837580680847,0.1457460653846338,2.727177184964716,-9.311523719078302,0.0767128937510309,-0.0131857162341475,0.0024361014366149,-1.424225724274665,-0.0017376095056533
2025-04-30 01:24:00.143992300,3.031992431640625,0.2851707265155461,0.0965240746736526,0.1393772895236152,0.043116308748722,-0.0207862852365353,0.98705286451155,-0.063101032672309,right,0.0045491456985473,0.1459524944809958,2.729486923211813,-9.31053996873796,0.0766064010173897,-0.0128717273473739,0.0004895627498626,-1.4262287346601483,-0.0082348585128784
2025-04-30 01:24:00.183992300,3.071992431640625,0.2863881031933949,0.0850952118635177,0.140089967270739,0.0435720160603523,-0.019099288378981,0.9869798553316784,-0.0598643006826428,right,-0.0022348165512084,0.146548820695641,2.7405788105905056,-9.306392785930631,0.0766864995095232,-0.0147998733446002,0.0076108276844024,-1.4320141861937938,0.0048314183950424
2025-04-30 01:24:00.223992600,3.11199267578125,0.2884659443056148,0.1425067782402038,0.1412948301630448,0.0780307799577713,-0.0168052533306187,0.9868852390403948,-0.0553298647993571,right,0.0046376585960388,0.1462313924070727,2.760039297863841,-9.301113384222983,0.076229623664065,-0.0721309930086135,0.0064882636070251,-1.42893463261798,-0.0273842215538024
2025-04-30 01:24:00.263992600,3.15199267578125,0.2902527649492607,0.1646543443202972,0.1426030070667002,0.0337160862982273,-0.0117759420386532,0.9869024686343084,-0.04497120495018,right,-0.0011443495750427,0.1441774169899357,2.777488445314765,-9.29895942105949,0.0744941898189257,-0.1089204549789428,0.0157913267612457,-1.409003897484392,0.0077825784683227
2025-04-30 01:24:00.303992600,3.19199267578125,0.2905918652253629,-0.0006870180368423,0.1429797189693455,-0.0486596561968326,-0.0097515866048168,0.9869969941480992,-0.0404801803042567,right,-0.0283293724060058,0.1413745544679744,2.7817621771112084,-9.301764541608094,0.072792849060127,-0.0976955443620681,-0.0177423655986785,-1.3817968877375124,0.0267605260014534
2025-04-30 01:24:00.343992600,3.23199267578125,0.2898223944145222,-0.0398038029670715,0.1425668714314212,-0.0321868881583213,-0.0107163312693938,0.9871010067617254,-0.0421232928614416,right,-0.0203050971031188,0.1396447653570083,2.7752827519640326,-9.306178850919007,0.0720528768035612,-0.0485546812415123,-0.0093723833560943,-1.3650006512373685,0.0174369215965271
2025-04-30 01:24:00.383992300,3.271992431640625,0.2890503013251409,-0.0789205878973007,0.1421538144025678,-0.0157141275703907,-0.011681052135514,0.9872033967592616,-0.0437673461398845,right,-0.0122835636138916,0.1379162470389288,2.7687650406330824,-9.310566272222996,0.0713127914521976,0.0005861818790435,-0.0009984970092773,-1.3482127441741525,0.0081141740083694
2025-04-30 01:24:00.423992300,3.311992431640625,0.2881490683395483,-0.0156883299350738,0.141635600933849,-0.0177391227334737,-0.0127203493603124,0.9872540526234392,-0.0458112935338755,right,-0.0053077936172485,0.1379409911059295,2.760363415251672,-9.313025940334796,0.0714645156535346,0.030724462121725,0.0083340108394622,-1.3484531288012862,-0.003830000758171
2025-04-30 01:24:00.463992600,3.35199267578125,0.2874359210417544,0.0272297114133834,0.1412631065229138,-0.0346896387636661,-0.0128969233882753,0.987287665379906,-0.0461820025754296,right,-0.0084568858146667,0.1383828646942591,2.7535519816711544,-9.3144200250417,0.0717041970251524,0.0031614135950803,-0.010194182395935,-1.3527451269067825,-0.0119502395391464
2025-04-30 01:24:00.503992600,3.39199267578125,0.2892423475672306,0.1820952743291854,0.1422936970598005,0.1721966117620468,-0.010500639298135,0.9871380915921244,-0.041673535090628,right,0.042484700679779,0.1398459194753455,2.769805781857669,-9.307523835787176,0.0721170071215654,-0.004510031081736,-0.0152601599693298,-1.3669541233927012,-0.0219067186117172
2025-04-30 01:24:00.543992600,3.43199267578125,0.2984635284365809,0.1677233874797821,0.1470593530951734,0.2513263821601867,-0.0068363464373482,0.9864526968086316,-0.035130806592183,right,-0.0186126828193664,0.1412441471671952,2.8549484093531965,-9.279751447242498,0.0723733021282403,-0.0190196521580219,-0.0244916677474975,-1.3805308133244514,-0.0208623111248016
2025-04-30 01:24:00.583992600,3.47199267578125,0.3051095332323298,0.0492708086967468,0.1505129156064591,0.0956080555915832,-0.0039419767036409,0.9859393487144448,-0.0298989777508818,right,-0.0489287972450256,0.142222226086273,2.916151066073775,-9.259280321621894,0.072484118368541,-0.0458638481795787,0.0158829391002655,-1.39002637142241,0.0279635861515998
2025-04-30 01:24:00.623992300,3.511992431640625,0.3039906224869835,-0.0442307293415069,0.1499880523375646,-0.0973945260047912,-0.0039795246274395,0.9860731589873292,-0.0296685988651988,right,-0.030602753162384,0.1407677979478609,2.906391011820733,-9.26445684747696,0.071747780707059,-0.0211142469197511,0.0120334029197692,-1.3759057838723063,0.0165029838681221
2025-04-30 01:24:00.663992300,3.551992431640625,0.301570846362601,-0.0200034733861684,0.1487549533337065,-0.0481628254055976,-0.004748351100945,0.9862685505856552,-0.030971198219773,right,-0.0155266523361206,0.1402419023749407,2.884179180012643,-9.272152078154685,0.0715805687859083,-0.0041502155363559,0.0016582906246185,-1.3707994006440043,0.0028038769960403
2025-04-30 01:24:00.703992600,3.59199267578125,0.299150665372515,0.0042237844318151,0.1475215584840086,0.0010688714683055,-0.0055171615966371,0.9864619570913258,-0.0322749814554271,right,-0.0004565119743347,0.1397191848914901,2.861941336980462,-9.279788272121548,0.0714132162294457,0.0128138195723295,-0.0087142288684844,-1.365723412553966,-0.0108921378850936
2025-04-30 01:24:00.743992600,3.63199267578125,0.3003107048497496,-0.0088651552796363,0.1480884183962346,0.0224838349968194,-0.0054184119500606,0.9863593982732464,-0.0322359779959361,right,-0.0090582370758056,0.1402259849402964,2.8724992636129256,-9.275800079268215,0.0716633781465644,0.0190807282924652,0.007654070854187,-1.3706447946041822,0.0108774900436401
2025-04-30 01:24:00.783992600,3.67199267578125,0.3007758354974889,0.000637849792838,0.1482700154020083,0.0030864775180816,-0.0058185814516784,0.9862912469260492,-0.033222228418688,right,-0.0056450963020324,0.141149657995367,2.8764368953227994,-9.273249810263517,0.0721931147008556,0.0184429921209812,0.0075229704380035,-1.3796134062185883,-0.0112681090831756
2025-04-30 01:24:00.823992600,3.71199267578125,0.3025727454813673,0.0014868074795231,0.1491436279977635,0.0782604962587356,-0.0057505952490416,0.9861349771092413,-0.0333180493809072,right,0.0221434235572814,0.1418147022759644,2.8928216284126043,-9.267188318267465,0.0725332554417527,0.0262218359857797,-0.0004907846450805,-1.3860701811425389,-0.0010381788015365
2025-04-30 01:24:00.863992600,3.75199267578125,0.305883775279662,0.0758794844150543,0.1508080873390931,0.1258832067251205,-0.0049835712126803,0.9858621775813474,-0.0321323927042995,right,0.0064955353736877,0.1426309727600257,2.923147793093324,-9.256476954638956,0.0728555111168754,-0.0083769466727972,0.0039666593074798,-1.393994252140075,-0.0240847170352935
2025-04-30 01:24:00.903992300,3.791992431640625,0.3095523779415589,0.0296080447733402,0.1527207800564347,0.0650619566440582,-0.0033419770042863,0.9855776611374631,-0.029129774072025,right,-0.0046873092651367,0.1429963654669025,2.956931112490594,-9.245205619040131,0.0728153229963241,-0.0037021222524344,0.0107860267162323,-1.3975409848362206,0.0145347267389297
2025-04-30 01:24:00.943992600,3.83199267578125,0.3099344848005315,-0.0430906005203723,0.1528771934968333,-0.0428991764783859,-0.0035490786021803,0.985518752311967,-0.0297099483971249,right,-0.0153575539588928,0.1438336160921783,2.960105650873482,-9.242956963330506,0.0732727479477454,0.0214997641742229,0.0111649930477142,-1.4056673004075884,0.0057130903005599
2025-04-30 01:24:00.983992600,3.87199267578125,0.3085808996202023,-0.0210407227277755,0.1521276623237172,-0.0363772958517074,-0.0045375308349078,0.9855951273135852,-0.0317187583704624,right,0.0032735466957092,0.1444955637468466,2.9473084208816287,-9.246067204305527,0.0737492671103704,0.0310710743069648,0.0082248449325561,-1.4120914882361888,-0.0116579979658126
2025-04-30 01:24:01.023992600,3.91199267578125,0.3077545217668666,0.052125908434391,0.1517045829692773,0.0046005323529243,-0.0046853850558459,0.9856445154206606,-0.0320143401275863,right,0.0173103213310241,0.1448629614713915,2.9395094375684856,-9.24800430984795,0.0739508080306658,0.0084409564733505,0.0019545555114746,-1.415656779502332,-0.0291506648063659
2025-04-30 01:24:01.063992600,3.95199267578125,0.3084732437534274,0.1105936467647552,0.1521842497893119,0.0490971021354198,-0.0026154541320277,0.9855446010594736,-0.0281035934010091,right,0.0069423913955688,0.1463693233369321,2.945504586330056,-9.24384660564661,0.0743970942782755,0.0183906704187393,0.0180907845497131,-1.430272749353945,0.0074116736650466
2025-04-30 01:24:01.103992600,3.99199267578125,0.3083671958211972,0.0092686265707015,0.1521738621334667,-0.0532597340643405,-0.0014909599527158,0.9854694049326324,-0.0261906544290576,right,-0.025883674621582,0.1487806540549082,2.9434689888492227,-9.240846254786849,0.0754392461093044,0.0599335208535194,0.0084199607372283,-1.453662831161171,0.0328242182731628
2025-04-30 01:24:01.143992300,4.031992431640625,0.3066914301588664,-0.0741644576191902,0.1512233293811343,-0.0489634461700916,-0.0025267921131591,0.9854971344803778,-0.0285835470214751,right,0.0039397478103637,0.1514748440533062,2.9267864418566227,-9.24199834743142,0.0769461762438394,0.0753726884722709,-0.0016551613807678,-1.4797865757159887,0.0278985276818275
2025-04-30 01:24:01.183992300,4.071992431640625,0.306298530626202,-0.0454276204109191,0.1508787749246661,0.0292783789336681,-0.0043125153938622,0.985497633748616,-0.0322749532621175,right,0.0208102464675903,0.1521059907797814,2.922872775544226,-9.242255537062883,0.0775351818003624,0.0333986729383468,-0.010093331336975,-1.4859049124658106,-0.0183671116828918
2025-04-30 01:24:01.223992600,4.11199267578125,0.3077340859252633,0.0004854835569858,0.1515905243755956,0.034818235784769,-0.0045343867056416,0.9854358067375956,-0.0326320777243765,right,-0.0007687211036682,0.1507870121813765,2.936728574678302,-9.23990985071957,0.0769157159078744,-0.0237396024167537,-0.000578761100769,-1.4731182038679718,-0.009857177734375
2025-04-30 01:24:01.263992600,4.15199267578125,0.3086899047960537,-0.0106785502284765,0.1520777681033062,-0.0121550150215625,-0.0045519279842906,0.9854005087489828,-0.0325797631850652,right,-0.0255029797554016,0.1497503555037246,2.946021303680539,-9.23854849923849,0.0764033402265086,-0.0324232690036296,5.4657459259e-05,-1.4630666193224489,-0.0044955015182495
2025-04-30 01:24:01.303992600,4.19199267578125,0.3058523974837281,-0.0137877818197011,0.1506830328751678,-0.0773288160562515,-0.0047198134751975,0.9856299021599032,-0.0326366378042824,right,-0.002667486667633,0.1493393198696066,2.9199758850589395,-9.24744316883385,0.0761985963446406,-0.0119648240506649,0.0059268474578857,-1.459080764556676,0.0053617358207702
2025-04-30 01:24:01.343992600,4.23199267578125,0.3048172977103501,-0.0295828115195035,0.1501290474391207,-0.0110824853181838,-0.0054135726867034,0.9857164806072544,-0.0339117987854912,right,0.0013760328292846,0.149000477625438,2.910550469587743,-9.2509315954715,0.0761249462440153,0.0157581139355897,-0.0142298638820648,-1.4557947286233306,0.0017044693231582
2025-04-30 01:24:01.383992300,4.271992431640625,0.3042073770539207,0.021883675828576,0.1498002460028997,-0.0108618047088384,-0.0056005859770983,0.9857334678431146,-0.0343640479403467,right,-0.0010862946510314,0.1497764813513363,2.9045684725686907,-9.251624838432669,0.076539482123746,0.0240476708859205,0.0044938623905181,-1.463320009561628,-0.0060951858758926
2025-04-30 01:24:01.423992300,4.311992431640625,0.3047275893192422,0.038000464439392,0.1500820022974921,0.019222317263484,-0.005057396549386,0.9856694464358284,-0.0334212512905588,right,-0.0062134265899658,0.1505450070610401,2.9090426953732966,-9.249037160027026,0.0768488089090297,0.0167365036904811,-0.0035749673843383,-1.4707717868722974,-0.0013814121484756
2025-04-30 01:24:01.463992600,4.35199267578125,0.3040717294424574,0.0351075492799282,0.1497883265980871,-0.0096388775855302,-0.0042850095603611,0.9856615660820044,-0.0320602294846764,right,-0.0029589533805847,0.1522112010936151,2.9022379837945103,-9.248591754347084,0.0775660891798699,0.0299519263207912,-2.65836715698e-05,-1.4869247570328414,0.0014123171567916
2025-04-30 01:24:01.503992600,4.39199267578125,0.3043977219185086,0.0100217703729867,0.1499528475448618,0.0173211339861154,-0.0039673615907969,0.985600470219816,-0.0316004622503861,right,-0.0013620257377624,0.1532407522783705,2.9047926367133856,-9.24618001703024,0.0780395014193952,0.0147366030141711,-0.008040577173233,-1.4969035686030985,-0.0040761530399322
2025-04-30 01:24:01.543992600,4.43199267578125,0.3042875882310779,-0.0091443229466676,0.149895376611189,0.005270879715681,-0.0038320818838565,0.9855824477949712,-0.0314295379852423,right,-0.0054097175598144,0.1539676375483825,2.903447359584272,-9.245459301540254,0.0783845401565506,0.0236459858715534,0.0060273706912994,-1.5039480802871286,0.0062796771526336
2025-04-30 01:24:01.583992600,4.47199267578125,0.3045763325357219,-0.0548999682068824,0.1499520351662232,-0.0025998353958129,-0.0048401127164977,0.985547949873555,-0.0335325583620654,right,-0.0002927184104919,0.1541902601953323,2.906016333289444,-9.244300779154896,0.078652482625128,0.0350579768419265,-0.0037826001644134,-1.5061054044514894,0.0023881644010543
2025-04-30 01:24:01.623992300,4.511992431640625,0.3049037342420741,-0.0046079829335212,0.1500311912276429,0.0089809484779834,-0.0055557184558341,0.9854762321007356,-0.0351910460508289,right,-0.0091052651405334,0.1553525419552371,2.908515456628799,-9.241672768738866,0.0793501975130723,0.0317826569080352,0.0119731724262237,-1.5173672415696084,-0.0067187994718551
2025-04-30 01:24:01.663992300,4.551992431640625,0.3053091149450844,0.0169472265988588,0.150207403212581,0.011805678717792,-0.0055153250475227,0.9853998054057224,-0.0353320738513259,right,-0.0048002004623413,0.1565791518141071,2.911699931883812,-9.238710996323825,0.0799660253612164,0.0570991039276123,0.0123396217823028,-1.5292501331955193,0.0011274367570877
2025-04-30 01:24:01.703992600,4.59199267578125,0.3046464838916174,0.0033568115904927,0.149823008311769,-0.0405976884067058,-0.0056451033136645,0.9853593624448052,-0.0359066684186791,right,-0.0040804147720336,0.1589354966967094,2.904488393069804,-9.237175457319616,0.0811677184280655,0.0559719875454902,0.0130976140499114,-1.552071036812663,-0.0007037669420242
2025-04-30 01:24:01.743992600,4.63199267578125,0.3041819424423672,0.0202675983309745,0.1495900271630242,-0.0236963219940662,-0.0053530313179865,0.985341664446786,-0.0354937592273735,right,-0.001102864742279,0.1603461051697416,2.8995383694469927,-9.23642551573515,0.0818301953275804,0.0354382134974002,0.008152961730957,-1.56572839076519,-0.0030922442674636
2025-04-30 01:24:01.783992600,4.67199267578125,0.3037166549128589,0.0371783897280693,0.1493569491757602,-0.0067949537187814,-0.0050609539963708,0.9853233047512148,-0.035080080588056,right,0.0018728375434875,0.1617564860796941,2.8945772399082776,-9.2356574539721,0.082492613058793,0.0149044413119554,0.0032095313072204,-1.5793806301511824,-0.0054812282323837
2025-04-30 01:24:01.823992600,4.71199267578125,0.3038037535511535,0.0144961290061473,0.1494128004846532,0.001856381073594,-0.0046112784599927,0.985273346663142,-0.0343544228294542,right,-0.00114506483078,0.1629206719127063,2.8948297533646223,-9.23364436058402,0.0830119167469862,0.0143600245937705,0.0019835829734802,-1.5906471434444187,0.0028446614742279
2025-04-30 01:24:01.863898400,4.7518984375,0.3029996254983804,0.014093660749495,0.149024005682615,-0.0358038246631622,-0.0044456780467269,0.985316679942578,-0.0340196818135717,right,-0.0241207890212535,0.1633695412230453,2.8871903445273635,-9.23528686709404,0.0832061548093311,0.0018362500704824,0.004113177768886,-1.5949907256066798,-0.0058744316920638
2025-04-30 01:24:01.903898000,4.791898193359375,0.2970807785330157,-0.1024811118841171,0.145976850319439,-0.1051619723439216,-0.0062225381220137,0.985742740878964,-0.0371335371449266,right,-0.0044896006584167,0.163424617486533,2.832452207645774,-9.252129865345358,0.0834471448745053,0.0253654960542917,0.0009150207042694,-1.5955235173091291,7.30603933334e-05
2025-04-30 01:24:01.943898000,4.831898193359375,0.291162088435368,-0.2190558910369873,0.1429278448968605,-0.1745201200246811,-0.0079993288092251,0.986156345412457,-0.0402470617020043,right,0.0151056051254272,0.1634978904924673,2.7776088568240405,-9.268619812375306,0.0836870807941655,0.048894740641117,-0.0022723972797393,-1.596232542361319,0.0060385018587112
2025-04-30 01:24:01.983898400,4.8718984375,0.2867120556787237,-0.1220606043934822,0.1404815480761425,-0.106668621301651,-0.0110555040742997,0.9864308787029528,-0.0461140868961561,right,0.0296991467475891,0.1638279246090497,2.7361867131114006,-9.28038273088336,0.0842442455911361,0.0612197704613208,-0.0178353488445281,-1.5994257854446767,-0.0377380549907684
2025-04-30 01:24:02.023898400,4.9118984375,0.2859720354661555,-0.0172384232282638,0.1400209162847418,0.0190168768167495,-0.0121495346904357,0.9864622995227716,-0.048298200458342,right,0.0289967656135559,0.1640283986451625,2.729227687753737,-9.28209713358581,0.0844919396530163,0.017955295741558,-0.0120450854301452,-1.6013655213356015,-0.0333833396434783
2025-04-30 01:24:02.063898400,4.9518984375,0.2873421759936588,0.0334631875157356,0.1407212989131558,0.0405190289020538,-0.0114665936213521,0.9863249538157854,-0.0472095202818732,right,0.0051935315132141,0.1652476269647737,2.741387496624887,-9.276469941353795,0.0850246042055172,0.0098835490643978,-0.0008300840854644,-1.6131602962866425,-0.017765000462532
2025-04-30 01:24:02.103898400,4.9918984375,0.2881188283686539,-0.0003831759095191,0.1411197930583256,0.0093954186886549,-0.0109574444991662,0.9862322827794928,-0.0464028783142662,right,0.00326669216156,0.1663287844193623,2.748094008526206,-9.27266002767682,0.085504982185238,-0.0007427316159009,-0.0016296207904815,-1.6236175390236078,-0.0047983527183532
2025-04-30 01:24:02.143898400,5.0318984375,0.2884048204821341,-0.0242639873176813,0.1412455407208952,0.0025858362205326,-0.0110246328040588,0.9861970341744412,-0.0466158637529787,right,-0.0025126338005065,0.1666818151467584,2.7505826104715463,-9.271323810636996,0.0856955688526793,-0.013262441381812,-0.0027660131454467,-1.6270315852507948,0.0013926923274993
2025-04-30 01:24:02.183898000,5.071898193359375,0.2883972311192622,-0.0312912128865718,0.1412144752149119,-0.0210974067449569,-0.0116109333549582,0.9862303718832032,-0.0476595336358122,right,-0.006712794303894,0.1656985648540226,2.7509660568311807,-9.272873962688443,0.0852846538540478,-0.0118665425106883,-0.0042493641376495,-1.6175221447579562,-0.0013711303472518
2025-04-30 01:24:02.223898000,5.111898193359375,0.2875865367747672,-0.0383049994707107,0.1407657101674653,-0.0332523137331008,-0.0123488674015381,0.986298519058104,-0.0490140851496394,right,-0.0097715854644775,0.1652097927683674,2.743671515908837,-9.275857946935297,0.085134399852561,0.0073918933048844,0.0084656774997711,-1.6127943855836986,0.0039620101451873
2025-04-30 01:24:02.263898400,5.1518984375,0.2863929381160684,-0.0104418843984603,0.1401100747067607,-0.0205893963575363,-0.0130980645441472,0.9863625084897432,-0.0504698792821973,right,0.0002027750015258,0.1654814393059529,2.732474122329056,-9.278705737581848,0.0853629130563905,0.0287038944661617,0.0005908012390136,-1.6154219576083122,-0.0022046715021133
2025-04-30 01:24:02.303898400,5.1918984375,0.2856022547712288,0.0117909405380487,0.1396826275401469,-0.0134305972605943,-0.0131428021756482,0.9863579678894288,-0.0507084883883,right,0.0026688575744628,0.1669646963054738,2.724458573655784,-9.27855434641242,0.0861054875839484,0.0530730485916137,0.0030222237110137,-1.6297672938250003,0.0031518042087554
2025-04-30 01:24:02.343898400,5.2318984375,0.2850789098381636,-0.0091227814555168,0.1393560713389237,-0.0242143869400024,-0.013318288494879,0.986302304782538,-0.0513410001248318,right,-0.0043872594833374,0.1691784851744336,2.718581206054985,-9.276493906751275,0.0872372433175565,0.0686756074428558,6.8545341491e-06,-1.6511711702510714,0.0062480270862579
2025-04-30 01:24:02.383898400,5.2718984375,0.2833545425735316,-0.0472592264413833,0.1383585811977921,-0.0725882947444915,-0.0142189716981879,0.9862907338174108,-0.0534348795976703,right,-0.0061965584754943,0.1720791607083193,2.7012305505424736,-9.276530147108437,0.0888002890665692,0.1093514561653137,0.0167613327503204,-1.6792039632976057,0.0112554728984832
2025-04-30 01:24:02.423898000,5.311898193359375,0.2803028852394686,-0.0261815004050731,0.1366261619980603,-0.112120896577835,-0.015630287806215,0.9863016989368512,-0.0566319941308367,right,-0.0117363333702087,0.1763338754560166,2.670908477514982,-9.277780439430474,0.0910940828440498,0.1445692777633667,0.0040049850940704,-1.7202968750558794,-0.0070153623819351
2025-04-30 01:24:02.463898000,5.351898193359375,0.2772075783157924,-0.0238128136843442,0.1348681218870814,-0.0700121521949768,-0.0167552490822873,0.9862723383193064,-0.0593586562515708,right,-0.0028246045112609,0.1814836436504251,2.639718681742251,-9.2773595836699,0.0937918159423318,0.1612606793642044,-0.0062480866909027,-1.7699927799865602,-0.0076648741960525
2025-04-30 01:24:02.503898400,5.3918984375,0.2762677091602191,-0.036494992673397,0.1341307027230924,-0.0213259868323802,-0.0179685881437274,0.9860591035364278,-0.0625414496943957,right,0.0116851925849914,0.1872074754361771,2.6281916178166864,-9.26993732471466,0.0968178120551825,0.1619866639375686,-0.0089825391769409,-1.8251732538081704,-0.0176509171724319
2025-04-30 01:24:02.543898400,5.4318984375,0.2769808349243473,-0.0291034188121557,0.1342173790939315,0.0094275381416082,-0.0190667724235572,0.9857511620617964,-0.0655779171372969,right,0.0232473015785217,0.1923953565957196,2.63217688806057,-9.258827901679275,0.09958333971033,0.122837021946907,-0.0106808543205261,-1.8751352623291315,-0.0319784879684448
2025-04-30 01:24:02.583898400,5.4718984375,0.2773904207781051,-0.0098148938268423,0.1342566142264135,-0.0018971413373947,-0.0197278402498851,0.9855653746523776,-0.0674007616184068,right,0.0267474055290222,0.1954779023223986,2.634373521322012,-9.25214623195827,0.1012274522749355,0.0381885319948196,-0.0016143023967742,-1.9047979946650564,-0.0409019887447357
2025-04-30 01:24:02.623898400,5.5118984375,0.2770687480676883,0.0015159901231527,0.1342073007399905,-0.0120762335136532,-0.0190377702185776,0.9856583937903164,-0.0657937809243041,right,0.0111890435218811,0.1942601687494614,2.6320295885443685,-9.255217309966683,0.1005169179454035,-0.0264497026801109,-0.002208262681961,-1.8930821301691232,-0.0268935114145278
2025-04-30 01:24:02.663898000,5.551898193359375,0.2767491441137342,0.0128468740731477,0.1341578504357638,-0.0222553275525569,-0.0183476817147514,0.9857504520097168,-0.0641875853216614,right,-0.0043712258338928,0.1930419425428311,2.6296996842920777,-9.258269683274628,0.0998062885555552,-0.0910879448056221,-0.0028035938739776,-1.8813586668886244,-0.0128858089447021
2025-04-30 01:24:02.703898000,5.591898193359375,0.2754045740735855,0.0011591082438826,0.1335847765306338,-0.0566393621265888,-0.0178251636215197,0.9858993463001148,-0.0628456769462196,right,-0.0111624002456665,0.1920123115583593,2.617774268698692,-9.263656052488088,0.0991972210273241,-0.0244011431932449,-0.0036116540431976,-1.8714480982489885,0.0087442249059677
2025-04-30 01:24:02.743898400,5.6318984375,0.2731491266164154,-0.0167717188596725,0.1324236169985017,-0.0745210349559784,-0.018149381274265,0.9860006255742544,-0.0634109152260426,right,-0.0120332241058349,0.1929701018278852,2.596389243103564,-9.267806742426751,0.0996863077888726,0.0224368348717689,-0.0049607753753662,-1.8806673236235976,0.0024250000715255
2025-04-30 01:24:02.783898400,5.6718984375,0.2708102393085954,0.0345213115215301,0.1312801011514015,-0.0427745953202247,-0.0181350909132626,0.9861515660550098,-0.0631626431599702,right,-0.0027938485145568,0.1930930161625793,2.574643859763443,-9.27363091853559,0.0997092645951353,-0.0248535051941871,-0.0055097043514251,-1.8818502497978504,-0.0137670189142227
2025-04-30 01:24:02.823898400,5.7118984375,0.2702241922821516,0.0797194987535476,0.1311665270568028,0.0260730907320976,-0.0167504523449091,0.9862689967169904,-0.0601349866457589,right,-0.0072532892227172,0.1919374419794589,2.569787651903927,-9.27722806624472,0.0989361490265003,-0.0610770285129547,-0.0050695240497589,-1.8707272366285324,-0.0040615797042846
2025-04-30 01:24:02.863898400,5.7518984375,0.2709292680882585,0.0775787606835365,0.1317463496144592,0.0405656099319458,-0.014878205357318,0.9863341843639272,-0.0561630859850818,right,-0.0114893913269042,0.1901677748538162,2.5772099108591675,-9.27858883320391,0.0978086076112185,-0.0764083564281463,-0.0047031342983245,-1.8536885696746408,0.0055832713842391
2025-04-30 01:24:02.903898000,5.791898193359375,0.2720949023442904,0.0464903116226196,0.1324283013051468,0.0210299044847488,-0.0139939756104567,0.9863127224505172,-0.0543540713617683,right,-0.0109975934028625,0.1892244788778526,2.588492352373898,-9.277258461382983,0.0972326857926659,-0.0434912592172622,-0.0049145817756652,-1.844603930465132,0.0063047558069229
2025-04-30 01:24:02.943898000,5.831898193359375,0.2732620894421232,0.0154018606990575,0.1331100488351858,0.001494200900197,-0.013109739122042,0.9862897559037216,-0.0525442985684989,right,-0.0105088949203491,0.1882832690548285,2.599786484326422,-9.275898863467573,0.0966566140097202,-0.0105741657316684,-0.0051271319389343,-1.835537703695148,0.0070281028747558
2025-04-30 01:24:02.983898400,5.8718984375,0.2740312520574075,0.0005160067230463,0.1335227454045052,0.0158488117158412,-0.0128345108411616,0.98625932443805,-0.0520072110563674,right,-0.0015000700950622,0.1878959624981067,2.607112589430809,-9.27458018208444,0.0964349326086201,0.0017013913020491,-0.0035088658332824,-1.831806554342806,0.0083177238702774
2025-04-30 01:24:03.023898400,5.9118984375,0.2750513340769456,-0.0158178135752677,0.1340283671717793,0.0268629062920808,-0.0129413402630675,0.9862202118269012,-0.0522271694976157,right,0.0012167692184448,0.1872110340289134,2.6169120989114045,-9.273121215447784,0.0961186957862687,-0.0050917919725179,-0.0024764537811279,-1.825207448338717,0.0041019916534423
2025-04-30 01:24:03.063898400,5.9518984375,0.2764925354957993,-0.0203529521822929,0.1347377106312032,0.0318777896463871,-0.0131727967049251,0.9861677190111654,-0.0526857699060511,right,-0.0017605423927307,0.1861421072215991,2.630805015185475,-9.271211582434177,0.0956321998827218,-0.0250854585319757,0.0022171735763549,-1.81490700359866,0.0019662529230117
2025-04-30 01:24:03.103898400,5.9918984375,0.2778371780990206,-0.0202479436993598,0.135410245662272,0.0224525518715381,-0.0134544509737996,0.986145850131516,-0.0531544024807612,right,-0.0042536258697509,0.1845037857482808,2.6440809686049818,-9.270512494254112,0.0948655337969481,-0.0314262099564075,0.003962367773056,-1.7991157063573595,0.0019139349460601
2025-04-30 01:24:03.143898400,6.0318984375,0.2781950761493986,-0.01989671215415,0.1355968136102988,-0.00049346126616,-0.0137171012995479,0.98618050898718,-0.0535211559255038,right,-0.0036853551864624,0.1830969291596024,2.6480910810291767,-9.27199016559124,0.0941995877054453,-0.0304383095353841,0.0089098513126373,-1.7855515836462377,0.0051590651273727
2025-04-30 01:24:03.183898000,6.071898193359375,0.2784156407448379,-0.0156793501228094,0.1357356494424826,0.0104127405211329,-0.0137440708806664,0.9862217782037382,-0.0534139164817234,right,-0.0051864385604858,0.1818128015275905,2.650764099630713,-9.273602861484886,0.0935610612556165,-0.0283072832971811,0.0075511336326599,-1.7731676106303929,0.0054596066474914
2025-04-30 01:24:03.223898400,6.1118984375,0.2786362729024365,-0.0114619880914688,0.1358744168657638,0.0213189423084259,-0.013771039753977,0.986262625952379,-0.0533064207218034,right,-0.0066891908645629,0.1805286817922016,2.653434195622802,-9.27519919076562,0.0929224872756294,-0.0261762589216232,0.0061926841735839,-1.7607807150050996,0.0057598501443862
2025-04-30 01:24:03.263898400,6.1518984375,0.2789932901044184,0.0039464579895138,0.1360797050144453,0.0075887748971581,-0.0136889402981316,0.9862780484076386,-0.0530467418677779,right,-0.0059794783592224,0.1796402804159449,2.657175135716796,-9.275751563951372,0.0924694756293173,-0.0154665587469935,0.0066816210746765,-1.752209432145208,0.0032255053520202
2025-04-30 01:24:03.303898400,6.1918984375,0.2790436941050754,0.0017473734915256,0.1361340458367211,-0.0004103435203433,-0.0135374554648008,0.9863028997462202,-0.0526584615546281,right,-0.0058016777038574,0.1790391295011468,2.657932383824885,-9.276628346785902,0.0921471293236568,-0.0147888027131557,0.0069568753242492,-1.7464086369119582,0.0050920397043228
2025-04-30 01:24:03.343898400,6.2318984375,0.278417147878013,0.0506393238902092,0.1358763092249384,-0.0152602205052971,-0.0131894646011068,0.9863777807274842,-0.0518047724756908,right,0.0043187737464904,0.1784102752468128,2.65242092692703,-9.279346373572944,0.0917749681043832,-0.0198325514793396,0.0099370181560516,-1.7403399845227598,-0.0122272670269012
2025-04-30 01:24:03.383898400,6.2718984375,0.2769610740873567,0.1318828761577606,0.1353485234713873,-0.0268835946917533,-0.0112076283362762,0.9865019926538016,-0.0476508380428671,right,0.0046438574790954,0.1784065781254751,2.638908534403145,-9.283204802566766,0.091482603171903,-0.0196113307029008,0.0128756463527679,-1.7403043286874889,-0.009196326136589
2025-04-30 01:24:03.423898000,6.311898193359375,0.2755238148454002,0.0635400786995887,0.134813326785141,0.0036728214472532,-0.009059693451459,0.986563615086912,-0.04335172727607,right,0.0119273662567138,0.1797465166104921,2.624926478540897,-9.284735665395855,0.0918455291170239,0.026082469150424,-0.0008220970630645,-1.753234537409246,0.0213199704885482
2025-04-30 01:24:03.463898000,6.351898193359375,0.2758045134688466,-0.0140077695250511,0.1349500919797528,-0.0003183609806001,-0.0085433163845164,0.9864572942662326,-0.0426257960369658,right,-0.002354085445404,0.1818419973564081,2.6265266072139144,-9.280442936637996,0.0928308553705809,0.0451186038553714,-0.0102080702781677,-1.7734492040507497,0.015641763806343
2025-04-30 01:24:03.503898400,6.3918984375,0.275479389590609,0.0151917822659015,0.1347071435588909,-0.0270640831440687,-0.0093803537513591,0.9864621515839914,-0.0443229871689753,right,0.0001038908958435,0.1820607885914016,2.623403506757319,-9.28092282910943,0.0930516628118542,0.0245859380811452,0.0014252662658691,-1.775559328072518,0.0008453577756881
2025-04-30 01:24:03.543898400,6.4318984375,0.2751545704809203,0.0443913340568542,0.1344640709359497,-0.0538097992539405,-0.0102173811741344,0.9864661069745636,-0.0460201639066122,right,0.0025614500045776,0.1822800975054277,2.620282744388282,-9.281399214449523,0.0932723920727619,0.004053272306919,0.0130583941936492,-1.777674420530349,-0.0139505118131637
2025-04-30 01:24:03.583898400,6.4718984375,0.2736873914510265,0.0693487003445625,0.1337852687034965,-0.0505802445113658,-0.0097237076550853,0.9865549429995356,-0.0449288944936481,right,-0.0030069947242736,0.1826252698418182,2.6064965033590792,-9.284642726415395,0.0933620512904173,-0.0112310545518994,0.0150675773620605,-1.781003272692114,-0.0089764893054962
2025-04-30 01:24:03.623898400,6.5118984375,0.2708601440356545,0.0533039569854736,0.1324859723489464,-0.0833301916718483,-0.0087532031375056,0.986736744557377,-0.0427465940204053,right,-0.0004027485847473,0.183003459102032,2.5800556556791068,-9.291324980658292,0.093390182366343,-0.0194639861583709,0.0064543187618255,-1.784650250892341,-0.0001779645681381
2025-04-30 01:24:03.663898000,6.551898193359375,0.2678671600804282,-0.0100684314966201,0.1310546842873368,-0.0887293145060539,-0.0085627675336911,0.98696446168708,-0.0419921261008042,right,0.0005950927734375,0.1823786913752788,2.552530227632821,-9.300078780478238,0.0930194115162539,-0.0306411758065223,-0.0006215274333953,-1.7786252915143963,0.0029507279396057
2025-04-30 01:24:03.703898000,6.591898193359375,0.2650477654980775,-0.019622329622507,0.1296579520338071,-0.0739681124687194,-0.0090518166872031,0.987200120357104,-0.0425485006463572,right,-0.0021523833274841,0.1811302547599319,2.5268790690258145,-9.309373847568034,0.0924274263735856,-0.0326812379062175,0.0038522481918334,-1.7665839944563806,-0.0072944313287734
2025-04-30 01:24:03.743898400,6.6318984375,0.2627580947812365,0.0027717407792806,0.1285535930446772,-0.0510605312883853,-0.0092538418994091,0.9874148820345858,-0.0425361971462111,right,-0.001121163368225,0.1795843689017291,2.506263566498458,-9.317761736685036,0.0916534045029522,-0.0344003289937973,0.0010985136032104,-1.7516699184410274,-0.0063576698303222
2025-04-30 01:24:03.783898400,6.6718984375,0.2611951164053452,0.0274204965680837,0.127832829554158,-0.0373528972268104,-0.0089616361084263,0.9875521605491936,-0.0416963613879754,right,-0.0011792182922363,0.1788111918034064,2.4920459483146664,-9.322973333853485,0.0912108927234965,-0.0215601995587348,-0.0062412172555923,-1.7442090810410678,-0.0063843578100204
2025-04-30 01:24:03.823898400,6.7118984375,0.2602054827756441,0.0171285420656204,0.1273670791244351,-0.0474359057843685,-0.0085567411595381,0.9875822105947258,-0.0408976342730167,right,-0.0016720294952392,0.1796601418881263,2.482436408448219,-9.32400033881366,0.0915745991317936,0.010968342423439,-0.0084021240472793,-1.7524010091945528,-0.006872072815895
2025-04-30 01:24:03.863898400,6.7518984375,0.2592150365781256,0.0068365884944796,0.126901273967592,-0.0575189143419265,-0.0081518369743904,0.9876117801809888,-0.0400979254364453,right,-0.0021661520004272,0.1805083376887906,2.4728183930143715,-9.325014484292268,0.0919382675159644,0.0434968844056129,-0.0105621516704559,-1.7605844617806374,-0.0073606520891189
2025-04-30 01:24:03.903898000,6.791898193359375,0.2571002091206277,0.0745152384042739,0.1258592616751354,-0.0472751557826995,-0.0074969458254554,0.9876119063948556,-0.0389874693276758,right,0.0038738250732421,0.1836564198015442,2.4516706833064554,-9.324816915893557,0.0934136340145105,0.1084251552820205,-0.0151387602090835,-1.7909462822966276,-0.0321616679430007
2025-04-30 01:24:03.943898000,6.831898193359375,0.2551311131895931,0.0361191183328628,0.1249119798486083,-0.0556856915354728,-0.0063871000065837,0.9875544063269588,-0.037098169005343,right,-0.0170520544052124,0.187843910336382,2.431390550213307,-9.32228768967688,0.095355161127252,0.0707868933677673,-0.005160629749298,-1.8313050345614552,-0.0033495724201202
2025-04-30 01:24:03.983898400,6.8718984375,0.2529490023389498,-0.0520699545741081,0.1237675406177611,-0.050322912633419,-0.0066927830468704,0.9875869993533906,-0.0377917187643583,right,-0.0064106583595275,0.1900565594718478,2.41002247575298,-9.323625075760484,0.0964832136486491,0.029275108128786,0.0016845315694808,-1.8526175794422624,0.0087902843952178
2025-04-30 01:24:04.023898400,6.9118984375,0.2515775497823376,-0.0983704328536987,0.1229149702209656,-0.0466386638581752,-0.0084213502054798,0.9876322576832948,-0.0412314503520754,right,-0.0041767954826354,0.190628174633487,2.396969371303916,-9.325894189736246,0.0969723023694049,0.0299945697188377,-0.0013889819383621,-1.858122022077441,0.0049075335264205
2025-04-30 01:24:04.063898400,6.9518984375,0.2508904131673092,-0.0560531802475452,0.1223948910533564,-0.0090520344674587,-0.0102413295608148,0.9876472569622156,-0.0448777095239908,right,0.0106611847877502,0.1908489643615526,2.3904586742356417,-9.327141559448838,0.0973016858461085,0.0348142571747303,0.0026154965162277,-1.860247928190231,-0.0111581087112426
2025-04-30 01:24:04.103898400,6.9918984375,0.251407840766141,0.0157818309962749,0.1225878354699234,0.0211011245846748,-0.0106671300982285,0.9875749785348328,-0.0458897982960164,right,0.004941701889038,0.1916178592665458,2.3949279286041856,-9.324515302598476,0.0977458505652878,0.0214461237192153,0.0049998909235,-1.8676507517926395,-0.0097636133432388
2025-04-30 01:24:04.143898400,7.0318984375,0.2520310892661805,0.0297639332711696,0.1229355489095862,0.013978075236082,-0.0100869442287721,0.9875135354301412,-0.0448560032233108,right,-0.0024359226226806,0.1922352518578876,2.4004509298093617,-9.321902489751578,0.0979903207625708,-0.0102223046123981,0.0043309926986694,-1.8735941703669723,0.0005066245794296
2025-04-30 01:24:04.183898000,7.071898193359375,0.2519602021680295,0.0319790095090866,0.1229682601303727,-0.0217644907534122,-0.0093143948365633,0.9875068228208622,-0.0433359790751415,right,-0.0122750997543334,0.1926364408749864,2.399602642416954,-9.321343686825037,0.0980945027910586,-0.0113305561244487,-0.0034868717193603,-1.877455814231187,0.0058926194906234
2025-04-30 01:24:04.223898400,7.1118984375,0.2507547130223119,-0.0119987055659294,0.1224070114422835,-0.0454247593879699,-0.0090962920317973,0.9875965911190752,-0.0427383529204071,right,-0.0142674446105957,0.1923537741629663,2.388495703599602,-9.324743266135451,0.0979127952955275,-0.0170939099043607,-0.0060509890317916,-1.8747350109651684,0.0150150507688522
2025-04-30 01:24:04.263898400,7.1518984375,0.2485903629116847,0.0229506455361843,0.1213527211265927,-0.0636416748166084,-0.009095707177347,0.9877377210174229,-0.0425003424194531,right,-0.0164887309074401,0.1921782342847563,2.368389027377218,-9.330210299369693,0.0978018020675111,0.0033940561115741,-0.0085211992263793,-1.8730453043125568,0.0037950128316879
2025-04-30 01:24:04.303898400,7.1918984375,0.245495702712424,0.0035007391124963,0.1198618429420039,-0.0666654407978057,-0.0088953237643488,0.98793339159116,-0.0417725441678098,right,-0.0062459111213684,0.1920522294913869,2.33956128456071,-9.337723743739724,0.0976817948220513,0.004975349176675,-0.0088702738285064,-1.8718322752609848,0.0138976424932479
2025-04-30 01:24:04.343898400,7.2318984375,0.2428924049148801,-0.0458723902702331,0.1185225670748129,-0.0553770549595356,-0.0095438403181848,0.9880801706841986,-0.0428371483556277,right,0.0015143156051635,0.1921270015277829,2.315210833288729,-9.343646704047918,0.0977701594159222,0.0127096064388751,-0.0042982101440429,-1.8725521139681336,0.0110047161579132
2025-04-30 01:24:04.383898400,7.2718984375,0.2415868255214403,-0.0258790161460638,0.1177958310997933,-0.0244820993393659,-0.010417439246979,0.9881459889988716,-0.0444844715788601,right,0.0014214515686035,0.1921946337603669,2.302979712747037,-9.346538333836197,0.0978943607848505,0.0080978274345397,0.0010058730840682,-1.8732031252227723,-0.0034958124160766
2025-04-30 01:24:04.537090600,7.425090576171875,0.2399019248041523,0.215163841843605,0.1175543732651689,-0.0328653343021869,-0.005360191244993,0.988480905677922,-0.0335705513975139,right,-0.0279777143150568,0.1879982536160233,2.2890759828180074,-9.357958722516894,0.0951728158070581,-0.1150980144739151,0.0024824892170727,-1.8327920582488175,-0.0216999612748622
2025-04-30 01:24:04.576988400,7.464988525390625,0.2374934419821804,0.1049018502235412,0.1167498656781077,-0.0185495894402265,-0.0018294641859295,0.988727925989828,-0.0259513918725959,right,-0.0008891304023563,0.1859682596925863,2.267401618887484,-9.367041608160733,0.0937190905749957,-0.1031845659017562,-0.0054390048608183,-1.813231617732346,0.0345839783549308
2025-04-30 01:24:04.616988400,7.504988525390625,0.2376486929322382,0.1002174243330955,0.1170575491408996,0.0364784970879554,0.0005458952751708,0.9887394383665584,-0.0211109836952113,right,-0.0053089261054992,0.1855511621159636,2.269033604003489,-9.367423885476589,0.0932300529871305,-0.0585730522871017,0.006373792886734,-1.809211714566499,0.0235688388347625
2025-04-30 01:24:04.656988400,7.544988525390625,0.2386826269591712,0.0639822855591774,0.1177397070209722,0.0254165045917034,0.0023953088446867,0.9886799729544956,-0.0174566453226935,right,-0.0072561502456665,0.1854629071597607,2.2787555182032286,-9.365227836737036,0.092971174261234,-0.0271053537726402,0.0051230490207672,-1.8083610890865325,0.0207970589399337
2025-04-30 01:24:04.696988700,7.58498876953125,0.2386897197538595,-0.0071964189410209,0.1178036299987127,-0.0188473314046859,0.0030490542232825,0.98867469401991,-0.0161428912501844,right,-0.0108977556228637,0.185529541515238,2.2787933659955857,-9.365094565746189,0.0929267407494773,0.0082077570259571,-0.0035019814968109,-1.8090033325128256,0.0200436413288116
2025-04-30 01:24:04.736988700,7.62498876953125,0.2374912458961871,-0.1138309463858604,0.1170849636722494,-0.075799711048603,0.0016532152039782,0.988747940339654,-0.0188546652558906,right,-0.0122415423393249,0.1855375652089116,2.267564554364234,-9.367804409226776,0.0930913524370895,0.0284830965101718,-0.0103392750024795,-1.809080635532737,0.0180858969688415
2025-04-30 01:24:04.776988400,7.664988525390625,0.2353607881022517,-0.1488346755504608,0.1157657126228822,-0.0890234038233757,-0.0013126028945962,0.9888841327476284,-0.0246216842119272,right,-0.0029953718185424,0.1852794965091509,2.247710537728667,-9.373068028843402,0.0932996881528982,0.0355448089540004,-0.0094835311174392,-1.8065932026311755,0.0031095892190933
2025-04-30 01:24:04.816988400,7.704988525390625,0.2328959199309095,-0.1322348713874817,0.1142738167544933,-0.0746437162160873,-0.0043914745086987,0.98903457482405,-0.0305701669908733,right,-8.92877578735e-05,0.1848986261013927,2.2247589934691785,-9.379248763304949,0.0934499937187168,0.0315303727984428,-0.0078658014535903,-1.8029219667725265,-0.0024618953466415
2025-04-30 01:24:04.856988400,7.744988525390625,0.2311238905027113,-0.0993612632155418,0.1131658209887816,-0.0353242456912994,-0.0069078487951659,0.9891182462234202,-0.0354992006798142,right,0.0074700713157653,0.1849698710870225,2.208105672571063,-9.38305107819736,0.0937604700511438,0.0335240252315998,-0.0054269134998321,-1.803608633862436,-0.0054217427968978
2025-04-30 01:24:04.896988400,7.784988525390625,0.230963758518392,-0.0426750257611274,0.1129182995071978,0.0046957768499851,-0.008541265687769,0.9890835515078537,-0.0388675923417392,right,0.0108264088630676,0.1856559762530447,2.206319373676181,-9.382197676238418,0.0942894090462748,0.0366409309208393,-0.0030784159898757,-1.8102219145223497,-0.0168136805295944
2025-04-30 01:24:04.936988700,7.82498876953125,0.2316074907847069,0.0285845398902893,0.1131948925605324,0.0242922715842723,-0.008605056284437,0.9889738750612558,-0.0392455026700145,right,0.0006888508796691,0.1872435928681199,2.2116960982784626,-9.377966322278976,0.095098302927719,0.0244783442467451,0.0010419189929962,-1.8255211904630064,-0.0151792615652084
2025-04-30 01:24:04.976988700,7.86498876953125,0.2323790805820455,0.0393624603748321,0.1136239343653026,0.0309995841234922,-0.0078283850117298,0.9888831431922328,-0.0378859616675239,right,0.0023956894874572,0.1883998599336367,2.2184438189730047,-9.374196740612389,0.0955958723002588,-0.0016208365559577,0.005110964179039,-1.8366608625061809,-0.0059504956007003
2025-04-30 01:24:05.016988400,7.904988525390625,0.2334641864501757,0.0254881624132394,0.1142521335105097,0.0264167618006467,-0.0069055125253722,0.9888451655805434,-0.0360795935237215,right,-0.0008610486984252,0.1880243323233614,2.228773928198964,-9.372454280859232,0.0953113587795665,-0.0143844727426767,0.0029292851686477,-1.8330432565309107,-0.0006613433361053
2025-04-30 01:24:05.056988400,7.944988525390625,0.2345498688305577,0.0116138653829693,0.1148801716725245,0.0218339413404464,-0.0059826356065261,0.9888058034502858,-0.0342729445827039,right,-0.0041195750236511,0.1876506969744754,2.239107106164843,-9.370694869971274,0.0950267090647384,-0.0271481089293956,0.0007472783327102,-1.829443624603748,0.0046296417713165
2025-04-30 01:24:05.096988400,7.984988525390625,0.2354960988009042,-0.0115826493129134,0.1153853707678231,0.0178006589412689,-0.0056734716586075,0.9887810007981852,-0.0336648047148433,right,-0.0034224390983581,0.1870356168397019,2.2482349999941884,-9.369664357879758,0.0946904844086322,-0.0143851097673177,0.0028929263353347,-1.8235173032946883,0.00830540060997
2025-04-30 01:24:05.136988400,8.024988525390626,0.23616535291388,-0.0267372000962495,0.1156931707813774,0.0028537828475236,-0.0059851139018126,0.9887631676970308,-0.0342992082619023,right,-0.004967987537384,0.1865359376843748,2.2547180784031746,-9.36904242658913,0.0944821391523742,0.0019574165344238,0.0028726458549499,-1.8187023042283952,0.0012215226888656
2025-04-30 01:24:05.176988700,8.06498876953125,0.2362725815794846,-0.0267358794808387,0.1156974460709774,-0.0023958734236657,-0.0065370961358796,0.9887637664226452,-0.0353987189904783,right,-0.0018364191055297,0.186309416736848,2.255819171512872,-9.369200832021235,0.0944341336324569,0.0073545989580452,0.006734013557434,-1.8165194072313608,0.000888243317604
2025-04-30 01:24:05.216988700,8.10498876953125,0.2362758915314074,-0.0128992097452282,0.1156524482666799,-0.0046880999580025,-0.0070091256733164,0.9887568328966356,-0.0363629579893447,right,-0.0017573833465576,0.1863852863543318,2.25581785633862,-9.369059377723932,0.0945274124227254,0.0175913795828819,0.0050135105848312,-1.8172506441153584,-0.0019668936729431
2025-04-30 01:24:05.256988400,8.144988525390625,0.2358340174746037,-0.0126022528856992,0.1153936545465301,-0.0207050666213035,-0.0073580081496966,0.9887598737266228,-0.0370794419881838,right,-0.0027302503585815,0.1868266880133678,2.2514900562673805,-9.369274481779335,0.0947853383733174,0.0136631391942501,0.0048178881406784,-1.8215040637761355,0.0005779266357421
2025-04-30 01:24:05.296988400,8.184988525390626,0.2351516305498192,-0.0153967021033167,0.1150192636931222,-0.0176196340471506,-0.0077347912049019,0.9887876079353576,-0.0377995459346436,right,0.0035309791564941,0.187022005715343,2.245013115338236,-9.37046223025918,0.0949207682868605,0.0086675863713026,0.0008358061313629,-1.8233860781304536,0.0008892714977264
2025-04-30 01:24:05.336988400,8.224988525390625,0.2345987918687863,0.0011441418901085,0.1147233640362866,-0.0201582517474889,-0.0079871255525418,0.9888156881199812,-0.0382618699636654,right,-0.002274215221405,0.1870639619572128,2.2398146699123083,-9.371627766907215,0.0949658795850864,0.0031344881281256,-0.0023426711559295,-1.8237904211476443,-0.0045877695083618
2025-04-30 01:24:05.376988400,8.264988525390624,0.2340073822835312,0.0152774862945079,0.1144466897400936,-0.0016629453748464,-0.0078521228450325,0.9888509241695792,-0.0379316819162883,right,0.0018564462661743,0.1870610763691403,2.2342729640066623,-9.372955800640582,0.0949432024642238,0.0013127155834808,-0.0016484856605529,-1.8237626563578844,-0.0024044662714004
2025-04-30 01:24:05.416988700,8.30498876953125,0.2342469911049444,0.022260071709752,0.1145961562180881,0.0077577112242579,-0.0074932165573725,0.9888345775344596,-0.0372426524982987,right,-0.0054954290390014,0.1871773325593896,2.2364695972681043,-9.37221345784068,0.0949621234996542,-0.0050611966289579,-0.0003999024629592,-1.8248827464289965,-0.0040212273597717
2025-04-30 01:24:05.456988700,8.34498876953125,0.2341637042001898,0.0557059869170188,0.1146276910279953,0.0089031979441642,-0.0065979888215352,0.9888145249330766,-0.0355054048541551,right,0.0011372566223144,0.1878599387104348,2.2353993376880883,-9.3711864528805,0.0951996226582491,0.0131435338407754,-0.0033654123544692,-1.831459494470805,-0.0033875107765197
2025-04-30 01:24:05.496988400,8.384988525390625,0.2343417785191508,0.0206584297120571,0.1147811837757914,0.016835156828165,-0.0057415041310869,0.9887715868241572,-0.0338887576550144,right,0.0003482699394226,0.1886862671742409,2.236715973244608,-9.369312475702166,0.0955158284139335,0.0011083511635661,-0.0001903027296066,-1.8394198058255016,0.0052239596843719
2025-04-30 01:24:05.536988400,8.424988525390624,0.2350015214940438,0.0025221426039934,0.1151328682294309,0.0207131505012512,-0.0054418885044654,0.988734202034313,-0.0333487782666682,right,-0.0019769072532653,0.1887058532979046,2.242888378269225,-9.367799733051656,0.0954963223243885,-0.0113959992304444,-0.0017955303192138,-1.839608460265398,8.0183148384e-05
2025-04-30 01:24:05.576988400,8.464988525390625,0.2356502790075038,-0.0262116678059101,0.1154512864127289,0.0174445360898971,-0.0055843631727357,0.9887299250930432,-0.0336109764133189,right,-0.0040584802627563,0.187966568867486,2.2492823170900342,-9.36766295492947,0.0951478796013974,-0.0126604177057743,0.0017392486333847,-1.832486791691929,0.003543198108673
2025-04-30 01:24:05.616988400,8.504988525390624,0.2351372952893455,-0.0193965546786785,0.1151756933251895,0.0033698035404086,-0.0059014359252696,0.9887722539015856,-0.0341652989606914,right,-0.0001707077026367,0.1876518774454326,2.244610818147659,-9.369375604066253,0.0950228494761915,-0.0074142850935459,0.0019248127937316,-1.829455022780597,0.0023429989814758
2025-04-30 01:24:05.656988400,8.544988525390625,0.2346241268996883,-0.0125814415514469,0.1149000581262511,-0.0107049290090799,-0.0062185125881252,0.9888144014718456,-0.0347197584848969,right,0.0037167072296142,0.1873374610846903,2.2399359582044185,-9.371085330593584,0.0948977982068095,-0.0021681524813175,0.0021107196807861,-1.8264257380872964,0.0011430829763412
2025-04-30 01:24:05.696988700,8.58498876953125,0.2340764183930706,0.0038778837770223,0.1146160677956482,-0.0094740930944681,-0.0063677209202848,0.988841913059617,-0.0349772140869398,right,0.0051160454750061,0.1874065562536203,2.2347737531356517,-9.372188323399424,0.094944992595385,0.0064094439148902,-0.0048580169677734,-1.827091362389177,-0.0044304579496383
2025-04-30 01:24:05.736988700,8.62498876953125,0.2340764183930706,0.0022390917874872,0.1146160677956482,4.06578183174e-05,-0.0063677209202848,0.988841913059617,-0.0349772140869398,right,0.0028919577598571,0.1874065562536203,2.2347737531356517,-9.372188323399424,0.094944992595385,-0.0102881509810686,-0.005503311753273,-1.827091362389177,-0.0031913518905639
2025-04-30 01:24:05.776988400,8.664988525390624,0.2340764183930706,-0.0064416849054396,0.1146160677956482,0.0044973781332373,-0.0063677209202848,0.988841913059617,-0.0349772140869398,right,0.000525951385498,0.1874065562536203,2.2347737531356517,-9.372188323399424,0.094944992595385,-0.0142186004668474,-0.0067649632692337,-1.827091362389177,-0.0025132000446319
2025-04-30 01:24:05.816988400,8.704988525390625,0.2342706424608224,-0.0063468632288277,0.1147246870511156,0.0204792357981205,-0.0063791551297038,0.9888643497313842,-0.0349309919757898,right,0.0019400119781494,0.1866688776362578,2.2369063812501726,-9.373062183624503,0.094578376769385,-0.0200021285563707,-0.0014768987894058,-1.819983430080116,-0.0040248036384582
2025-04-30 01:24:05.856988400,8.744988525390625,0.2349574626418296,-0.0009520822204649,0.1150850215835777,0.0249864049255847,-0.0062912078481075,0.98886098448745,-0.0347249339673184,right,-0.0039290785789489,0.1858841759888346,2.243675144732743,-9.372909623411298,0.0941808811594517,-0.0186399966478347,0.0005807876586914,-1.8124211781322956,-0.00338776409626
2025-04-30 01:24:05.896988400,8.784988525390625,0.2353464902981845,-0.0167062263935804,0.1152847986620557,0.0067872572690248,-0.0063547730197494,0.9888730539807464,-0.0347978713835221,right,-0.0041390061378479,0.1851106375328869,2.247647555495053,-9.373396530145406,0.0938040018145859,-0.0153979351744055,0.0016123801469802,-1.8049656014293431,0.0030008405447006
2025-04-30 01:24:05.936988700,8.82498876953125,0.235783939193266,-0.0183057095855474,0.1154744452057559,0.0117948418483138,-0.0067070491763949,0.9888653058288136,-0.0354989899999626,right,-0.0017893314361572,0.184670235650041,2.2519332699902352,-9.37318434869945,0.0936282073363923,4.1322782635e-06,0.0028064101934432,-1.800720365075022,-0.0013060867786407
2025-04-30 01:24:05.976988700,8.86498876953125,0.236138567256413,0.0038226023316383,0.1156335229370736,0.007535430137068,-0.0068445131012715,0.9888400123153758,-0.0358206654027036,right,-0.0015695095062255,0.1847539640528087,2.2552217901416123,-9.372238592281937,0.0936893725624398,0.0080441487953066,0.0019154995679855,-1.8015274436742064,-0.0027130097150802
2025-04-30 01:24:06.016988400,8.904988525390625,0.2364782599567823,0.0144516173750162,0.1158150981494824,0.0121505875140428,-0.0066433780355725,0.9888127206945794,-0.0354698083065863,right,0.0012616515159606,0.1849514175048636,2.258321948114037,-9.371126247125863,0.0937677999548656,-0.0001469906419515,0.0038246214389801,-1.8034307930774989,0.0008178651332855
2025-04-30 01:24:06.056988400,8.944988525390626,0.2368370792310888,0.008193933404982,0.1160222944276802,0.0100894384086132,-0.0062953672328174,0.9887904025112882,-0.0348097464651663,right,-0.0006788372993469,0.1850328767309514,2.261649923492968,-9.370172307401894,0.0937709622734699,-0.0100257247686386,0.0036910474300384,-1.80421595210582,0.0055916458368301
2025-04-30 01:24:06.096988400,8.984988525390625,0.2368370792310888,-0.0100809028372168,0.1160222944276802,0.0048173470422625,-0.0062953672328174,0.9887904025112882,-0.0348097464651663,right,-0.0011729001998901,0.1850328767309514,2.261649923492968,-9.370172307401894,0.0937709622734699,-0.0093401344493031,0.0065595805644989,-1.80421595210582,0.0054252296686172
2025-04-30 01:24:06.136988400,9.024988525390626,0.237071825457688,-0.0059581222012639,0.1161348419552504,-0.0031847143545746,-0.0064827922090351,0.9888103414502192,-0.0351177678176305,right,-0.0036385059356689,0.1842594835359189,2.264176519361138,-9.370994729700683,0.0934073760339494,-0.0093802697956562,0.0068948864936828,-1.7967605215333402,0.0011647641658782
2025-04-30 01:24:06.176988700,9.06498876953125,0.2367981364852209,0.016110137104988,0.1160228700417643,-0.0144607601687312,-0.0064054318901598,0.9888607315564716,-0.0348445311595587,right,-0.0057544112205505,0.1835052705414585,2.261928886564821,-9.372928912633656,0.0930178801373157,-0.0133548593148589,0.0041785091161727,-1.7894889230951665,-0.0025842040777206
2025-04-30 01:24:06.216988700,9.10498876953125,0.2359405071767672,0.0134943313896656,0.1156171429496761,-0.0156767759472131,-0.0061228474354467,0.988884601871128,-0.0342665132842424,right,-0.0051626563072204,0.184122827489836,2.253630721557885,-9.373788744333384,0.0932869568999662,0.0118303885683417,0.0047983527183532,-1.7954430091939866,-0.0042684823274612
2025-04-30 01:24:06.256988400,9.144988525390623,0.2350824372312315,0.0108785266056656,0.1152113737461891,-0.0168927907943725,-0.0058402668910553,0.9889082909475018,-0.0336879047681479,right,-0.004571795463562,0.1847399376016923,2.2453280265063045,-9.374639808204767,0.0935560125184407,0.0370156355202198,0.0054186433553695,-1.8013922729872167,-0.0059532672166824
2025-04-30 01:24:06.296988400,9.184988525390626,0.2341184369783873,0.0133262574672698,0.1147298656344303,-0.0170096289366483,-0.0056896869769451,0.988909825091283,-0.0334367728640206,right,-0.0028836131095886,0.1859536192977838,2.2357810304820536,-9.374666111689804,0.0941386899210302,0.0295922383666038,0.0040623247623443,-1.8130904556959864,-0.0076874196529388
2025-04-30 01:24:06.336988400,9.224988525390623,0.2328915918454131,-0.0016370080411434,0.1141221713096088,-0.0342425256967544,-0.0056258756988464,0.9889507283504096,-0.0332688675033148,right,-0.0009406805038452,0.1866111101171642,2.224002476013452,-9.376240229138732,0.0944506038537855,0.0114342905580997,-0.0021190345287323,-1.819426672980189,0.0004167705774307
2025-04-30 01:24:06.376988400,9.264988525390624,0.231176471997912,-0.0107422387227416,0.1132523867446742,-0.0419077612459659,-0.0058276879524819,0.9890236323201238,-0.0335749912019457,right,0.0033800601959228,0.1871365167786738,2.2076985530748963,-9.379109062573312,0.0947227977716368,0.0111903976649045,-0.0033088475465774,-1.8244895093277096,-0.0025064796209335
2025-04-30 01:24:06.416988700,9.30498876953125,0.229690364279103,-0.0277483463287353,0.1124833476137198,-0.0307899992913007,-0.0062604737944256,0.9891066261180248,-0.0343041915858569,right,0.0040376186370849,0.1871058079336548,2.193770565487444,-9.38243440760374,0.0947442835057121,-0.0026375586166977,-0.0010301619768142,-1.824193595121056,0.0001505315303802
2025-04-30 01:24:06.456988700,9.34498876953125,0.229232191666842,-0.0252977479249238,0.1122198506394568,0.003702962771058,-0.0067463753763384,0.9891470108092492,-0.0351976191214609,right,0.0034229159355163,0.1867189236662437,2.189631712117046,-9.384124844908714,0.0946017152938036,-0.0093874773010611,-0.0002830475568771,-1.8204656606391072,-0.0014096200466156
2025-04-30 01:24:06.496988400,9.384988525390623,0.2297863001078324,-0.0095610916614532,0.1124761720643823,0.015498655848205,-0.0070258996252614,0.9891405059444464,-0.0357473366955117,right,-0.0025799870491027,0.1861338946361091,2.195073464779556,-9.38394598121047,0.0943452687704665,-0.0141442101448774,-0.0008431524038314,-1.81482794701308,-0.0039857178926467
2025-04-30 01:24:06.536988400,9.424988525390624,0.2304881545993886,-0.0028908695094287,0.1128272538714841,0.0155722480267286,-0.0069991423033665,0.9891114315840338,-0.0357329475108612,right,-0.0022938251495361,0.1859019252373495,2.201755134500563,-9.382812593266369,0.0942322450535942,-0.0002510584890842,-0.0009104311466217,-1.8125922969155013,-0.000874325633049
2025-04-30 01:24:06.576988400,9.464988525390623,0.2311870028221316,-0.0123075861483812,0.1131444573451629,0.0245960429310798,-0.0071905196926915,0.9890542540094353,-0.0362282079748691,right,0.0030839443206787,0.1862559367439241,2.208164563151449,-9.380646355143188,0.0944377055258215,0.0122340871021151,0.0002611726522445,-1.8160040050551292,-0.0036747157573699
2025-04-30 01:24:06.616988400,9.504988525390624,0.2318724518592058,-0.0031289011240005,0.1134722127838194,0.0168029889464378,-0.0073053560729611,0.9890208493930956,-0.0365090434805587,right,-0.0029290914535522,0.1861133945049949,2.214653486779332,-9.379382034295796,0.0943856365919138,-0.0178915709257125,-8.21202993392e-05,-1.814630378614366,-0.0033295303583145
2025-04-30 01:24:06.656988400,9.544988525390623,0.2324107862399816,0.0040257638320326,0.1137568066288845,0.0121177993714809,-0.0072497999285256,0.98902574955106,-0.036356058175942,right,-0.002091109752655,0.1853362655541775,2.2200265581198035,-9.379557975384593,0.0939947615047177,-0.0210909880697727,-0.0003836601972579,-1.807140315119922,-0.0008866488933563
2025-04-30 01:24:06.696988700,9.58498876953125,0.2324573707908832,0.033108502626419,0.1138254954943043,0.0010072197765111,-0.0068270616588096,0.989039227899586,-0.0354713722528321,right,-0.0041958689689636,0.1850469155330033,2.22058389974162,-9.379963049054146,0.0938015552982181,-0.0118733821436762,0.0043962150812149,-1.8043512689232823,-0.0023872107267379
2025-04-30 01:24:06.736988700,9.62498876953125,0.2317602441104561,0.0381497368216514,0.1135533234385722,-0.0218925904482603,-0.0060614100323162,0.9890766863083652,-0.0338760757619725,right,-0.0063816905021667,0.1852081809752408,2.213977341083437,-9.381225616335868,0.0937883519264879,0.0047113383188843,0.0037565678358078,-1.805905804888904,-0.0001394301652908
2025-04-30 01:24:06.776988400,9.664988525390624,0.2306432597272841,0.0229697003960609,0.1130406424922395,-0.024126149713993,-0.0055272713894032,0.989105366572421,-0.0327884465605085,right,-0.0007975101470947,0.186045785441628,2.2031508266426623,-9.382216965460776,0.0941375874023387,0.0211762711405754,0.0006455034017562,-1.8139787828378375,-0.0023849755525588
2025-04-30 01:24:06.816988400,9.704988525390624,0.2301722514608772,0.0147220799699425,0.1128297111422225,-0.0125117385759949,-0.005147720768445,0.98909483505241,-0.0320771813890279,right,0.0002527236938476,0.1869085231888156,2.198373529238254,-9.38172655159533,0.0945226782488022,0.0141321141272783,-2.02655792236e-05,-1.8222925838053223,-0.0009341537952423
2025-04-30 01:24:06.856988400,9.744988525390625,0.2297005044134816,0.0064744604751467,0.1126187408789797,-0.000897329300642,-0.0047681609112276,0.98908382307313,-0.0313653668019817,right,0.0013022422790527,0.1877708817887806,2.193588925310224,-9.381228538945315,0.0949077258293333,0.0070879575796425,-0.000685229897499,-1.8306015624672172,0.0005161017179489
2025-04-30 01:24:06.896988400,9.784988525390624,0.2298352389018833,0.0072999857366085,0.1126927880254055,0.0092477966099977,-0.0045715589754042,0.989050395677848,-0.0310487755181493,right,0.0004829168319702,0.1883529705174743,2.194609792790562,-9.379894075471162,0.0951779676228507,0.0063957842066884,-0.0012617707252502,-1.8362091732159256,-0.0020373612642288
2025-04-30 01:24:06.936988700,9.82498876953125,0.2300609782865833,-0.0037568723782896,0.1128055375096745,0.0056249434128403,-0.0044624507188632,0.9890175083416816,-0.0309022995792498,right,-0.0004249215126037,0.1888012323563626,2.1965391534179446,-9.378595852354168,0.0953918112514083,0.0046538524329662,-0.0021302103996276,-1.8405271825455127,0.0016861706972122
2025-04-30 01:24:07.090866200,9.9788662109375,0.2307612853113042,0.0144054172560572,0.1131393647978334,0.0242404174059629,-0.0043993890278654,0.9889400829029238,-0.0309386366869072,right,-0.0038798991590738,0.1896220642232106,2.2027602198898792,-9.375581472969056,0.0958011705664054,-0.0014689052477478,0.0033126482740044,-1.8484331333644688,-0.0025293605867773
2025-04-30 01:24:07.130768400,10.018768310546877,0.2312967117820594,0.0135354418307542,0.1134380668279176,0.0125806452706456,-0.0039989878240892,0.9889054046146496,-0.0301956150031488,right,-0.0047074137255549,0.1897486860760039,2.207726171734184,-9.37417277521491,0.0958228014980194,-0.0102390749379992,0.001718764193356,-1.8496525921568276,0.0049474397674202
2025-04-30 01:24:07.170768400,10.058768310546874,0.2311304476252535,-0.0014667529612779,0.1133480442480781,-0.0072662504389882,-0.0041885801039684,0.9889384602448557,-0.0305011678737399,right,-0.006152868270874,0.1892230336871875,2.20638995469436,-9.375485026857255,0.0955799557627718,-0.0019853878766298,0.0021861642599105,-1.844590048070252,0.0043757110834121
2025-04-30 01:24:07.210768100,10.09876806640625,0.2305422413891105,-0.0136460913345217,0.1130341125359861,-0.0150381084531545,-0.0045457448261697,0.988991915942154,-0.0311119108451217,right,-0.0029531121253967,0.1887564377098661,2.201071390020102,-9.377617947232723,0.095382586676821,-0.0046087801456451,0.0015311688184738,-1.840095805390924,0.0056148171424865
2025-04-30 01:24:07.250768400,10.138768310546874,0.2298819847132708,-0.0198756996542215,0.1126780977875071,-0.01729142293334,-0.0050212481168427,0.9890595197105504,-0.0319272705336779,right,-0.0007528066635131,0.188050748367444,2.195174587066472,-9.380331297844648,0.0950781675230119,-0.0054375459440052,0.0024276673793792,-1.833297815813869,0.0044456124305725
2025-04-30 01:24:07.290768400,10.178768310546875,0.2297035260668125,-0.0243171211332082,0.1125508397319067,-0.0058191670104861,-0.0055375830529358,0.989090566222187,-0.0328939234343419,right,-0.0021373033523559,0.1875350852820466,2.193715474299341,-9.381641795921324,0.0948771996497095,0.0033577471040189,0.0032956600189208,-1.8283298181429504,0.0029086172580718
2025-04-30 01:24:07.330768400,10.218768310546874,0.2298990842463718,-0.0253233574330806,0.1125727841938804,-0.0045384047552943,-0.0062225770316637,0.9890562167310684,-0.0343468400829604,right,-0.0021164417266845,0.1879540553521312,2.195375370335579,-9.380466322401166,0.0951666635607747,0.0162800196558237,-0.0012720376253128,-1.832366234052181,-0.0016609132289886
2025-04-30 01:24:07.370768400,10.258768310546875,0.2300952132012123,-0.026329593732953,0.1125946465651729,-0.0032576427329331,-0.0069075804322919,0.9890212034102852,-0.0357999755166132,right,-0.002095878124237,0.1883727122410042,2.1970399425469336,-9.379287926271555,0.0954560704356507,0.029202289879322,-0.0058402270078659,-1.8363994350910189,-0.0062307566404342
2025-04-30 01:24:07.410768400,10.298768310546874,0.2301991703055987,-0.0347381085157394,0.1125652771888731,-0.0064935651607811,-0.0076390979218102,0.988987896895397,-0.0373453172766208,right,-0.0022616386413574,0.1888500755028628,2.197814726311713,-9.378204807209968,0.0957793996151922,0.0239776074886322,-0.0029225647449493,-1.8409977226667105,-0.0067690163850784
2025-04-30 01:24:07.450768100,10.33876806640625,0.2304370871162421,-0.0341588370501995,0.1125984070919338,0.0082916133105754,-0.0083912340026613,0.988944743953972,-0.0389492812355947,right,0.0026670694351196,0.18935942442032,2.199831326831132,-9.376767467883228,0.0961224015124448,0.0219968538731336,0.0005734860897064,-1.84590361488685,-0.0074627995491027
2025-04-30 01:24:07.689400300,10.577400390625,0.2318297162154008,0.0451864413917064,0.1135779048992954,0.0237338822335004,-0.0056990215572998,0.9889707475130164,-0.033419497785925,right,-0.0049177622422575,0.1874936561393216,2.213675143266469,-9.377030502733588,0.0948924072899023,-0.0377759560942649,-0.0022219140082597,-1.8279305896922944,0.0072728730738162
2025-04-30 01:24:07.729336800,10.6173369140625,0.2325482431117517,0.0197460725903511,0.1140224544754844,0.0259324572980403,-0.0048442532651834,0.9889597812769684,-0.031693680979047,right,0.008822669275105,0.1869348034168709,2.2206471742361784,-9.37642961423099,0.094519861825244,-0.0094677684828639,-0.0072092092595994,-1.8225458279140287,0.0135978050529956
2025-04-30 01:24:07.769336600,10.657336669921875,0.2324865273442928,0.00828193500638,0.1140276741596261,-0.0073238089680671,-0.0045168649892725,0.9889751330835882,-0.0309992238515895,right,3.54051589965e-05,0.1867108305726084,2.220162605589628,-9.376963867238164,0.0943694082238279,-0.0107711665332317,-0.004407599568367,-1.820387626966834,0.0054229795932769
2025-04-30 01:24:07.809336600,10.697336669921874,0.2314824131954783,0.0029773185960948,0.1135480279544491,-0.0299142803996801,-0.0044658581373969,0.9890512833739322,-0.0307525640511073,right,-0.0035182237625122,0.1863054556191365,2.210915030903369,-9.379905765908957,0.0941527188595273,-0.0030733575113117,-0.0022862702608108,-1.8164812671780584,-0.0035336017608642
2025-04-30 01:24:07.849336600,10.737336669921875,0.2304518745251608,-0.0028505837544798,0.113033735707784,-0.019433744251728,-0.0045298921227209,0.9891015877493972,-0.0308041527013479,right,-0.0024958848953247,0.1864778805538841,2.2011758733078834,-9.38187443563342,0.094238578754226,-0.0225690975785255,-0.0006031095981597,-1.818142916779965,-0.0020445436239242
2025-04-30 01:24:07.889336600,10.777336669921874,0.2294213983955384,-0.0086784865707159,0.1125194308453944,-0.0089532062411308,-0.0045939175795937,0.98915183313351,-0.0308555553863493,right,-0.0014747381210327,0.1866504194988817,2.1914355466686186,-9.38383199944198,0.0943244217689738,-0.0420648381114006,0.0010802000761032,-1.8198055892951783,-0.000555396080017
2025-04-30 01:24:07.929336600,10.817336669921875,0.2293573776851729,-0.0041571538895368,0.1125070282855289,0.0147610697895288,-0.0046430888877719,0.9892136812241068,-0.030799139596251,right,0.000719666481018,0.1853663272749962,2.191364234998077,-9.38624022962749,0.0936862082073388,-0.0556272976100444,0.0005063712596893,-1.807430091846734,-0.0010205954313278
2025-04-30 01:24:07.969336800,10.8573369140625,0.2301179172908434,-0.0069487299770116,0.112903786316604,0.0071342964656651,-0.0045145604632174,0.9892002836252148,-0.0305360764979954,right,-0.0035449862480163,0.1847231824128047,2.198766912470013,-9.385700715923308,0.0933551361840318,-0.0332855060696601,0.00177563726902,-1.8012306526847182,0.0002956688404083
2025-04-30 01:24:08.009336800,10.8973369140625,0.2308786129569386,-0.0097403060644865,0.1133005306658991,-0.0004924763925373,-0.004386029729598,0.9891867659115052,-0.030272554469616,right,-0.0078107118606567,0.1840802991552991,2.206170466724783,-9.385150680825111,0.0930240546546932,-0.0109437201172113,0.0030448287725448,-1.7950331132188435,0.0016121268272399
2025-04-30 01:24:08.049336600,10.937336669921876,0.2308786129569386,-0.0174408182501792,0.1133005306658991,-0.0149256270378828,-0.004386029729598,0.9891867659115052,-0.030272554469616,right,-0.0054570436477661,0.1840802991552991,2.206170466724783,-9.385150680825111,0.0930240546546932,0.0078844781965017,0.0022714585065841,-1.7950331132188435,0.0024619400501251
2025-04-30 01:24:08.208179500,11.096179443359375,0.2310435797718926,0.0339425206184387,0.1132795952134087,0.0415027178823947,-0.0050076447046273,0.9890692553167632,-0.0318175942938484,right,0.0006826011231169,0.1864012803405994,2.2067586418762803,-9.380705976375936,0.0942594508179377,0.0023507138248533,-0.0001138453371822,-1.817404665633291,0.0006890349322929
2025-04-30 01:24:08.248179500,11.136179443359374,0.2320650376228631,0.0196105763316154,0.1138196520778071,0.0241757556796073,-0.0044872249658685,0.9889888131692304,-0.0309264430634358,right,-0.0024109482765197,0.1869428807016731,2.216112891807407,-9.377487598851324,0.0944790170020367,-0.003712774021551,0.0037530362606048,-1.82262371545583,0.0016181170940399
2025-04-30 01:24:08.288179700,11.1761796875,0.2324429485958537,0.0196202117949724,0.1140311864790676,0.0187602378427982,-0.0042216775648196,0.988970773493984,-0.030419174823594,right,-0.0010788440704345,0.186889102348645,2.219679059856385,-9.376744671529533,0.0944243663142316,0.0026379863265901,0.0040319412946701,-1.822105536800623,-0.0001162141561508
2025-04-30 01:24:08.328179700,11.2161796875,0.2328209121245842,0.0196298491209745,0.1142427071985465,0.0133447181433439,-0.0039561449116089,0.9889527316866248,-0.0299119231490927,right,0.0002530813217163,0.1868355343612859,2.223245520166308,-9.37599999064207,0.0943697061203949,0.0089887473732233,0.0043108314275741,-1.8215894039720293,-0.001850351691246
2025-04-30 01:24:08.368179500,11.256179443359375,0.2330581951895427,0.0183358285576105,0.1143834806508933,-0.0037382636219263,-0.0035470107782713,0.9889041996223772,-0.0292014398671659,right,-0.0060458183288574,0.187631865653043,2.225134548783302,-9.374057624402642,0.0947231736781335,0.0061968956142663,0.0074840784072875,-1.8292621305570005,-0.0035828649997711
2025-04-30 01:24:08.408179500,11.296179443359376,0.2332949454999699,0.0170418079942464,0.1145242130578983,-0.0208212435245513,-0.0031378867746422,0.988855425196382,-0.028491063728819,right,-0.0123453736305236,0.1884283756096121,2.227016270876676,-9.372110581988096,0.0950766127177773,0.0034050438553094,0.0106580853462219,-1.8369355877943336,-0.0053153336048126
2025-04-30 01:24:08.448179500,11.336179443359375,0.2299760602107171,0.0001417603343725,0.112888042851283,-0.0715053379535675,-0.0032779893668249,0.9890523994976768,-0.0284343399562525,right,-0.0052931904792785,0.1882486165337215,2.1959743591420358,-9.379771325874328,0.0949792103687554,0.0021170687396079,0.006874069571495,-1.835203941696137,-0.0045813620090484
2025-04-30 01:24:08.488179500,11.376179443359376,0.2266573480246097,-0.0167582854628562,0.1112515791079011,-0.1221894323825836,-0.0034180854030956,0.989246724876653,-0.0283782342045974,right,0.001748502254486,0.1880686855614768,2.164907605227083,-9.387329193907975,0.0948815472696064,0.0008290936239063,0.0030926018953323,-1.8334705420322717,-0.0038475543260574
2025-04-30 01:24:08.528179700,11.4161796875,0.2229824844159061,-0.0075182449072599,0.1094161214967495,-0.0934311151504516,-0.0037586738046845,0.9894445257370948,-0.0287248911405781,right,0.0004170536994934,0.1881622368969834,2.130357977632433,-9.395054235202071,0.0949403428140909,-0.0169072803109884,0.0002561807632446,-1.834371874786168,-0.0030627697706222
2025-04-30 01:24:08.687019300,11.575019287109376,0.2232409660617703,-0.0039881058037281,0.1100962968238048,0.0384280122816562,0.0012970418227965,0.9896491363580148,-0.0180031252308709,right,-0.0100087709724903,0.1834939585815437,2.1346590358272195,-9.402751219445468,0.0920429155527742,-0.0593929551541805,0.0001028808765113,-1.78937990976274,0.0320774689316749
2025-04-30 01:24:08.727019300,11.615019287109376,0.2220347970082515,-0.0370241738855838,0.1094457609979773,-0.0026195906102657,0.0003855141573227,0.9897931830749788,-0.0195391906349051,right,-0.0047961473464965,0.1817695378006786,2.123992534253746,-9.408315283313392,0.0912745501465619,-0.0272687338292598,-0.0010624527931213,-1.7727502620011566,0.0225603431463241
2025-04-30 01:24:08.767019300,11.655019287109376,0.2210858565043098,-0.0505252704024314,0.1088835513732133,-0.0100479377433657,-0.0008212780652267,0.9898871354461564,-0.021783166671773,right,-0.0039937496185302,0.1808151615823749,2.11543367248401,-9.411973221299052,0.0909246854190976,0.0016419570893049,0.0010726749897003,-1.7635444806300102,0.0103255063295364
2025-04-30 01:24:08.807019500,11.69501953125,0.2206421819283877,-0.0627619549632072,0.1085595403010275,-0.008085323497653,-0.0020117192933935,0.9899182889889608,-0.0241255684022551,right,-0.0011234283447265,0.180618509991474,2.1113333975583317,-9.413248648062348,0.0909543953996943,0.0084603782743215,0.0034292489290237,-1.7616474148370325,0.0099661499261856
2025-04-30 01:24:08.847019500,11.73501953125,0.2201980658065047,-0.0749986320734024,0.1082353682456509,-0.0061227083206176,-0.0032021537800069,0.98994793789838,-0.0264679687518222,right,0.0017465949058532,0.1804228876660836,2.107227861935645,-9.414521736738084,0.0909839691861556,0.0152788013219833,0.0057864189147949,-1.759760139785707,0.0096077620983123
2025-04-30 01:24:08.887019500,11.77501953125,0.2202136750081482,-0.0822211727499961,0.108103717042523,-0.0143421022221446,-0.0047340205002203,0.9899450281228456,-0.029553901970457,right,0.0022050738334655,0.1803303107863347,2.1074103788957,-9.414647993466255,0.0911050932820357,0.0152559801936149,0.0024017244577407,-1.758866990338266,0.0005849152803421
2025-04-30 01:24:08.927019300,11.815019287109376,0.22046751845496,-0.0800803378224372,0.1080820375742857,-0.0007006609812378,-0.0063509762126309,0.9899287328919248,-0.032827449154574,right,0.0086919665336608,0.1801819929170827,2.109857187525928,-9.41436683843732,0.091209331511843,0.0134538253769278,0.0014266222715377,-1.757436080752313,-0.0044084787368774
2025-04-30 01:24:08.967019300,11.855019287109377,0.2209841717106344,-0.0704925432801246,0.1082020721133041,0.0049623474478721,-0.0079697072632515,0.9899255507988968,-0.0360520868040811,right,0.0088775753974914,0.1793514577968452,2.115040143121779,-9.414696508783102,0.0909745935937357,-0.0056106904521584,0.0012718141078948,-1.7494225779056547,-0.0096617192029953
2025-04-30 01:24:09.007019300,11.895019287109376,0.2214980027555242,-0.0609047450125217,0.1083218109834439,0.0106253558769822,-0.0095884084816703,0.9899196629243108,-0.0392757845255763,right,0.0090630650520324,0.1785192794306038,2.120196502971649,-9.415025594606997,0.0907396096733393,-0.0246752053499221,0.0011197179555892,-1.7413919777937232,-0.0149167031049728
2025-04-30 01:24:09.047019500,11.93501953125,0.2223723371889555,-0.0152198933064937,0.1087003989869811,0.0215211659669876,-0.0104123853784291,0.989917495217982,-0.0408800683201821,right,0.0018116235733032,0.1772791681335054,2.1289022258661685,-9.415267002147436,0.0902174688999874,-0.0361850298941135,-0.0019483864307403,-1.7294225769281386,-0.0170376896858215
2025-04-30 01:24:09.205862700,12.093862548828126,0.2228530194850437,0.0397814810276031,0.10918416893631,-0.0251215398311615,-0.0088979228996978,0.9901510774125348,-0.0372128386484812,right,-0.0038140541873872,0.1715421987993361,2.1355853568919003,-9.42376419685781,0.0871812107725345,-0.0140438694506883,-0.0121195027604699,-1.6740157470047472,0.0156167261302471
2025-04-30 01:24:09.245768000,12.133767822265623,0.2224278132363625,0.0450266674160957,0.1090426098504496,0.0271349884569644,-0.0082105947820799,0.9901959422616148,-0.0357453154071536,right,0.0052649127319455,0.1711729884678718,2.1317143606774507,-9.42527343237698,0.0869165959982704,-0.0013953174930065,-0.0252747070044279,-1.6704481176510453,0.0002967567706946
2025-04-30 01:24:09.405392100,12.29339208984375,0.2398863316026902,0.1126408576965332,0.1177903630419396,0.0683591142296791,-0.0059052052587302,0.9891544947732764,-0.0327996628917854,right,-0.0222130380570888,0.1726561637030292,2.2953413268230856,-9.38420550892949,0.0875448563003755,0.1006368398666381,0.0022290186025202,-1.6847786946900187,-0.052365992218256
2025-04-30 01:24:09.445392100,12.33339208984375,0.2390595282056191,0.0797686800360679,0.1175703378108215,0.0371151529252529,-0.0039504999033306,0.9892441301754868,-0.0286847662210051,right,-0.0101628899574279,0.1719171009955401,2.287875813248008,-9.387307566598055,0.0869352774109491,0.0782940089702606,-0.0026911944150924,-1.6776381752856075,-0.0304290652275085
2025-04-30 01:24:09.485392100,12.37339208984375,0.2382359271211894,0.0468965023756027,0.1173498084859498,0.0058711916208267,-0.001995781250465,0.9893296120219924,-0.0245710265220311,right,0.0018858909606933,0.171174707040905,2.2804368954189123,-9.390396180263162,0.0863253320505166,0.0559511855244636,-0.0076141059398651,-1.6704646303944288,-0.0084955096244812
2025-04-30 01:24:09.525392100,12.41339208984375,0.2373643278080059,0.0013527423143386,0.1169610898923067,-0.0106599144637584,-0.0013336656128892,0.9893331916693062,-0.0232959409078437,right,0.0037278532981872,0.1723342300569584,2.271794447018951,-9.39049145733118,0.0868233488335867,0.0747388005256652,-0.0058286190032958,-1.6816684537149964,-0.0045451968908309
2025-04-30 01:24:09.684733700,12.572733642578124,0.2368509749258857,-0.0528236292302608,0.116492511055712,0.0488617420196533,-0.0045209355541711,0.9895053617826598,-0.0292565409912637,right,0.0068135070614516,0.1686955888982933,2.268394283186644,-9.39754196036458,0.0853708906411299,-0.0545012466609478,0.0019207840086892,-1.646503032309562,-0.0022803088650107
2025-04-30 01:24:09.724639700,12.6126396484375,0.2390149946362046,-0.0162931121885776,0.1175446370371346,0.0489678643643856,-0.0049330749917048,0.9894348174698896,-0.0301036822986379,right,-0.0004704660386778,0.1672720636737378,2.289277935130894,-9.394878878635168,0.084721509934539,-0.0191194079816341,0.0036174894776195,-1.6327394415035843,-0.001704374095425
2025-04-30 01:24:09.764639700,12.6526396484375,0.2392954822816838,-0.0272121168673038,0.1176525337806467,0.0183965098112821,-0.0054629776746045,0.9894511951470988,-0.0310927176736281,right,-0.0010082125663757,0.166398681800193,2.292250082809478,-9.39561829882562,0.0843484359950408,-0.0233161393553018,0.005049705505371,-1.6242935385890305,-9.0152025222e-06
2025-04-30 01:24:09.804639700,12.6926396484375,0.2395749608251813,-0.03813112154603,0.1177603621152593,-0.0121748466044664,-0.0059928750315665,0.9894669111267568,-0.0320813456301918,right,-0.0015464425086975,0.1655249654414326,2.29521185522452,-9.396352458319068,0.083975314525385,-0.0275128725916147,0.0064829736948013,-1.615842959499359,0.0016858875751495
2025-04-30 01:24:09.844639700,12.7326396484375,0.2385921542284384,-0.0327288880944252,0.1172349688090302,-0.0202598348259925,-0.0067473489862337,0.9895672960900802,-0.0333807345146512,right,0.0018836259841918,0.1643525188520848,2.2864221073083577,-9.400437681806087,0.0834686334445175,-0.0182945504784584,0.0052927583456039,-1.6045011890128251,0.0007137358188629
2025-04-30 01:24:09.884639700,12.7726396484375,0.2376080142137319,-0.0273266546428203,0.1167094534328369,-0.0283448249101638,-0.0075018021593172,0.989666600020048,-0.0346810139669428,right,0.0053116679191589,0.1631813395125441,2.27761029369086,-9.404503616070746,0.0829618594354468,-0.0090762246400117,0.0041047781705856,-1.5931696476593613,-0.0002574473619461
2025-04-30 01:24:09.924639700,12.8126396484375,0.2367570686158291,-0.0202945955097675,0.1162565117976867,-0.023961616680026,-0.0080735388640213,0.9897401050070616,-0.0356801421290473,right,0.0019525289535522,0.1624760321988002,2.2698697625666857,-9.407528516849874,0.0826678258229883,-0.0034056454896926,0.0023736506700515,-1.5863443316839634,-0.0014805644750595
2025-04-30 01:24:09.964639700,12.8526396484375,0.2361612239454476,-0.0147377829998731,0.1159356755887387,-0.0211641583591699,-0.0084838992226894,0.989784725884426,-0.0364194814850999,right,0.000278890132904,0.1621421583816466,2.26438782402426,-9.409393726199864,0.0825431053624202,-0.0077201011590659,0.0023432821035385,-1.5831132408082484,-0.0017038881778717
2025-04-30 01:24:10.004639700,12.8926396484375,0.2355651433503949,-0.0091809686273336,0.1156147972683932,-0.018366701900959,-0.0088942759304524,0.9898290432765776,-0.0371590186106647,right,-0.0013952255249023,0.1618087176754066,2.258901647698134,-9.411254259374736,0.0824183637576765,-0.0120345568284392,0.0023133307695388,-1.579886095455289,-0.0019267946481704
2025-04-30 01:24:10.044639700,12.9326396484375,0.235270754424599,-0.0178569853305816,0.1154371551702628,-0.0134758204221725,-0.0093935527924779,0.989859364005093,-0.0380892249399735,right,-0.0020195841789245,0.1613569136549004,2.256297164288163,-9.41261210372448,0.0822472250395149,-0.0074692266061902,0.0012736320495605,-1.575513141068071,-0.0020994395017623
2025-04-30 01:24:10.084639700,12.9726396484375,0.2349760234930124,-0.0265330038964748,0.1152595004564103,-0.008584938943386,-0.0098928102885356,0.9898894466360868,-0.0390194720421953,right,-0.0026441812515258,0.1609054125672173,2.2536882969640195,-9.413967609986662,0.0820760694414029,-0.0029038959182798,0.0002343654632568,-1.5711428170293569,-0.0022718459367752
2025-04-30 01:24:10.124639700,13.0126396484375,0.2348543412983725,-0.0193162057548761,0.1151660735246815,-0.0038881413638591,-0.0103972258727474,0.9899078227307544,-0.0399781541827282,right,-0.0013081431388854,0.1604841879731763,2.2526965094476936,-9.41488472483158,0.0819222775758346,-0.0026090459432452,0.0005578249692916,-1.5670651923269032,-0.0024481564760208
2025-04-30 01:24:10.164639700,13.0526396484375,0.2350190592227072,-0.0114362221211195,0.1152284963090165,0.0049683451652526,-0.0107340732265197,0.9899133261886148,-0.0406154619129604,right,-0.0008335709571838,0.1600087281258704,2.254420556761324,-9.415236607009172,0.0817246122493687,-0.0049670860171318,-0.000593677163124,-1.5624622285760938,-0.001866266131401
2025-04-30 01:24:10.204639700,13.0926396484375,0.2353238138827658,-0.0009265104308724,0.1153761859574209,0.0107987653464078,-0.0107648074544184,0.989896175574182,-0.0407001482023507,right,-0.0006968975067138,0.1599872848763283,2.257297573502361,-9.414581942492722,0.0817205191462812,0.0030598053708672,-0.0024591386318206,-1.5622545771747829,-0.0014362782239913
2025-04-30 01:24:10.244639700,13.1326396484375,0.2353238138827658,0.0095832012593746,0.1153761859574209,0.016629185527563,-0.0107648074544184,0.989896175574182,-0.0407001482023507,right,-0.0004934072494506,0.1599872848763283,2.257297573502361,-9.414581942492722,0.0817205191462812,0.0110866976901888,-0.0040312260389328,-1.5622545771747829,-0.0009851157665252
2025-04-30 01:24:10.284639500,13.172639404296875,0.2360120096019333,0.0023064645938575,0.1157051745354235,0.0196893066167831,-0.010720226302427,0.989830773115546,-0.0407460685757009,right,-0.0009315609931945,0.1606461850298618,2.2635350065872077,-9.412023490181564,0.0820528521248437,0.0266428515315055,-0.0029772669076919,-1.56863331842646,0.0021447837352752
2025-04-30 01:24:10.443060500,13.331060546875,0.2388500829946939,0.0023303229827433,0.1169563177059463,-0.0014832342276349,-0.011228595200253,0.989460130826662,-0.0426145846538785,right,-0.0053370832465589,0.1656242166409662,2.288361989329755,-9.39785760218501,0.0846393617992567,0.0217490550130605,0.0071247955784201,-1.6168030367031692,0.0009281490929424
2025-04-30 01:24:10.482969000,13.370968994140624,0.2384162946869477,0.0167531091719865,0.1167361091610411,-0.0247966609895229,-0.0111786487360822,0.9894637381858608,-0.0425440288285681,right,-0.0026739006862044,0.1661797233138231,2.2840726215727627,-9.397975091084838,0.0849075183791081,0.0173860173672437,0.0048734992742538,-1.622175815782696,-0.0034662070684134
2025-04-30 01:24:10.642604000,13.53060400390625,0.2360966583718533,-0.0293663032352924,0.1155488818892592,-0.0220875442028045,-0.010842059776368,0.9894489830375892,-0.042116744983017,right,-0.0029389671981334,0.1699355838629577,2.260825601498037,-9.39725846724808,0.0867272794575067,0.0253186170011758,-0.0039223306812345,-1.6584893843099473,0.0008793874876573
2025-04-30 01:24:10.682604300,13.570604248046877,0.2366487407709874,-0.0167333502322435,0.1157746244691634,-0.0058914087712764,-0.0112274042805546,0.9893897200825764,-0.0430104131486956,right,-0.0029006600379943,0.1704852886555863,2.2657991521269083,-9.395120870697498,0.0870538250828924,0.0199714340269565,-0.0009699165821075,-1.6638022498957812,0.0004054754972457
2025-04-30 01:24:10.722604300,13.610604248046876,0.2372013064473728,-0.0041003981605172,0.1160003112558901,0.0103047303855419,-0.0116127480769333,0.9893300356596468,-0.0439044723498246,right,-0.0028628706932067,0.1710344790040755,2.27077518697381,-9.392978013449907,0.0873803400580708,0.0146242510527372,0.0019823014736175,-1.669109562523663,-6.90221786499e-05
2025-04-30 01:24:10.762604300,13.650604248046877,0.2379037480400216,0.0029238071292638,0.116344787352385,0.0124566471204161,-0.0115814785753742,0.9892831849885052,-0.0439207187754869,right,-0.0014494061470031,0.1711779715306405,2.277316279180348,-9.391147875413298,0.0874563088530517,0.0046359784901142,0.0016813874244689,-1.670496194576472,-0.0008999109268188
2025-04-30 01:24:10.802604300,13.690604248046874,0.2386062282543988,0.0099480124190449,0.1166892497670991,0.0146085638552904,-0.0115502152932018,0.9892362731938984,-0.0439370855127887,right,-3.65376472473e-05,0.1713214657962859,2.2838560562126338,-9.389312476679684,0.087532268142001,-0.0053522950038313,0.0013806074857711,-1.671882826629281,-0.0017307996749877
2025-04-30 01:24:10.842604300,13.730604248046877,0.2394142898374046,0.0083568654954433,0.1171082645934284,0.0086029395461082,-0.0113740655637026,0.9892043456020608,-0.0436127800431911,right,-0.0017333030700683,0.1709967157881217,2.2915711606346068,-9.38799145720899,0.0873573835846283,-0.0161773040890693,0.0003119856119155,-1.668744674734026,-0.0006152838468551
2025-04-30 01:24:10.882604000,13.77060400390625,0.2394142898374046,0.002568305004388,0.1171082645934284,0.0026050033047795,-0.0113740655637026,0.9892043456020608,-0.0436127800431911,right,-0.0014391541481018,0.1709967157881217,2.2915711606346068,-9.38799145720899,0.0873573835846283,-0.0025233598425984,-5.84423542022e-05,-1.668744674734026,-0.0023957788944244
2025-04-30 01:24:10.922604300,13.810604248046875,0.2394142898374046,-0.0032202554866671,0.1171082645934284,-0.0033929324708878,-0.0113740655637026,0.9892043456020608,-0.0436127800431911,right,-0.0011450052261352,0.1709967157881217,2.2915711606346068,-9.38799145720899,0.0873573835846283,0.0111305844038724,-0.0004288703203201,-1.668744674734026,-0.0041762739419937
2025-04-30 01:24:10.962604300,13.850604248046874,0.240468771915147,-0.0100357746705412,0.1175650502940431,0.017821816727519,-0.0117041964653669,0.9890766402851888,-0.0445531008047383,right,-3.2782554626e-06,0.1724610537949395,2.300884932424873,-9.383186102753877,0.0881425226263892,0.0308794565498828,0.0020994693040847,-1.6828936115957795,-0.0063799172639846
2025-04-30 01:24:11.002604300,13.890604248046875,0.2415249376320217,-0.0168512929230928,0.118021727606473,0.0390365645289421,-0.0120343174229639,0.9889480330411304,-0.0454952336318207,right,0.0011352896690368,0.1739244204027094,2.310202211346477,-9.37834976863861,0.0889275782459785,0.0506283268332481,0.0046274214982986,-1.69702968897596,-0.0085848718881607
2025-04-30 01:24:11.161384200,14.04938427734375,0.2479334181346239,0.0678183063864708,0.1213312228612054,0.021789813414216,-0.0090951543608987,0.9883947880460168,-0.0407073981233681,right,-0.0028223865665495,0.1785286275676248,2.368312893401086,-9.355678502625226,0.0909499090054189,-0.0478754751384258,0.0040398375131189,-1.7414821402952074,0.0020794398151338
2025-04-30 01:24:11.201384200,14.08938427734375,0.2473783500622814,0.0307792797684669,0.1210752768278926,0.0046208836138248,-0.0091228788864989,0.9884664818449854,-0.040602011648327,right,-0.0017738342285156,0.1776531281935111,2.363491902985424,-9.358466087517142,0.0905085002630201,-0.0324200727045536,0.001932755112648,-1.7330322918578982,0.0016186237335205
2025-04-30 01:24:11.241384000,14.129384033203126,0.2468234649549891,-0.0062597468495368,0.1208193034310205,-0.0125480480492115,-0.0091506050133559,0.9885378742908546,-0.0404971449865865,right,-0.0007262825965881,0.1767775734527841,2.35866842835173,-9.36124432005882,0.0900670725085584,-0.0169646702706813,-0.0001740604639053,-1.7245805437244477,0.0011576116085052
2025-04-30 01:24:11.400830500,14.28883056640625,0.2465659325883887,-0.0609771832823753,0.1204530337707631,0.0201926566660404,-0.0125390060234239,0.988647120574547,-0.0469437363257171,right,-0.0023715700954198,0.1737180974474671,2.3575343097552657,-9.366924119260906,0.0889429556784871,0.007910550571978,0.0052297213114798,-1.695036907723546,-0.0106272203847765
2025-04-30 01:24:11.440738300,14.32873828125,0.2472692653928667,-0.041559912264347,0.1207247294824481,-0.0024087019264698,-0.0135258093631363,0.9886200276909868,-0.0489173971449501,right,-0.0003219797508791,0.173037605535924,2.3644036110028623,-9.366379929381608,0.0887303393212876,-0.0292119234800338,0.0044511510059237,-1.688463520682603,-0.0072500221431255
2025-04-30 01:24:11.480738300,14.36873828125,0.2474182432250378,-0.0217064339667558,0.1208151949728823,-0.0035861383657902,-0.0136798363846345,0.9886658735244824,-0.0490709433510393,right,-0.0024444460868835,0.1716817445907509,2.36635737541914,-9.368238708990813,0.0880707424790434,-0.0348475687205791,0.0034992694854736,-1.675364092873782,-0.003916248679161
2025-04-30 01:24:11.520738300,14.40873828125,0.2471073765643295,-0.0157990548759698,0.1206816681418824,-0.0100326305255293,-0.0137200641304913,0.9887252204631224,-0.0490007410577323,right,-0.0027642846107482,0.1707005211009589,2.363845977120101,-9.370562768024206,0.0875795657344333,-0.0271499119699001,0.001788705587387,-1.6658822710402308,-0.00156831741333
2025-04-30 01:24:11.560738300,14.44873828125,0.2467966623120883,-0.0098916757851839,0.1205481139473216,-0.0164791233837604,-0.0137602957866699,0.98878438616348,-0.0489308792987146,right,-0.0030851960182189,0.1697192966829271,2.361332532994449,-9.372877474707364,0.0870883699777601,-0.0194522570818662,7.8335404396e-05,-1.6563988417714832,0.0007794350385665
2025-04-30 01:24:11.600738300,14.48873828125,0.24595469126778,-0.0167203806340694,0.120138145834689,-0.0317220240831375,-0.0139242856933696,0.9888649864610614,-0.0490918426105247,right,-0.0041155219078063,0.1689507663873693,2.3537492382586,-9.3760946831882,0.0867124559692506,-0.0122148394584655,-0.0021813511848449,-1.6489698608145116,0.0025790482759475
2025-04-30 01:24:11.759999200,14.647999267578124,0.2443278827550206,-0.0081519149243831,0.1193266898522489,0.0205536484718322,-0.0145001792869479,0.9890220238524604,-0.0499104651311766,right,-0.0041679400019347,0.1673216754498125,2.3391396981477737,-9.382505134752392,0.0859447728315224,-0.008248602040112,-0.0005398445064201,-1.6332191878445446,0.0151124047115445
2025-04-30 01:24:11.919630300,14.80763037109375,0.2438682984633428,0.0167035888880491,0.1188726341615601,-0.0008245089557021,-0.0167123507445919,0.9889531622753532,-0.0545313274806998,right,0.0061856238171458,0.1688232142644491,2.334232636883854,-9.381188791456818,0.0869584622249659,0.0281467586755752,0.0068897814489901,-1.647736811888218,-0.0049895052798092
2025-04-30 01:24:11.959603000,14.84760302734375,0.2441910570832344,0.0314733609557151,0.1190441394221432,0.0014534029178321,-0.0162606724034503,0.9888951827804392,-0.053785290236301,right,0.0025604830589145,0.1699359903680457,2.33681563911438,-9.378650212889909,0.0874666700373928,0.0132140964269638,0.0039553637616336,-1.6584931837022303,-0.0074193412438035
2025-04-30 01:24:11.999603000,14.88760302734375,0.243842308224141,0.0199320651590824,0.1189230765390118,-0.0054257088340818,-0.015678982524739,0.988923209549068,-0.052585366281902,right,0.0035893321037292,0.1699947997452401,2.3335211276136336,-9.379369759336113,0.0874215549705635,-0.0052674878388643,0.0031271427869796,-1.6590616312399509,-0.0044137090444564
2025-04-30 01:24:12.039603000,14.92760302734375,0.2430905682860608,-0.0021749585866928,0.1185636511518565,-0.0119979484006762,-0.0156878821339437,0.9889861220427002,-0.0524832050987274,right,2.62260437011e-05,0.1695628680698566,2.3266418894939123,-9.381815983444453,0.0871961313057862,-0.0068217357620596,0.0036739856004714,-1.6548868297733366,-0.0026468336582183
2025-04-30 01:24:12.079603000,14.96760302734375,0.2423389488833933,-0.0242819804698228,0.1182042131489784,-0.0185701884329319,-0.0156967856534702,0.9890488532980504,-0.0523813959657058,right,-0.0035375356674194,0.1691308573737873,2.3197610439389944,-9.384255193290114,0.0869706907610586,-0.008375983685255,0.0042210221290588,-1.6507108592629431,-0.0008800476789474
2025-04-30 01:24:12.278887000,15.166886962890626,0.2401675115013679,-0.0095742773264646,0.1170558489177983,-0.0227474309504032,-0.0167085840794573,0.9891722608628292,-0.0542041324594447,right,0.0003677662461996,0.1688695806487793,2.299480764715373,-9.38968890877664,0.0869311640189477,0.0059641739353537,0.0025891703553497,-1.648184994047135,-0.0013206105213612
2025-04-30 01:24:12.318797000,15.206797119140624,0.2390534261902494,-0.0220942609012126,0.1164826149338552,-0.0375501625239849,-0.0170471680548248,0.989238098913692,-0.0547738624452707,right,-0.0035668506752699,0.1687314127889963,2.289072329556197,-9.39246597227454,0.0868867215340998,-0.0079109463840723,0.0010466666426509,-1.6468493615292012,-0.0018298093928024
2025-04-30 01:24:12.558258700,15.4462587890625,0.234500615042754,3.84786399081e-05,0.1144220257415851,0.004210699815303,-0.014420647714716,0.9894422040067556,-0.0493645857535909,right,0.0008081127889454,0.1712265016306853,2.245324957766384,-9.398764780157803,0.0877722425733322,0.0257154535502195,0.0056631537154316,-1.670965127262473,0.0084395576268434
2025-04-30 01:24:12.598258700,15.4862587890625,0.234072760940375,-0.0163807868957519,0.1141497045345491,-0.0123633276671171,-0.0148579258157062,0.9894169274992412,-0.0503344720757936,right,0.0001698732376098,0.1722621064433711,2.2409008577138185,-9.398035881361364,0.0883366065301373,0.0284538865089416,0.0042003691196441,-1.6809715574920177,0.0046691298484802
2025-04-30 01:24:12.638258700,15.5262587890625,0.2333316684798058,-0.0174751318991184,0.1137075908838341,-0.0246604103595018,-0.0154525591938066,0.9894040729491678,-0.0516012861714455,right,-0.0051345825195312,0.1733595412781312,2.233507532592118,-9.397893842542173,0.0889457867503829,0.0396974869072437,0.0047247111797332,-1.6915734693966804,-0.0066494643688201
