time,seconds_elapsed,roll,rotationRateZ,quaternionY,rotationRateY,quaternionZ,quaternionW,yaw,devicelocation,accelerationZ,pitch,gravityX,gravityZ,quaternionX,rotationRateX,accelerationX,gravityY,accelerationY
2025-04-30 01:25:15.304698600,0.25969873046875,-1.0809074804909462,-0.0820048451423645,-0.5145030016648203,-0.0337289422750473,-1.1462787708015406e-17,0.8574683592955319,0.0060683514624315,right,-0.4972701668739319,0.0101130800543232,-8.652799698105454,-4.614066451843082,0.0058969567569043,0.0490008406341075,1.1825506687164309,-0.0991737375307362,0.0438474267721176
2025-04-30 01:25:15.344698600,0.29969873046875,-0.3733240190636946,-0.102189265191555,-0.1916687519106579,-0.0067615546286106,0.180301794408329,0.9645527118018932,0.3492615726402148,right,-0.0398679375648498,-0.1075393638423631,-3.5559462224319573,-9.07842106564641,-0.0198100976660431,0.0614374130964279,0.6710742712020874,1.0525692442204804,-0.069357231259346
2025-04-30 01:25:15.384698600,0.33969873046875,-0.1324322444235065,-0.0662447065114975,-0.0758512082028073,-0.0180611386895179,0.2333804100286545,0.9688466984983212,0.4661052451788403,right,0.025245726108551,-0.1003117775450367,-1.2884139629021287,-9.671913028252124,-0.0334104764473327,0.0693417713046073,0.448369413614273,0.9820733470410108,-0.0590759739279747
2025-04-30 01:25:15.424698600,0.37969873046875,0.105585339207736,-0.0303001515567302,0.0412129138637187,-0.029360719025135,0.2826235408165485,0.9572182757736536,0.5776689459364486,right,0.0358648896217346,-0.0656999016398339,1.0312859984993934,-9.730997669905424,-0.0464617778540291,0.0772461295127868,0.2203449606895446,0.6438323759850114,-0.0214922949671745
2025-04-30 01:25:15.464698600,0.41969873046875,0.1944141597697778,0.040923248976469,0.0853197437270969,-0.0381986871361732,0.3003218065817966,0.9486014767145928,0.6178082477930472,right,0.0236788988113403,-0.0470327940924241,1.8924689667068424,-9.611262452456357,-0.0517932016178595,0.0512500330805778,0.1193352937698364,0.4610639619199558,-0.0337690822780132
2025-04-30 01:25:15.504698600,0.45969873046875,0.2823586755842131,0.112146645784378,0.1292251268529068,-0.0470366552472114,0.317310915229734,0.9377448603122476,0.6561044301440732,right,0.00372976064682,-0.024900773803545,2.731498555295169,-9.415396181485056,-0.0570023316955757,0.0252539403736591,0.0205846726894378,0.2441677806678228,-0.0425658077001571
2025-04-30 01:25:15.544698600,0.49969873046875,0.2895745040707924,-0.0034336149692535,0.1330081334601237,-0.0848398804664611,0.3194914651784938,0.9364807706506096,0.6607064800594924,right,-0.0032852292060852,-0.0215853227241025,2.799582495962083,-9.396165411314367,-0.0569011007958885,0.014440537430346,0.0050365924835205,0.2116631029042415,-0.0199721865355968
2025-04-30 01:25:15.584698600,0.53969873046875,0.2967745782587896,-0.1190138757228851,0.1367884065619792,-0.1226430982351303,0.3216654897838708,0.9351974115556312,0.6652844045726317,right,-0.0103557109832763,-0.0182367667905892,2.86735342515707,-9.37638986674249,-0.0567986898909145,0.0036271344870328,-0.0104795694351196,0.1788315130075439,0.0026547703891992
2025-04-30 01:25:15.624698600,0.57969873046875,0.3039587906716645,-0.2345941364765167,0.1405658361714699,-0.1604463309049606,0.3238327812907396,0.933894666060521,0.6698376267798043,right,-0.0174815654754638,-0.0148553999474542,2.934805205400288,-9.356071885856986,-0.056695101051976,-0.0071862684562802,-0.02596315741539,0.1456761893155053,0.02531473711133
2025-04-30 01:25:15.664698600,0.61969873046875,0.3003193410477776,-0.29267019033432,0.1384605651987332,-0.0951898694038391,0.3196112335492737,0.9356199862446156,0.6612055985232292,right,-0.0153835415840148,-0.018868929022952,2.9005384864002464,-9.366057273298502,-0.0573816907678896,0.0214980468153953,-0.0140308737754821,0.1850298379247076,0.0062983911484479
2025-04-30 01:25:15.704698600,0.65969873046875,0.2958776784073808,-0.1371548920869827,0.1354024992029164,-0.0505364723503589,0.3162616499189911,0.937063966964987,0.6548887859920799,right,-0.0173404216766357,-0.0261152683362885,2.8584432657316325,-9.377319256547093,-0.0596317538143116,0.0032667964696884,-0.0023630857467651,0.2560740166367031,-0.0006485767662525
2025-04-30 01:25:15.744698600,0.69969873046875,0.2936100624682136,-0.0666808411478996,0.134259396820295,-0.056990623474121,0.3153063362063363,0.9375554348491936,0.6528414725055375,right,-0.0039851069450378,-0.0270003083218121,2.837105001887679,-9.38355610511005,-0.0595499213720239,-0.0074859177693724,-0.0048588216304779,0.2647502394421026,-0.0043786112219095
2025-04-30 01:25:15.784698600,0.73969873046875,0.2913405957736368,0.0037932097911834,0.1331159672615584,-0.0634447783231735,0.314350283097777,0.9380445711965943,0.65079218771887,right,0.0093652606010437,-0.0278806999516959,2.815734004817903,-9.38974385383427,-0.0594679482216694,-0.0182386320084333,-0.0073512196540832,0.2733806868770159,-0.0081039723008871
2025-04-30 01:25:15.824698600,0.77969873046875,0.2894099812877074,-0.0268451739102602,0.1321405927262632,-0.0828733444213867,0.3146069941069309,0.9381032558443434,0.6512699673607517,right,0.0024824738502502,-0.0282303557029789,2.7975732019662853,-9.395070017293095,-0.0593598384835349,-0.0177197493612766,-0.0061388909816741,0.27680828670552,0.0035064127296209
2025-04-30 01:25:15.864698600,0.81969873046875,0.2874794969838358,-0.0574835613369941,0.1311650679966409,-0.1023019105195999,0.3148634035093836,0.938161018265126,0.6517471468960774,right,-0.0044041275978088,-0.0285809257609255,2.7794033390253783,-9.40035994039476,-0.0592516594008973,-0.0172008667141199,-0.0049255788326263,0.2802448187591508,0.0151158962398767
2025-04-30 01:25:15.904698600,0.85969873046875,0.2831804653920964,-0.0007162503898143,0.1290408860642855,-0.0769403427839279,0.3142737833053518,0.938673961077952,0.6503578627537397,right,-0.0065017938613891,-0.0295108657477079,2.7388912958949803,-9.411967376080154,-0.0589208404573866,-0.010950056836009,-0.0069480836391448,0.2893605654929764,-0.0065849367529153
2025-04-30 01:25:15.944698600,0.89969873046875,0.2803533127738161,-0.0263095591217279,0.1278839673526544,-0.0746132880449295,0.3137911768415121,0.9390507709759364,0.649032459513087,right,-0.0085340738296508,-0.0286836254176738,2.712336758707464,-9.419899922645092,-0.0580040062433842,0.0445749387145042,-0.0033973753452301,0.2812515298499725,-0.0106915421783924
2025-04-30 01:25:15.984698600,0.93969873046875,0.278138332249513,0.013366175815463,0.1271614080221504,-0.0278821885585784,0.3133540446940598,0.9393717163390188,0.6477104389004099,right,0.0257555842399597,-0.0269203955074796,2.691597045278549,-9.426346614566445,-0.056745495561984,0.104547768831253,0.0013946890830993,0.2639668522457592,-0.0307174865156412
2025-04-30 01:25:16.024698600,0.97969873046875,0.2759257977292446,0.0530419126152992,0.1264385454658616,0.0188489146530628,0.312916114667308,0.939690434042858,0.6463923018779534,right,0.0600370168685913,-0.0251542720421334,2.6708573318496347,-9.432712642467022,-0.0554868563391349,0.1645205914974212,0.0061867237091064,0.2466529668133705,-0.0507404506206512
2025-04-30 01:25:16.176179700,1.1311796875,0.2768826703980229,0.0510872490704059,0.1290730800266635,-0.0695611014962196,0.3162345452622833,0.938576122323422,0.6514356144909289,right,-0.0026445859111845,-0.0105311762550104,2.6805814380064605,-9.432613858267665,-0.0490986894608002,0.0360868386924266,-0.0536381341516971,0.1032734918666072,-0.0062424349598586
2025-04-30 01:25:16.216179700,1.1711796875,0.2751115125072896,-0.0065125934779644,0.1280817519468286,-0.037065040320158,0.3163479834483941,0.938663792246691,0.6517201341679227,right,0.0799631476402282,-0.0114949084796623,2.663842192390561,-9.43724677876532,-0.0492889275120835,0.0093630459159612,-0.0309538394212722,0.112723904781742,0.0134000815451145
2025-04-30 01:25:16.256179500,1.211179443359375,0.2736720519935875,-0.0166163686662912,0.1271637587455239,-0.0585402697324752,0.3159460805702251,0.93889786476912,0.6510170193607754,right,0.0033681988716125,-0.0131297984929837,2.65020149731189,-9.44088133587539,-0.0497834786359653,-0.0687511041760444,-0.0113346576690673,0.1287554770523216,-0.0044671948999166
2025-04-30 01:25:16.296179500,1.251179443359375,0.2717143699722091,0.0379511043429374,0.1257962104740778,-0.0605623126029968,0.3163726434147764,0.9388847285671436,0.652188669758116,right,-0.0241660475730896,-0.0157653250615399,2.6316139934808014,-9.445691366505622,-0.0507845257143449,-0.0730206072330474,5.79059123992e-05,0.1545984593038447,-0.0125523190945386
2025-04-30 01:25:16.336179500,1.291179443359375,0.2693810141051996,-0.0023325830698013,0.1240189640979492,-0.0513480901718139,0.3170276953218048,0.9388116482529276,0.6540094961957852,right,0.0072898268699646,-0.0197465688057457,2.609382287928462,-9.45113794147372,-0.0523961214454093,-0.0767110660672187,-0.0109300315380096,0.1936349499889649,0.0090252924710512
2025-04-30 01:25:16.376179700,1.3311796875,0.2683615243026923,0.0075622592121362,0.1232092567584811,-0.0061807781457901,0.3171556995013649,0.9388299510729206,0.654500931626202,right,0.0020543932914733,-0.0217368615469562,2.5996383080273864,-9.453402963796258,-0.0531982313474416,-0.0363404117524623,-0.0097195506095886,0.2131488479499705,-0.0044183433055877
2025-04-30 01:25:16.416179700,1.3711796875,0.2673429698096516,0.0174571014940738,0.1223993862399947,0.0389865338802337,0.3172833112858889,0.9388470069440316,0.6549904123214347,right,-0.0031861662864685,-0.0237276622905704,2.589890820994973,-9.45561830175817,-0.054000279215394,0.0040302462875843,-0.0085086524486541,0.232666874096822,-0.017862407490611
2025-04-30 01:25:16.456179700,1.4111796875,0.264783895010502,0.0282941460609436,0.1209046802384775,0.0234514847397804,0.3175775555109988,0.9389158101941912,0.6557052186260747,right,-0.0119430422782897,-0.0254373738441882,2.5655770484715696,-9.461817156398295,-0.0544393092393498,0.0008898056112229,-0.0118222087621688,0.2494283498108387,-0.0165349431335926
2025-04-30 01:25:16.496179500,1.451179443359375,0.2637294134806687,-0.0002904199063777,0.1202917306012415,0.0178822204470634,0.3177520094125741,0.9389257213676436,0.6561070737098865,right,0.0038550496101379,-0.0261040053622218,2.555554251629114,-9.464354565921424,-0.0546086430108778,-0.0195360053330659,-0.0158593505620956,0.2559635967984795,-0.00178830511868
2025-04-30 01:25:16.536179500,1.491179443359375,0.2626751474002024,-0.0288749858736991,0.1196787192605753,0.0123129561543464,0.31792629788995,0.9389351973970032,0.6565081532786602,right,0.0196515321731567,-0.026771051009856,2.5455299934819338,-9.466876777875424,-0.0547779431196834,-0.039961814880371,-0.0198963433504104,0.2625028075751848,0.0129579398781061
2025-04-30 01:25:16.576179500,1.531179443359375,0.2627201394939253,-0.0168594755232334,0.1195049449258538,0.0176467187702655,0.3176203946583412,0.9390264572236264,0.6560361767094669,right,-0.0223287343978881,-0.028065657222928,2.5458655090466142,-9.466426111498476,-0.0553639291233098,-0.063486248254776,0.0050135850906372,0.2751937824472785,0.0001968778669834
2025-04-30 01:25:16.616179700,1.5711796875,0.2627645249788058,-0.0048439651727676,0.119331109705779,0.0229804813861846,0.3173144071830116,0.9391172592090734,0.6555643890149156,right,-0.0643104910850524,-0.0293602872939085,2.5461910877391696,-9.465960832074284,-0.0559498981041223,-0.0870106816291809,0.0299245417118072,0.2878845198573544,-0.0125641617923974
2025-04-30 01:25:16.656179700,1.6111796875,0.2618754013944886,-0.0176085941493511,0.1185081864642837,-0.0576516017317771,0.3173022430323836,0.9391632854576556,0.655824798116817,right,-0.0665780901908874,-0.0318396615321898,2.537581080304086,-9.467502800819275,-0.0569869534815003,-0.0640775859355926,0.0241998732089996,0.3121874787257984,-0.0009094141423702
2025-04-30 01:25:16.696179700,1.6511796875,0.2599936416590662,-0.0138275530189275,0.1174467121003419,-0.0373363867402076,0.317089834329072,0.9393543119273206,0.6554191691488569,right,0.0138251781463623,-0.0330185737678903,2.519664607602358,-9.47189840542972,-0.0572174365283157,-0.0009387582540512,-0.0003465414047241,0.3237425997020676,0.0034755952656269
2025-04-30 01:25:16.736179700,1.6911796875,0.258111322016314,-0.010046511888504,0.1163850867239993,-0.0170211717486381,0.3168770559278084,0.9395441726285826,0.6550113786088981,right,0.0942237973213195,-0.0341966919144426,2.501732060548663,-9.476249586376548,-0.0574478335907196,0.0622000619769096,-0.0248913168907165,0.3352894643066451,0.0078614689409732
2025-04-30 01:25:16.776179500,1.731179443359375,0.2572184670629748,0.012296600267291,0.1156913720676542,-0.0328380167484283,0.3161452951917389,0.9398334458066108,0.6536633884658992,right,0.016121506690979,-0.0361491725009475,2.493098672237992,-9.477828380000592,-0.0581442735332734,0.0643902048468589,-0.0029146075248718,0.3544249208766967,0.0164189748466014
2025-04-30 01:25:16.816179500,1.771179443359375,0.2563229308062578,0.0346397086977958,0.1149974731190969,-0.0486548617482185,0.3154130447276849,0.9401212804331016,0.6523136109555843,right,-0.0619845390319824,-0.0381004663217452,2.484429920352995,-9.479369764223694,-0.0588406291275676,0.0665803477168083,0.0190656781196594,0.3735473718347027,0.0249778032302856
2025-04-30 01:25:16.856179500,1.811179443359375,0.2554246601436586,0.0569828227162361,0.1143033890602522,-0.0644716992974281,0.3146802298997816,0.9404075660858788,0.6509618047143781,right,-0.140094518661499,-0.0400505446478691,2.4757252203717828,-9.480874908089636,-0.0595368837336937,0.0687704905867576,0.0410496890544891,0.3926565249197185,0.0335380025207996
2025-04-30 01:25:16.896179700,1.8511796875,0.2539133499199905,0.0931621789932251,0.1140822171808306,-0.0761064365506172,0.3156891662274587,0.9402036844067744,0.6525626831481057,right,-0.0760194659233093,-0.0366963068951805,2.461710723544657,-9.485826977539062,-0.0578157229698445,0.1402044892311096,0.018167108297348,0.3597868863012641,0.0388628207147121
2025-04-30 01:25:16.936179700,1.8911796875,0.2532203853583307,0.0800175219774246,0.1148769171097845,-0.0403220392763614,0.3176610217231254,0.9396494890239534,0.6557145914337708,right,0.0044483542442321,-0.0291561753515319,2.455746846704185,-9.489887651106717,-0.0543478624656219,0.0737947523593902,-0.0028447955846786,0.2858837379615753,0.0036229565739631
2025-04-30 01:25:16.976179700,1.9311796875,0.2525037631275685,0.0668728649616241,0.1156696738420195,-0.0045376382768154,0.3196275194526602,0.9390794176354424,0.6588710917376411,right,0.0848667025566101,-0.0216182681684938,2.4494142826817926,-9.493462002462149,-0.0508790866800684,0.0073850154876708,-0.0238191336393356,0.2119861060472205,-0.0316174998879432
2025-04-30 01:25:17.016179500,1.971179443359375,0.2497804068674931,0.0084690377116203,0.1134733385781387,-0.0350750684738159,0.3186097858658592,0.9395675498438314,0.6573284879244288,right,0.0416664481163024,-0.0275642245018554,2.4231967223636803,-9.498708086422086,-0.0531458149950477,0.0126864090561866,-0.0156989097595214,0.2702783004148863,-0.0149363167583942
2025-04-30 01:25:17.056179500,2.011179443359375,0.2470473907704604,-0.0499347820878028,0.1112757299086864,-0.0656124949455261,0.3175884880006647,0.9400451251085868,0.6557694452250747,right,-0.0015729665756225,-0.0335059580644824,2.396792553432286,-9.503570139500498,-0.0554119520541315,0.0179878026247024,-0.0075596570968627,0.3285195683129132,0.0017500668764114
2025-04-30 01:25:17.096179500,2.051179443359375,0.2443044971703302,-0.1083386093378067,0.1090768693297649,-0.0961499288678169,0.316563573918296,0.9405121141880118,0.6541936966215166,right,-0.044851541519165,-0.0394433994715467,2.370202652670443,-9.508048161697388,-0.0576774601042153,0.0232891961932182,0.0005985498428344,0.3867071515286341,0.0184419117867946
2025-04-30 01:25:17.136179700,2.0911796875,0.2427034246561787,-0.0520748905837535,0.1084797109378545,-0.0656452924013137,0.3161383868741442,0.9407654317690678,0.6530922224945016,right,-0.0276410579681396,-0.0386687005929345,2.3550478997670115,-9.512118772137164,-0.057000535234161,6.66454434394e-05,-0.0047790259122848,0.3791157465515658,0.0130821950733661
2025-04-30 01:25:17.176179700,2.1311796875,0.2411032310839475,0.0041888281702995,0.1078824226467371,-0.0351406633853912,0.3157128462845101,0.94101779788146,0.6519920023613255,right,-0.0104337334632873,-0.0378922534314627,2.3398931468635795,-9.516158402916789,-0.0563235466938738,-0.0231559053063392,-0.0101566314697265,0.3715069885808974,0.0077242627739906
2025-04-30 01:25:17.216179700,2.1711796875,0.2395039309992093,0.0604525469243526,0.1072850210963214,-0.0046360325068235,0.3152870106327884,0.9412691086476266,0.6508931180203494,right,0.0067704319953918,-0.0371140236789357,2.3247388323515654,-9.52016646951437,-0.0556464936652778,-0.046378456056118,-0.0155342519283294,0.3638805122904479,0.0023681297898292
2025-04-30 01:25:17.256179500,2.211179443359375,0.2374103563429774,0.0318414941430091,0.1062643647164882,-0.0333055444061756,0.3163665956829406,0.941039610158823,0.6530447657009575,right,0.0093401670455932,-0.0369624727959269,2.3048155498720706,-9.525065931993725,-0.055359544038458,0.0082754381000995,-0.008928045630455,0.3623953152339905,0.0186224356293678
2025-04-30 01:25:17.296179500,2.251179443359375,0.2353164423959357,0.0032304376363754,0.105243457867729,-0.0619750544428825,0.3174454120954906,0.9408078320719958,0.6551966102377029,right,0.0119056105613708,-0.0368154009006876,2.284878238867224,-9.529922724375128,-0.0550724532683996,0.0629293322563171,-0.0023204237222671,0.3609540303844958,0.0348722524940967
2025-04-30 01:25:17.336179500,2.291179443359375,0.2340733802721001,-0.0300657413899898,0.1047551136068331,-0.0254144333302974,0.3169597652346344,0.9410521457021614,0.6540418581279889,right,0.0082713365554809,-0.0364119528463587,2.273063882432878,-9.532896771749854,-0.054625144987647,0.0359752103686332,-0.0021606683731079,0.3570002147248015,0.0052921511232852
2025-04-30 01:25:17.376179700,2.3311796875,0.2330699797009993,-0.0112287439405918,0.104207859882857,-0.0295000281184911,0.3161983459168028,0.9413627524864434,0.6524567183133353,right,0.0010247826576232,-0.0371504413577969,2.263435783996433,-9.534913372269273,-0.0547305499209794,0.0267186686396598,0.0001131445169448,0.3642373994367197,-0.0089412443339824
2025-04-30 01:25:17.416179700,2.3711796875,0.2325413857107501,0.0219327174127101,0.1040484229843632,0.0027984101325273,0.3163087392467281,0.9413636161280802,0.6525891955066505,right,0.0189243555068969,-0.0365698766817738,2.258443820928037,-9.536312717673182,-0.0543809933301371,0.0257982444018125,0.0013964623212814,0.3585478825582191,-0.0075552444905042
2025-04-30 01:25:17.456179700,2.4111796875,0.2320127303265166,0.0550941824913024,0.1038889657907514,0.0350968465209007,0.3164191391212673,0.9413643466504568,0.6527221156403767,right,0.0368233323097229,-0.0359893799839472,2.2534495197720825,-9.537706217858196,-0.0540314310650239,0.02487781830132,0.002680018544197,0.3528589136689901,-0.0061692893505096
2025-04-30 01:25:17.496179500,2.451179443359375,0.2338335360567499,0.0267454907298088,0.1049835642526636,0.0148174501955509,0.3171384862218709,0.9410262909726024,0.6541433129848351,right,0.0292193293571472,-0.0342680500465813,2.270949520627409,-9.534164015206692,-0.0535851133353523,0.0381168723106384,0.0048321336507797,0.335988844747655,-0.0036468878388404
2025-04-30 01:25:17.536179500,2.491179443359375,0.2356517691604166,-0.0016032047569751,0.1060779435064015,-0.005461947992444,0.3178572074119883,0.9406863096603374,0.6555613193254748,right,0.0216099023818969,-0.032544123454584,2.288412842734158,-9.530568036541345,-0.0531386796137578,0.0513559244573116,0.0069879740476608,0.3190923262108117,-0.0011217854917049
2025-04-30 01:25:17.576179500,2.531179443359375,0.2374674497091665,-0.0299518946558237,0.1071721043700415,-0.0257413424551486,0.3185752215111403,0.9403444254107456,0.6569759740639953,right,0.0139949917793273,-0.0308176565782716,2.3058397783532736,-9.52691886638403,-0.052692146540147,0.0645949766039848,0.0091475695371627,0.3021699608466587,0.0014059524983167
2025-04-30 01:25:17.616179700,2.5711796875,0.2348422290030481,-0.0625036731362342,0.1059506269773091,-0.0109307784587144,0.3167786521706265,0.9411098286240848,0.6530785478140909,right,0.0245988368988037,-0.0313718843199897,2.2807822017252444,-9.532775191196798,-0.0523278629067939,-0.0040680691599845,0.0060493052005767,0.3076024524904787,-0.0154747981578111
2025-04-30 01:25:17.656179700,2.6111796875,0.233539435646492,-0.0296241231262683,0.1050514446102883,-0.0273117329925298,0.3159518487188732,0.9414507946485944,0.651500810900566,right,0.0227971076965332,-0.0334195995931575,2.268210451052337,-9.53510567997098,-0.0530010574577441,-0.0689117982983589,-0.0034539699554443,0.3276731440840288,-0.0232472270727157
2025-04-30 01:25:17.696179700,2.6511796875,0.2322333243724367,0.0032554268836975,0.104152040197957,-0.0436926893889904,0.3151243901149359,0.941789886977475,0.6499203204287208,right,0.0209904313087463,-0.0354652739574934,2.25559573802054,-9.537387653428317,-0.0536741461643309,-0.1337555348873138,-0.012952834367752,0.3477224640959873,-0.0310174915939569
2025-04-30 01:25:17.736179700,2.6911796875,0.2339503061047494,0.0510911718010902,0.1033806680470911,-0.0100962445139884,0.3171136409335596,0.9409247485169292,0.655350908026823,right,0.0040870308876037,-0.0443717911810267,2.271159802377224,-9.530109771379829,-0.0584127862530426,-0.203184574842453,-0.0064734071493148,0.4349956738794222,-0.0052938610315322
2025-04-30 01:25:17.776179500,2.731179443359375,0.2347930116572462,0.03288284689188,0.102738597487022,-0.0045000426471233,0.3183359001009946,0.9403891050224352,0.6587326052960143,right,-0.0062914490699768,-0.0501749614087042,2.278564379545301,-9.525577388647198,-0.0614451392792633,-0.1819365620613098,-0.005113661289215,0.4918416697604581,0.0128682702779769
2025-04-30 01:25:17.816179500,2.771179443359375,0.2356556233971486,0.0146745219826698,0.1020953549447159,0.0010961592197418,0.3195545495958702,0.9398427422233514,0.66212027217633,right,-0.0167077183723449,-0.0559752468494631,2.286075924219191,-9.520673834514618,-0.0644767926464704,-0.1606885492801666,-0.0037648230791091,0.5486428766516969,0.0310349613428115
2025-04-30 01:25:17.856179500,2.811179443359375,0.2343040053600203,-0.0235411487519741,0.1007903570150027,-0.0271671935915946,0.3191622718378986,0.9399966628845016,0.6617274111080017,right,-0.0224465131759643,-0.0601657825514926,2.272651794500649,-9.52143546653688,-0.066205792770401,-0.0725050568580627,0.0023190677165985,0.589668677990511,0.0343879088759422
2025-04-30 01:25:17.896179700,2.8511796875,0.2329503232771834,-0.0617568157613277,0.0994848520379967,-0.0554305464029312,0.3187684633493375,0.9401458912303442,0.6613287609133891,right,-0.0282037854194641,-0.0643557432365271,2.25917052776739,-9.522015312251447,-0.0679344541957844,0.0156784355640411,0.008408784866333,0.6306785145752132,0.0377424880862236
2025-04-30 01:25:17.936179700,2.8911796875,0.2319530696698456,-0.0189934223890304,0.0996329104770316,-0.0468530729413032,0.3193524253001872,0.9400721181659726,0.6620006418341493,right,-0.0334807634353637,-0.060432359014836,2.250225004767626,-9.52659854838848,-0.0659691967603932,0.0503284782171249,0.0022459328174591,0.5922781298365444,0.031750701367855
2025-04-30 01:25:17.976179700,2.9311796875,0.2309533614642263,0.0237699784338474,0.0997805414392247,-0.0382755994796752,0.3199350154000325,0.9399942210496458,0.6626761646070587,right,-0.0387730598449707,-0.0565096309054969,2.24121474596858,-9.531031562399864,-0.0640036584309615,0.0849785208702087,-0.0039103180170059,0.5538750782167539,0.0257591977715492
2025-04-30 01:25:18.016179500,2.971179443359375,0.2299511740388167,0.0665333792567253,0.0999277416784011,-0.029698122292757,0.3205161751654785,0.9399123037589264,0.6633552693035534,right,-0.0440804958343505,-0.0525875797973013,2.232139605239779,-9.535314938807486,-0.0620378410350949,0.1196285635232925,-0.0100599378347396,0.515470126900822,0.0197678841650486
2025-04-30 01:25:18.174873000,3.129873046875,0.222836267239672,0.031191824004054,0.0979701895739569,0.0115934014320373,0.3194617313887773,0.9407942837761084,0.659703111591089,right,-0.0031703417189419,-0.0447214223352039,2.165069956181944,-9.55461351351738,-0.0570273285378092,-0.0611336901783943,-0.0202837008982896,0.4384209721529856,-0.0002106235187966
2025-04-30 01:25:18.362228500,3.317228515625,0.2272943118540245,-0.0479640811681747,0.0993824798725967,-0.0253819655627012,0.319702027081309,0.9404002767635156,0.660972908398227,right,-0.0121999494731426,-0.048710220901009,2.2072315200850365,-9.54308732637465,-0.0596748662045727,-0.089376300573349,-0.0009622424840927,0.4774950183695182,0.0091589018702507
2025-04-30 01:25:18.402145800,3.357145751953125,0.2256093372605641,-0.077151134610176,0.0984575045520654,-0.0483288131654262,0.3187318428849639,0.9408147653683416,0.6589481503153417,right,0.0009887523483484,-0.0499000081937907,2.1910199516050515,-9.546232054141162,-0.059864274067738,-0.0011683411430567,-0.0013697951799258,0.4891486678168177,0.0264756027609109
2025-04-30 01:25:18.442145800,3.397145751953125,0.2245625318821058,-0.0559410378336906,0.0979270950420356,-0.022985752671957,0.3176667691642362,0.941228431974649,0.6566969364083896,right,0.0200511813163757,-0.0505507924024306,2.180954338534176,-9.548208322650192,-0.0598928111807135,-0.0060187336057424,-0.0003015100955963,0.4955226598281413,0.006380196660757
2025-04-30 01:25:18.482145800,3.437145751953125,0.2244009571547734,-0.0177074819803237,0.0977291164977853,-0.0046007614582777,0.3171796116416611,0.941390017974084,0.6557642407971969,right,0.0050843358039855,-0.0514797392069039,2.1793081787623465,-9.548107784885168,-0.0602578995948566,-0.0349406376481056,0.0015216916799545,0.5046206334432587,-0.0090341120958328
2025-04-30 01:25:18.522145800,3.477145751953125,0.2253188101927615,-0.0102240312844514,0.0979059366124636,-0.0070015722885727,0.31696979436988,0.9413844798059132,0.6555744931849091,right,-0.0141865611076354,-0.0530975103865996,2.187885745232552,-9.545295065551995,-0.0611540850342742,-0.0321374647319316,0.0073576271533966,0.5204638800675049,0.0078161098062992
2025-04-30 01:25:18.562146000,3.51714599609375,0.2262364560888553,-0.0027405805885791,0.0980826739105194,-0.0094023831188678,0.3167597208855651,0.9413781817717346,0.6553863000414037,right,-0.0334606766700744,-0.0547154523045262,2.1964523519173262,-9.54245019751489,-0.0620502144967898,-0.0293342899531126,0.0131946951150894,0.536307418952696,0.0246662907302379
2025-04-30 01:25:18.721482500,3.676482421875,0.2258563249456349,-0.0351268351078033,0.0988130325946871,0.0054826503619551,0.3137513668108597,0.9424667182187016,0.6484419739172781,right,0.0385985411703586,-0.0503636284778353,2.193326621112228,-9.545468668553232,-0.0596030532931153,-0.0098940758034586,-0.0043591666035354,0.4936895261168479,0.0108682354912161
2025-04-30 01:25:18.761482500,3.716482421875,0.2251798777644445,-0.040189504623413,0.0980679649653881,-0.0015600239858031,0.3128778211032594,0.9427574275295904,0.646906352586005,right,0.011020541191101,-0.0533273545456381,2.1865328693188726,-9.545482112556696,-0.0608155723515195,-0.0157198570668697,0.0066211074590682,0.5227146912015974,0.0171221271157264
2025-04-30 01:25:18.801482800,3.756482666015625,0.2244090760954172,-0.0120465662330389,0.0977053402944991,-0.0085546281188726,0.3126241719121339,0.9428856307526432,0.6463314040575607,right,0.0023130774497985,-0.0534324215751578,2.179162340550869,-9.547111175063252,-0.0607163257842847,0.0210394635796546,0.0061668753623962,0.5237435593253001,0.0129654631018638
2025-04-30 01:25:18.841482800,3.796482666015625,0.2236381946285338,0.0160963740199804,0.097342691673281,-0.0155492322519421,0.3123703734492786,0.9430136131313432,0.6457561853043577,right,-0.0063949823379516,-0.0535370640765709,2.1717897659562526,-9.548734392350912,-0.0606170670504295,0.0577987842261791,0.005712866783142,0.5247682992631569,0.0088092051446437
2025-04-30 01:25:18.881482500,3.836482421875,0.2228156191875197,0.0487240925431251,0.097309104427539,-0.0307344384491443,0.3127651250095715,0.9429624569040224,0.6462606937515079,right,-0.0106759071350097,-0.0512145532949327,2.164197995653004,-9.551680382674933,-0.0594201577857742,0.0915781557559967,0.0014188885688781,0.5020234930895269,-0.0030336491763591
2025-04-30 01:25:18.921482500,3.876482421875,0.2215841096212212,0.0585068240761756,0.0973525795783448,-0.0325746014714241,0.3135715990366145,0.9428189448806636,0.6474007878528052,right,-0.0007336735725402,-0.0470846660572516,2.1528706920832392,-9.556279985424876,-0.0573393646545843,0.1211285218596458,-0.0045988261699676,0.4615720575725659,-0.0131697729229927
2025-04-30 01:25:18.961482500,3.916482421875,0.2206300152659114,0.0358909294009208,0.0977293317689903,-0.0148676205426454,0.314255397114164,0.9427078060020088,0.6481645919948221,right,0.0070962905883789,-0.041761395114493,2.144259515604377,-9.560591418883204,-0.0547217264468387,0.134387657046318,-0.0114179849624633,0.4094201743245124,-0.0147256962954998
2025-04-30 01:25:19.001482500,3.956482421875,0.2217774365939973,0.0316648259758949,0.0987514077972677,0.0264460165053606,0.3142333909666948,0.9426793420176676,0.6478345428022997,right,0.0086792707443237,-0.0387951423157812,2.155485696887225,-9.559267476803065,-0.0534897639632825,0.0694197639822959,-0.010001316666603,0.3803547868272289,-0.0298854671418666
2025-04-30 01:25:19.041482800,3.996482666015625,0.2229257135369632,0.0274387244135141,0.0997732337656596,0.0677596554160118,0.314210570787456,0.9426484360743452,0.6475010943691845,right,0.0102522373199462,-0.035829275204248,2.1667007722541687,-9.557844166001678,-0.0522576686564409,0.0044518783688545,-0.008583515882492,0.3512898011887446,-0.0450452752411365
2025-04-30 01:25:19.081482800,4.036482666015625,0.2257272068563654,0.0815982148051261,0.1009971298220511,0.1037173420190811,0.3149612615011101,0.9422298017603662,0.6492872241480684,right,0.004043698310852,-0.0361386290250668,2.1934441100120545,-9.551630113792418,-0.0529335465763556,-0.0539126694202423,0.0049338191747665,0.3543215701000765,-0.0582103841006755
2025-04-30 01:25:19.121482500,4.076482421875,0.2265795775196742,0.0214692540466785,0.1013570128046875,0.0442306324839592,0.3157905957344552,0.9419019573067066,0.6510912658747957,right,0.0031927824020385,-0.0360995608825075,2.201587961240113,-9.549770749661326,-0.0531408300161652,-0.0261257030069828,0.0035245567560195,0.3539387082623317,-0.0307336430996656
2025-04-30 01:25:19.161482500,4.116482421875,0.2274317936061474,-0.0386597067117691,0.1017167792818523,-0.015256080776453,0.3166195829669316,0.9415730282651236,0.6528950854924426,right,0.0023413300514221,-0.0360589367503364,2.2097288898587224,-9.547904955789448,-0.0533480507952714,0.0016612652689218,0.0021155625581741,0.3535405757902189,-0.0032553561031818
2025-04-30 01:25:19.201482500,4.156482421875,0.2265729072208366,-0.0564552433788776,0.1013372771291535,-0.0344166159629821,0.3160803381981119,0.9418050190162915,0.6517062805294153,right,0.0090425610542297,-0.0361011651987406,2.201524102223664,-9.549784778186678,-0.0531717094314368,0.0129468655213713,-0.0018824785947799,0.3539544172881171,-0.0014861039817333
2025-04-30 01:25:19.400080400,4.355080322265625,0.223989104530966,-0.0416896380484104,0.098337302654492,-0.0255215540528297,0.316112849304399,0.9418298894552912,0.6529332172495823,right,-0.0014676550636067,-0.0470156004105636,2.1758542389161883,-9.55110579765737,-0.0579561406722385,-0.1028620079159736,0.0056962464004755,0.4608955100178718,0.0259243380278348
2025-04-30 01:25:19.559750100,4.514750244140625,0.2171795766130271,-0.0110214790329337,0.0949167122095209,0.0123083759099245,0.31362042977567,0.9430286595045482,0.6474999618266506,right,0.0138181243091821,-0.0493222446269226,2.1105311412647367,-9.564636894881724,-0.0577065651946364,0.0586732067167758,-0.0050754798576235,0.4834897287396714,-0.0089914007112383
2025-04-30 01:25:19.719419600,4.674419677734375,0.2195697797036943,0.0162622742354869,0.0963883057208005,0.0127165978774428,0.3142220175639537,0.9427206833121432,0.6486429652936306,right,-0.0139507809653878,-0.0469544046848832,2.133629838909953,-9.56065571629107,-0.057022090823967,-0.0098203886300325,0.0010466171661391,0.4602960462873801,-0.0039994977414608
2025-04-30 01:25:19.759337500,4.71433740234375,0.2190014322972472,0.0277143493294715,0.0961039981785213,-0.020993448793888,0.3147682500926699,0.942572383354096,0.6497562692143293,right,-0.0014006805140525,-0.0468586620615918,2.12820532964319,-9.561909515744448,-0.0569412452095899,-0.0279042460024356,0.0082302652299404,0.459358180915378,0.002747441874817
2025-04-30 01:25:19.919006700,4.8740068359375,0.2194075414818544,0.0148613471537828,0.0958050296313344,-0.0148633522912859,0.3176063497663552,0.941572541598444,0.6560338452309682,right,-0.0044917063787579,-0.0487864005409837,2.1318916169404982,-9.560162379816171,-0.0582130513821512,-0.0008520195260643,0.0043483404442667,0.4782411970943212,0.0065522887744009
2025-04-30 01:25:20.078677500,5.033677490234375,0.2243263329218814,-0.0220556110143661,0.0990153484049314,0.0633587390184402,0.3173497950438216,0.9414363087430188,0.6551456706575643,right,-0.0084792533889412,-0.0433919733643404,2.1794322435334323,-9.551936987784504,-0.0564155842754953,0.0501822903752327,-0.0024863488506525,0.4253961804829537,0.0093733454123139
2025-04-30 01:25:20.118677500,5.073677490234375,0.2251355162276179,-0.0168317519128322,0.0995966974199563,0.0357154533267021,0.3166855467117054,0.9416231624239398,0.6536644837474831,right,-0.0092222094535827,-0.0424043965652507,2.187253584808856,-9.550575051781534,-0.0560061407471183,0.037309244275093,0.0001238733530044,0.4157202973820268,0.0022221468389034
2025-04-30 01:25:20.158677500,5.113677490234375,0.2259460813692295,-0.0116078909486532,0.1001779364218562,0.0080721657723188,0.3160209740758041,0.9418090126974163,0.6521824842354605,right,-0.0099670886993408,-0.0414179987615384,2.1950850090868768,-9.549193826556206,-0.0555966309028261,0.0244361981749534,0.0027330368757247,0.4060555201970041,-0.0049302019178867
2025-04-30 01:25:20.198677500,5.153677490234375,0.2260800117580312,0.0074733179062604,0.1003545247514281,-0.0011517954990267,0.3158359992729713,0.9418697883998824,0.6517218730573047,right,0.0003986954689025,-0.0407889510157055,2.196420787735283,-9.54914706480503,-0.055298930963788,0.0098668187856674,0.0024175196886062,0.3998918830007314,-0.0075918138027191
2025-04-30 01:25:20.238677500,5.193677490234375,0.2265041161255485,0.0136305913329124,0.1006429207119511,0.0045590889640152,0.3160433847757059,0.9417814780502316,0.6521123503769825,right,-0.002195656299591,-0.0401678737971313,2.20052573883608,-9.548454990887642,-0.0550935297560952,0.0027853692881762,-0.0001543015241622,0.3938061698788777,-0.0009330511093139
2025-04-30 01:25:20.437918200,5.392918212890625,0.2257128761498168,0.0160461571067571,0.1004717214538065,-0.0011939355172216,0.3165006641054615,0.9416891201785982,0.6528710010032963,right,0.0051406151615083,-0.0387816921691356,2.193090035877377,-9.550715921556948,-0.0543548302884464,0.0052151344716548,0.0031033547129482,0.3802229771411046,-0.0004276479012332
2025-04-30 01:25:20.597585200,5.552585205078125,0.2279097752096198,0.00719361519441,0.1016553504393627,0.0235914457589387,0.3165141349579423,0.94156277330913,0.6529134016365917,right,0.0022563659586012,-0.0378431891235863,2.2141462679095567,-9.546218025615811,-0.054263438774824,0.0183777119964361,0.0040361760184168,0.3710261827940121,-0.0015684224199503
2025-04-30 01:25:20.637502200,5.592502197265625,0.2289786148703914,0.0130786942318081,0.1023254142075175,0.0270730480551719,0.3166501487686968,0.94146321450045,0.6531333290730927,right,0.0006260972004383,-0.0367649301155789,2.2244379448212683,-9.544230066668987,-0.0539369792111381,0.0244742389768362,-0.0045319632627069,0.3604594152679666,0.0013991027371957
2025-04-30 01:25:20.797169200,5.752169189453125,0.2281018050807491,0.0010784536134451,0.1020261835816938,-0.0403248555958271,0.3182773415826613,0.9409787308647098,0.6563899699183408,right,0.0028223865665495,-0.0355154328977355,2.216168713647872,-9.546607901716232,-0.0533769833631873,-0.0030410103499889,-0.0040398375131189,0.3482140470052138,-0.0020794398151338
2025-04-30 01:25:20.956836000,5.911836181640625,0.2229435559497936,-0.0375091098248958,0.0987904461679106,0.0168858021497726,0.3161730410719594,0.941937172885977,0.6523066827046566,right,0.0064935614354908,-0.04123113833528,2.1664202017471195,-9.555815290522574,-0.0550404059305224,-0.089192509651184,0.005196797195822,0.4042246149754151,0.0221071541309356
2025-04-30 01:25:21.156419300,6.11141943359375,0.2228720681608731,0.1373115926980972,0.0987921964149196,0.0918226167559623,0.3171261231652502,0.9416268081728808,0.6542605749498362,right,0.0219843294471502,-0.0406759394068509,2.1657862877577543,-9.556187630966305,-0.0548645680679776,0.0052305948920547,-0.0003231491427868,0.3987845428133383,-0.0190642978996038
2025-04-30 01:25:21.196336400,6.15133642578125,0.2268198525602485,0.1236353889107704,0.1007812559398987,0.0843119695782661,0.3196451560582872,0.940558757609934,0.6596374162918365,right,0.0003588350955396,-0.0389460011856487,2.203646939596533,-9.548221182131767,-0.0549485272294651,-0.0217042230069637,0.0047743399627506,0.3818330792188644,-0.0078710811212658
2025-04-30 01:25:21.236336000,6.191336181640625,0.2260736105285907,0.0807767510414123,0.1004710303636811,0.0260331518948078,0.320476418404634,0.9403257777500084,0.6612978524757345,right,-0.0006499290466308,-0.0384143480858951,2.196566333685815,-9.55005950347483,-0.0546630196564324,-0.0158137083053588,0.00393046438694,0.3766232356160879,-0.0037728510797023
2025-04-30 01:25:21.276336000,6.231336181640625,0.2253264555723361,0.0379181019961833,0.1001607053309366,-0.0322456732392311,0.3213073564471957,0.9400917944826386,0.6629585163400169,right,-0.0016593933105468,-0.0378839203490429,2.1894746218591927,-9.551891395077108,-0.0543774569245737,-0.0099231954663991,0.0030877143144607,0.3714253016468137,0.0003241598606109
2025-04-30 01:25:21.316336000,6.271336181640625,0.2233502155574044,0.0045953169465065,0.0991964994633963,-0.0527399107813835,0.3216162340736683,0.9401018024756196,0.6635163159084615,right,0.0012347698211669,-0.0380076947265869,2.1705833127759395,-9.556154897740482,-0.054145707098318,-0.0097869699820876,0.0005357414484024,0.3726382576331496,0.0042110420763492
2025-04-30 01:25:21.356336000,6.311336181640625,0.2208830128996575,0.0011826967820525,0.0980332416008621,-0.0598385781049728,0.3216851678125116,0.9402223526992788,0.663523708038439,right,0.0032508969306945,-0.0380278299094671,2.1469981467880306,-9.56147346241474,-0.0537587435524414,0.0040677618235349,-0.0008547902107238,0.3728355703035369,0.0020827762782573
2025-04-30 01:25:21.396336400,6.35133642578125,0.2197573278521293,-0.006449906155467,0.0974781958988596,-0.0363756828010082,0.3216377686945765,0.9403021686734132,0.6633799556708162,right,0.0008516907691955,-0.0382101508456242,2.1362186863593755,-9.563817979714274,-0.0536562585059137,-0.0031608142890036,-0.0026958882808685,0.3746222345246002,0.0060418434441089
2025-04-30 01:25:21.436336400,6.39133642578125,0.2186316094107268,-0.0140825100243091,0.0969231193451434,-0.0129127874970436,0.3215902787883069,0.9403816599256316,0.6632360215242734,right,-0.0015487670898437,-0.0383923059811832,2.125436303321272,-9.566149637532234,-0.0535537566280248,-0.0103893913328647,-0.0045367032289505,0.3764072547778487,0.0100010558962821
2025-04-30 01:25:21.476336000,6.431336181640625,0.2186123811156091,-0.0371943488717079,0.0967997586342549,0.0198370739817619,0.3211051550954813,0.9405398764498611,0.6623029266380256,right,0.0036948323249816,-0.0392491519304039,2.1251817440383136,-9.565872574156522,-0.0539078039493278,-0.0190512109547853,-0.0088183134794235,0.3848036925274878,0.006431221961975
2025-04-30 01:25:21.516336000,6.471336181640625,0.2193499364826283,-0.0160010699182748,0.0969987441728498,0.0377471074461936,0.3205826662552171,0.940664470325433,0.6613589968759873,right,0.0046414732933044,-0.0403168019458527,2.132145883962512,-9.563895721125602,-0.0544817605037803,-0.0204500555992126,-0.0082496255636215,0.3952655018417164,-0.0058304592967033
2025-04-30 01:25:21.556336000,6.511336181640625,0.2214896138196578,-0.0110939163714647,0.0978747597833876,0.0379379503428936,0.3204999660808039,0.9405601102360998,0.6614014184035908,right,-0.0011186599731445,-0.0411119313392107,2.1525348842576144,-9.559002103865144,-0.0552001219276755,-0.0116507476195693,-0.0044543147087097,0.4030565941093489,-0.0027906261384487
2025-04-30 01:25:21.596336000,6.551336181640625,0.2236293424064667,-0.0061867632903158,0.0987506381842992,0.0381287895143032,0.3204167988754899,0.9404543927757087,0.6614453604552364,right,-0.0068837404251098,-0.0419069607258693,2.172911901853978,-9.554058802244066,-0.0559184066966412,-0.0028514405712485,-0.0006577968597412,0.4108464442679658,0.0002493299543857
2025-04-30 01:25:21.636336400,6.59133642578125,0.2243957168790241,-0.0131313102319836,0.099137603355565,0.0194083508104085,0.3199812954110426,0.9405576424870492,0.6605634789052918,right,-0.0071016550064086,-0.041895216777249,2.1802343536965547,-9.552395837467907,-0.0559919534830498,0.0097654499113559,0.001794546842575,0.4107313665209338,0.0016485154628753
2025-04-30 01:25:21.676336400,6.63133642578125,0.2251620699671168,-0.0200758557766675,0.0995245271185199,0.0006879158318042,0.319545678461177,0.940660486295995,0.6596815504503891,right,-0.0073202252388,-0.0418841287664574,2.1875551981039343,-9.550726442950964,-0.0560654722810076,0.0223823375999927,0.0042470544576644,0.4106227185146883,0.0030470415949821
2025-04-30 01:25:21.716336000,6.671336181640625,0.224887527158456,-0.0103739127516746,0.0995471719233381,-0.0070944922044873,0.3193858953601864,0.9407403015411436,0.6592226088150017,right,-0.0058369636535644,-0.0410259500115761,2.185010774318129,-9.551666938671469,-0.0555957725108601,0.0319156274199485,0.0058266073465347,0.40221411540322,0.0030258819460868
2025-04-30 01:25:21.756336000,6.711336181640625,0.2246133625058104,-0.0006719697266817,0.0995697891226164,-0.0148769002407789,0.3192260214708614,0.9408197920643768,0.658763850974146,right,-0.0043545961380004,-0.040167630659072,2.182468104097992,-9.552598666563629,-0.0551260540817451,0.0414489135146141,0.0074059665203094,0.3938037952587008,0.0030049011111259
2025-04-30 01:25:21.796336000,6.751336181640625,0.2239497915888461,-0.0056238765828311,0.0994498996683355,-0.0240001119673252,0.3190220137996514,0.9409392801739626,0.6581618118557218,right,-0.0025386214256286,-0.039080279094977,2.1762224877066907,-9.554456277129054,-0.0544794700707756,0.0324652455747127,0.0068541020154953,0.3831489110577851,-0.0004121847450733
2025-04-30 01:25:21.836336000,6.791336181640625,0.2231879695499239,0.0031157010234892,0.0992868871081848,-0.0193204842507839,0.3188755557074174,0.9410449975614574,0.6576727472595746,right,0.0004822015762329,-0.0379522732750209,2.1690373985081908,-9.556526653662324,-0.0538037425828871,0.0311342570930719,0.0055223852396011,0.3720951637323945,-0.0057851187884807
2025-04-30 01:25:21.876336000,6.831336181640625,0.2220807642270215,-0.0135828088968992,0.098880270391314,-0.0234430395066738,0.3187139140727336,0.941170758579628,0.6571919206058461,right,0.0017666220664978,-0.0373232682951791,2.15850621375218,-9.559148818859455,-0.0533078820199328,0.0151671171188354,0.0010040998458862,0.3659310881447046,-0.0057018063962459
2025-04-30 01:25:21.916336400,6.87133642578125,0.2209738725805031,-0.0302813202142715,0.0984736025276113,-0.0275655928999185,0.3185521070138503,0.9412960844537064,0.6567117502649531,right,0.0030493736267089,-0.0366937422186073,2.1479740060828627,-9.56175520196557,-0.0528119989513453,-0.0008000247180461,-0.0035140663385391,0.3597617518600076,-0.0056179631501436
2025-04-30 01:25:21.956336400,6.91133642578125,0.220369279288391,-0.0426071621477603,0.0981489652966155,-0.0003554765135049,0.3179944767497643,0.941515535253112,0.6555446366637085,right,-0.0010212063789367,-0.0371338676994019,2.142157721019536,-9.562896773216128,-0.0528652943873283,-0.0190917961299419,-0.0024080276489257,0.364074975416623,-0.0003728941082954
2025-04-30 01:25:21.996336000,6.951336181640625,0.2205686789702881,-0.0321575477719306,0.0981927246812706,0.0145176090300083,0.3173898439772604,0.9417030513421116,0.6543314429108569,right,-0.003176987171173,-0.0376453871803001,2.1440235148914155,-9.562286532363297,-0.0530779013170556,-0.0055004833266139,-0.0002609342336654,0.3690877620773389,0.0004993416368961
2025-04-30 01:25:22.036336000,6.991336181640625,0.2210381414277394,-0.0162674952298402,0.0983960040970823,0.0156566631048917,0.3169088570192118,0.9418352100548958,0.653368193224774,right,-0.0039693117141723,-0.0379155785816977,2.148490577302873,-9.561181201469898,-0.0532320431616527,0.002897304482758,0.0029888600111007,0.3717355366397649,-0.0039290413260459
2025-04-30 01:25:22.076336000,7.031336181640625,0.2205385375277376,0.0181334856897592,0.0982254315383473,0.0041251750662922,0.3172363690069084,0.9417587836998486,0.6539764912420916,right,-0.0016065239906311,-0.0374119602403915,2.1437541964307427,-9.562435000923276,-0.0529459314652264,0.0011308164102956,0.0045063942670822,0.3668002356620505,-0.0022473409771919
2025-04-30 01:25:22.116336000,7.071336181640625,0.2200386565373012,0.0525344684720039,0.0980548382754557,-0.0074063129723072,0.3175638063587402,0.9416822469226248,0.6545850716430714,right,0.0007558465003967,-0.0369086523220076,2.139013870035857,-9.563684124201536,-0.0526598057745745,-0.000635671778582,0.0060243010520935,0.3618678938264027,-0.0005659349262714
2025-04-30 01:25:22.156336400,7.11133642578125,0.2191235876294027,0.0834339186549186,0.0976322241386874,-0.0084086637943983,0.3185352477573494,0.941410468555472,0.6565541442844409,right,-0.0098417997360229,-0.0365363931937344,2.1302906114846465,-9.565768529260158,-0.052435615311657,0.0079311868175864,0.014553889632225,0.3582197465823963,0.0174456275999546
2025-04-30 01:25:22.313992400,7.268992431640625,0.2183529608839306,0.0041035413742065,0.0996908402018415,-0.0257959179580211,0.3222519972321775,0.9403070659274044,0.6625937024878013,right,0.0309043396264314,-0.0206496782106154,2.123883228660375,-9.571755202454328,-0.0451444844478903,0.1365393102169037,-0.0124279167503118,0.2024896163675002,-0.0063717914745211
2025-04-30 01:25:22.353909000,7.308908935546875,0.2172898134316492,-0.0060706813819706,0.099825660473509,-0.0430331826210022,0.3221698069361334,0.940414902110126,0.6619383616773962,right,0.0126279545947909,-0.0168227390514558,2.113857363077998,-9.57469476303756,-0.0431424326216951,0.0717327818274498,-0.0098315328359603,0.1649667633820325,-0.0265910997986793
2025-04-30 01:25:22.513563100,7.468563232421875,0.2158201356136122,-0.0173162128776311,0.1000227937482794,-0.0147052109241485,0.3200565935282797,0.9412381572445544,0.656841991700865,right,-0.0044104414992034,-0.011973910911284,2.099929960012436,-9.578459668529034,-0.0403721064043276,0.0082191312685608,0.0033860877156257,0.1174209856899455,-0.0061438549309968
2025-04-30 01:25:22.713143300,7.668143310546875,0.2094448162979864,-0.0706149786710739,0.0979622123348133,-0.0848886668682098,0.318174639556139,0.9422458548796018,0.6520105934546828,right,-0.0152874020859599,-0.0066724410597894,2.038922825863957,-9.592126959353685,-0.0366202591345296,0.1685784608125686,-0.0057182349264621,0.0654336544869933,0.0155839370563626
2025-04-30 01:25:22.753059600,7.7080595703125,0.2072226916788603,-0.0701363012194633,0.097771238381861,-0.0230051483958959,0.3164738747844539,0.942945698156772,0.6478007549570733,right,0.019740467891097,-0.0017485642592078,2.017644621644169,-9.596832945087552,-0.0337414173472162,0.1271445453166961,-0.0074185631237924,0.0171473960168834,-0.0083252172917127
2025-04-30 01:25:22.912723500,7.867723388671875,0.2062238196405218,-0.0450810492038726,0.0966528895883296,-0.0312673076987266,0.3124554114452197,0.9443336290481968,0.6397686303619509,right,-0.017211727797985,-0.0067421891681931,2.008015061903,-9.598639702248573,-0.0355497108173972,-0.1244641840457916,0.0015754377236589,0.0661176364294719,-0.0103701306506991
2025-04-30 01:25:23.112304600,8.0673046875,0.2067626151782714,-0.0324410945177078,0.0971748183312592,0.0603154115378856,0.311685750887948,0.9445610705588,0.6380006919515977,right,0.0196853391826152,-0.0052300527265743,2.013204739500582,-9.597643676948548,-0.0348341909127701,0.1370315253734588,0.0053913849405944,0.0512889097431674,-0.0186107400804758
2025-04-30 01:25:23.271970600,8.226970458984376,0.2086137973234041,0.0096015445888042,0.0991618476888846,-0.0415572188794612,0.3134707484777806,0.9438719871583432,0.6410691016590641,right,0.0077243195846676,0.0022151340268225,2.0309910099513826,-9.594007950794696,-0.031759362408968,0.0238496884703636,0.0013772776583209,-0.0217231760748894,0.0091842338442802
2025-04-30 01:25:23.311886800,8.266886962890625,0.2073373318282975,0.0113704008981585,0.0986042346853889,-0.0333195887506008,0.3136230000112091,0.9438910817434374,0.6413166766165764,right,0.0089479330927133,0.002526117911125,2.018741476970166,-9.596585692328214,-0.0314247044572255,0.0005434961058199,-0.0006941066822037,-0.0247728756518452,-0.0089790653437376
2025-04-30 01:25:23.351886800,8.306886962890625,0.2072717504561124,0.0072085685096681,0.0984829212544364,-0.0233852136880159,0.3139478146656897,0.943787007241384,0.642054827715941,right,0.0092671513557434,0.0020240499516334,2.0181144311130046,-9.596728900191188,-0.0316877361051281,-0.0090547762811183,0.0016223192214965,-0.0198492856615222,-0.0084499698132276
2025-04-30 01:25:23.391886600,8.346886474609375,0.2072064867541034,0.0030467365868389,0.0983615737255955,-0.0134508404880762,0.3142725092901382,0.943682659956196,0.6427927708972644,right,0.0095861554145812,0.0015219350884019,2.0174898694738745,-9.596869185444712,-0.031950752749275,-0.0186530463397502,0.0039384961128234,-0.0149252287386741,-0.0079209199175238
2025-04-30 01:25:23.431886800,8.386886962890625,0.2070851334364259,-0.0056022587232291,0.0982311972308508,-0.0079369153827428,0.3143947539993951,0.9436487443849866,0.6430928558160344,right,-0.000849425792694,0.0010871513113841,2.016326378652453,-9.597119360813496,-0.032151579409578,-0.0174157358705997,0.0082749426364898,-0.0106614600721746,-0.0021952902898192
2025-04-30 01:25:23.471886800,8.426886962890626,0.2059116501458716,0.0047725918702781,0.0977150830043122,-0.0274141784757375,0.3144581037183205,0.9436912506625016,0.6431618453698794,right,-0.0006400346755981,0.0013332575046068,2.005062349577248,-9.599476153072716,-0.0318543497465982,-0.0048444159328937,0.00564806163311,-0.0130749361133144,-0.0050678635016083
2025-04-30 01:25:23.511886800,8.466886962890625,0.2047381864082919,0.0151474419981241,0.0971989484826581,-0.0468914434313774,0.3145213626489111,0.9437334322181012,0.6432311847564799,right,-0.0004320740699768,0.0015792843212428,1.993795690153539,-9.60181891680658,-0.0315571144093463,0.0077269040048122,0.0030214339494705,-0.0154876324113865,-0.0079405177384614
2025-04-30 01:25:23.551886800,8.506886962890626,0.2031512239308018,0.0218565724790096,0.0965290999090413,-0.0422932915389537,0.3148666173594481,0.9437032480970928,0.6438527009373959,right,0.0046409964561462,0.0021433955342956,1.9785534050971267,-9.604960721963645,-0.0310713079325295,0.0084227714687585,0.0006511658430099,-0.0210196628814563,-0.0067959688603878
2025-04-30 01:25:23.711021800,8.666021728515625,0.1952153425597091,0.0093120420351624,0.0928417616660521,-0.061268962919712,0.316874009716533,0.9434467719502192,0.6477788143950287,right,-0.0063412552699446,0.0028804668453442,1.9022645306646824,-9.620341830968856,-0.0296560555285849,-0.0134197603911161,-0.0059753074310719,-0.0282478400197229,0.0052947765216231
2025-04-30 01:25:23.750937300,8.705937255859375,0.193294063686735,-0.0234308801591396,0.0919206803785791,-0.017966728657484,0.3167019080408607,0.9436028969604972,0.647366608085491,right,-0.0088313538581132,0.0027491625768878,1.8837782952509816,-9.623982233297824,-0.0293946483173173,-0.0146757988259196,0.0086562745273113,-0.0269601908123819,0.0101791182532906
2025-04-30 01:25:23.990428700,8.9454287109375,0.1924458188683289,0.0067649539560079,0.0927073262407738,-0.0016094314632937,0.3194402007377102,0.9427087709538408,0.6523919220493454,right,-0.0007004637736827,0.0106616729247821,1.875514617035538,-9.625065936881304,-0.0257595051444131,0.0475746914744377,0.004484184551984,-0.1045534578077029,-0.0137899750843644
2025-04-30 01:25:24.190007000,9.145007080078123,0.1873556979926131,0.0023160327691584,0.0906684918213754,-0.0119639858603477,0.3189149083798756,0.9431346702240652,0.6509426652991019,right,0.0107871741056442,0.0128179193850453,1.826451603180915,-9.634244099593165,-0.0238637707598181,0.0252453256398439,-0.0054133543744683,-0.1256975507864262,-0.0032764335628598
2025-04-30 01:25:24.230007000,9.185007080078124,0.1873740519772252,-4.91908285766e-05,0.0906047938422428,-0.020318916067481,0.3186810088927533,0.9432145513050556,0.6504921680747621,right,0.0045511126518249,0.0123284758633372,1.8266396730989216,-9.634269818556309,-0.0240771787284899,0.0220580678433179,-0.0036139786243438,-0.120898132881755,-0.0055855326354503
2025-04-30 01:25:24.270006800,9.2250068359375,0.1873921372934472,-0.0024144146591424,0.0905410755679937,-0.0286738462746143,0.3184470413143802,0.9432941888446092,0.6500415362695889,right,-0.001685082912445,0.0118390239815689,1.826824674277008,-9.634293783953783,-0.02429058102289,0.0188708081841468,-0.0018142908811569,-0.1160985962460748,-0.0078946324065327
2025-04-30 01:25:24.310006800,9.2650068359375,0.1865688303940541,-0.0171308536082506,0.0902406392952625,-0.0461897179484367,0.3181949100502776,0.9434181165177782,0.649439278977581,right,-0.0028727650642395,0.0123473755660464,1.8188808756656945,-9.635735214933751,-0.023892461672708,0.0320002138614654,0.0028237998485565,-0.1210834628534037,0.0042602252215147
2025-04-30 01:25:24.509328100,9.464328125,0.1808821318655166,0.0545588918030262,0.0872766465364468,0.0430515296757221,0.3183502311853745,0.9436461971752228,0.6497822782653048,right,0.0005501913256011,0.010600578196725,1.7640915931187569,-9.646116323694589,-0.0238270983742888,-0.0322008766233921,-0.0048808120191097,-0.1039543594033922,0.0180255286395549
2025-04-30 01:25:24.708910600,9.66391064453125,0.180282899336719,0.0704139098525047,0.088736076022345,-0.0134934894740581,0.3172441715819382,0.9440021772002928,0.6464768760192212,right,-0.01955496519804,0.0213912081264077,1.758007597029954,-9.645506667363644,-0.0184917100363172,0.1562320291996002,0.0005507201422005,-0.2097602284249849,-0.0303632393479347
2025-04-30 01:25:24.748826400,9.703826416015623,0.1817328999641638,0.1453842669725418,0.0901242085372176,0.0857116654515266,0.3190409056565521,0.943298565277072,0.6499087544711715,right,0.0277139395475387,0.0260361708746032,1.7717964684076606,-9.641884969735145,-0.0166826230776385,0.100416675209999,-0.0102391457185149,-0.2552989040783606,-0.0332991331815719
2025-04-30 01:25:24.788826000,9.743826171875,0.1801830102586636,0.0630688816308975,0.0896472504980668,0.0397760868072509,0.3193340342982684,0.9432619486667292,0.6503634291965719,right,0.0211477279663085,0.0276627086028845,1.756773817451298,-9.644197922852635,-0.0156879304149362,0.0731764733791351,-0.0075552463531494,-0.2712440401745029,-0.0175606161355972
2025-04-30 01:25:24.828826000,9.783826171875,0.1786322914205989,-0.0192465037107467,0.0891701678510781,-0.0061594955623149,0.3196266893644692,0.9432241078045892,0.6508205187434386,right,0.0145767331123352,0.0292885312161254,1.7417355305343865,-9.646464114218947,-0.0146932138541621,0.0459362640976905,-0.0048697590827941,-0.2871814496219158,-0.0018228832632303
2025-04-30 01:25:24.868826400,9.823826416015624,0.1775218989597702,-0.0819235816597938,0.088702670238435,-0.0095370337367057,0.3183730239255689,0.9436982922268312,0.6481262599973905,right,0.0050027966499328,0.0295209811939991,1.7310113074243068,-9.64832640095949,-0.0142865476257277,0.0294757373631,-0.008740410208702,-0.2894600255457684,-0.0066681280732154
2025-04-30 01:25:25.068150000,10.02314990234375,0.1730263242573044,0.0260688941925764,0.087213155457584,0.0132527640089392,0.3126389782424757,0.9457916096352628,0.635633601657068,right,0.0040196157060563,0.0330619521589392,1.687432131808251,-9.654940266141296,-0.0113537349097394,0.0354699715971946,-0.0172208119183778,-0.3241680585725233,-0.0275884643197059
2025-04-30 01:25:25.227807500,10.182807373046876,0.1762814295547397,-0.0014152186922729,0.088373138437756,-0.0380607023835182,0.3178449841640202,0.9439216798021358,0.646858195508496,right,0.019611220806837,0.0310870787788097,1.7189599273636935,-9.65000807043612,-0.0132933940476497,0.012464640662074,0.0046055018901824,-0.3048111412715166,-0.0006742201512679
2025-04-30 01:25:25.427385600,10.382385498046874,0.183234896162224,-0.0185541193932294,0.0911261676368211,-0.0070226634852588,0.3174533892340788,0.9437501180710663,0.6464237429508706,right,-0.0085571939125657,0.0277133056430316,1.786196019029617,-9.63877823589146,-0.0159718460433508,0.0137867871671915,-0.0016600601375102,-0.27174004353052,-0.0056377141736447
2025-04-30 01:25:25.587047000,10.542046875,0.1743288560496562,-0.0220970138907432,0.0867194210787593,-0.0155589822679758,0.3146183266557858,0.9451289748144768,0.6404083767998588,right,0.0160108413547277,0.0261339744369638,1.7003553262673317,-9.654714056169986,-0.0150434699212237,-0.0423670783638954,-0.0037092864513397,-0.2562577026405371,-0.0150901321321725
2025-04-30 01:25:25.786611500,10.741611572265626,0.1760870108447622,0.0520968809723854,0.0856179754852518,0.0082425912842154,0.3158541822902928,0.9446989377820544,0.6440814373059042,right,0.0053509641438722,0.0140230971304561,1.7177448524855077,-9.654057638087869,-0.0212040853100573,-0.0230856295675039,0.0070440326817333,-0.1375152408221736,-0.0027530812658369
2025-04-30 01:25:25.826611500,10.781611572265623,0.1774750178506941,0.0159783028066158,0.0861614147707555,0.0010939976200461,0.3166216376420198,0.944379553761875,0.6457894385869754,right,-0.0003622174263,0.0134282274722418,1.731157291766256,-9.651742931404709,-0.0217779559128243,-0.0198789555579423,0.0053970366716384,-0.1316821142219006,0.0044839568436145
2025-04-30 01:25:25.866611700,10.82161181640625,0.1788640153445493,-0.0201402828097343,0.0867047424331181,-0.0060545969754457,0.3173886779016267,0.944058841612336,0.6474982102630787,right,-0.0060778260231018,0.012835739624553,1.7445754301354288,-9.649403674802183,-0.0223517953070959,-0.0166722815483808,0.0037494599819183,-0.125872295431979,0.0117233721539378
2025-04-30 01:25:25.906611700,10.86161181640625,0.1788435489631229,-0.0180632248520851,0.086571164329633,-0.0170833617448806,0.3174012565534554,0.9440581256117424,0.6475924200414035,right,-0.0013483762741088,0.0120590219563036,1.7443948128715157,-9.649532854139805,-0.0227193971575285,-0.0154448058456182,0.0013374537229537,-0.1182558838778175,0.0020026667043566
2025-04-30 01:25:25.946611700,10.90161181640625,0.1787672082423277,-0.0222155284136533,0.0863843391713232,-0.0061490135267376,0.3172357202163389,0.944120337361457,0.6473252280982305,right,-0.0015394687652587,0.0110863292784205,1.7436777506433427,-9.649774846202137,-0.0231550429495997,-0.0138619691133499,-0.0009614527225494,-0.1087176739482209,0.0022841831669211
2025-04-30 01:25:26.145847300,11.100847412109376,0.1725211697402479,-0.0668663308024406,0.0835301352580633,-0.0465639159083366,0.3182655730592822,0.944060452683624,0.6492945366935828,right,0.005363468080759,0.0118211040037517,1.683357137454301,-9.66039619345963,-0.0218993942170735,0.0041643003933131,0.0039847954176366,-0.1159228743529878,0.0064175771549344
2025-04-30 01:25:26.185762300,11.14076220703125,0.1725262866213361,0.0777772292494773,0.0835655130400852,0.0497279167175293,0.3180725251820592,0.9441247546493896,0.6488706170547527,right,0.0152239156886935,0.0119997522061255,1.683402876292169,-9.660366967365146,-0.021798137943557,-0.0033636223524808,-0.0138787440955638,-0.117674695589533,-0.0381359532475471
2025-04-30 01:25:26.345423000,11.300423095703126,0.1726632313117246,-0.0011992710642516,0.0838093258827187,-0.1208483651280403,0.3228360662918292,0.9424942424244066,0.6588219727826664,right,-0.0050149410963058,0.0137947604485756,1.684686924753338,-9.659912793856858,-0.0213895329110556,-0.0349486656486988,-0.0142533518373966,-0.1352762388568837,-0.0098435375839471
2025-04-30 01:25:26.544998100,11.499998046875,0.1739703534866048,-0.0347632989287376,0.0848690668993177,-0.0410912260413169,0.3217139150924299,0.9428078511068172,0.6562510157822389,right,-0.0039808126166462,0.0163918629032866,1.6972455236837267,-9.657323946407438,-0.0202671152294864,0.0119723659008741,0.0090822745114564,-0.1607422044895589,-0.0042442511767148
2025-04-30 01:25:26.704659000,11.659658935546876,0.1715419928368473,-0.0287390574812889,0.0829741180437601,-0.0321204923093318,0.3202926160810763,0.9434200187184666,0.6535922623971886,right,-0.0170844309031963,0.0115274617998373,1.6739027881495654,-9.66207318676114,-0.022060581364883,-0.0483975373208522,0.006915402598679,-0.1130434281928464,-0.0013095155591145
2025-04-30 01:25:26.864317200,11.819317138671876,0.1701633713504919,0.0239613391458988,0.0825370025413669,-0.0267678778618574,0.320564022330021,0.943385536743449,0.6540220044453786,right,-0.0017984037986025,0.0128912624805516,1.6605531849719584,-9.664210783311724,-0.0212139576366014,-0.001586532453075,-0.004594427999109,-0.1264167410396039,-0.0058978614397346
2025-04-30 01:25:26.904232200,11.859232177734375,0.1692591823474027,-0.0048624728806316,0.0820156957488525,-0.0004633123171515,0.320656109105701,0.9433966827229612,0.6542448382794375,right,0.0014589705970138,0.0123128551543466,1.6518262731589377,-9.665778471019864,-0.0213511052497086,-0.0319588556885719,-0.0042491811327636,-0.120744951614039,-0.0021474156528711
2025-04-30 01:25:26.944232200,11.899232177734374,0.1692769458820989,-0.0279373377561569,0.0817834024934777,0.0077789202332496,0.3200694158128012,0.9435998393534616,0.6531327578520629,right,0.0055334568023681,0.0107304476484683,1.652028079341352,-9.665925186014174,-0.0220551595362605,-0.053268689662218,-0.0064916163682937,-0.1052278682042378,0.0003821114078164
2025-04-30 01:25:26.984232200,11.939232177734375,0.169503314700641,-0.0509174317121505,0.0814859762979428,-0.0082434322685003,0.3192778636430994,0.9438643420282512,0.6516805181231067,right,0.0013648271560668,0.0080921639888318,1.6542571535676718,-9.665791330501436,-0.0232773181640179,-0.0696008950471878,-0.0056640207767486,-0.0793562991790473,0.0004786155186593
2025-04-30 01:25:27.024232200,11.979232177734374,0.1693755845424752,-0.0261929053813219,0.0809816234389736,-0.0115456562489271,0.3185097030034544,0.9441345583935654,0.6502923656608735,right,-0.0150456428527832,0.0051981665938324,1.653054353649169,-9.666188220864534,-0.0245667961543128,-0.0679200366139411,0.0084819197654724,-0.050976519325748,-0.0149767100811004
2025-04-30 01:25:27.064232200,12.019232177734375,0.1688672748697169,-0.0064906291663646,0.0802455204169687,-0.014484342187643,0.3182043407191304,0.9442631282283848,0.6498971201168775,right,-0.0103845000267028,0.0020471074378932,1.6481595673449336,-9.667137484413384,-0.0259577221466624,-0.0643463432788848,0.0065410882234573,-0.0200754020179971,0.0013811001554131
2025-04-30 01:25:27.104232200,12.059232177734376,0.1682317339298532,0.0413902699947357,0.0796550445548705,-0.0203314237296581,0.3186441168056633,0.9441435418861966,0.6509572947111886,right,-0.009533405303955,0.0003100650541728,1.642018726502359,-9.668203067818284,-0.0267190079448119,-0.0294354557991027,0.0008958578109741,-0.0030408512626861,0.0039363196119666
2025-04-30 01:25:27.144232200,12.099232177734375,0.1677206193637868,0.0356283821165561,0.0793385222493232,-0.007018668577075,0.3194705633289164,0.9438869197093086,0.6527209826242565,right,-0.0042336583137512,-1.36794703678e-05,1.637077032316476,-9.669041272208094,-0.0268603808384873,0.0100492760539054,-2.5063753128e-05,0.0001339972728535,0.014630670659244
2025-04-30 01:25:27.184232200,12.139232177734376,0.1672649320972468,0.0094646643847227,0.0792280905721534,-0.0091955009847879,0.3194143872696389,0.9439259516201162,0.6525353954810911,right,0.0012010335922241,0.0006259446207818,1.6326704679206012,-9.669784784051776,-0.0264783690625268,0.0120693687349557,0.0007891505956649,-0.0061385718244971,0.0114510161802172
2025-04-30 01:25:27.224232200,12.179232177734375,0.1668093772841212,-0.0166990552097558,0.0791176455012509,-0.0113723333925008,0.3193581885132776,0.943964902350445,0.6523502038073636,right,0.0066350698471069,0.0012656474218185,1.6282641957856714,-9.67052128163278,-0.0260963562770367,0.0140894623473286,0.0016033202409744,-0.0124119101938966,0.0082714380696415
2025-04-30 01:25:27.264232200,12.219232177734376,0.1663663975013921,-0.0611543655395507,0.0789162418771302,-0.0190302263945341,0.3186672807931386,0.9442179398177616,0.6508803584416653,right,0.0105252861976623,0.0011939365140365,1.623980380986631,-9.671242581644654,-0.0260014717565597,0.0150907039642333,-0.0001943558454513,-0.0117086664285219,0.0107414070516824
2025-04-30 01:25:27.304232200,12.259232177734376,0.1651274200731549,-0.0732932910323143,0.0784663579981966,-0.0331680439412593,0.317387340868935,0.9447027087438896,0.6480844695686613,right,0.002820074558258,0.0018184279971188,1.611995198030025,-9.673238139376044,-0.0253995410335412,0.0376035943627357,0.0007742047309875,-0.017832827847643,0.0078085223212838
2025-04-30 01:25:27.344232400,12.299232421875,0.1635478268207067,-0.0693523809313774,0.0778373069297809,-0.0432354360818862,0.3159352087866162,0.9452575020978088,0.6449289345141438,right,-0.0049672126770019,0.0023094178614888,1.5967117041803895,-9.6757626894176,-0.024794130551636,0.0218809787184,-0.0021488666534423,-0.0226477823898079,-0.00288299145177
2025-04-30 01:25:27.384232200,12.339232177734376,0.1624233611092695,-0.0518047884106636,0.0773629046451274,-0.0034261718392372,0.3147633390195408,0.9456964762258124,0.6424072667571589,right,0.0038062334060668,0.0024752746856428,1.5858300985515117,-9.677548403790592,-0.024440579704392,0.0134500535205006,0.0010280013084411,-0.0242742761966539,0.0018485100008547
2025-04-30 01:25:27.424232200,12.379232177734377,0.1635223516675528,-0.0050423964858055,0.0778917041409257,0.0493702143430709,0.3140440217738874,0.945888442167373,0.6409193643033101,right,-0.002148687839508,0.0024170475549704,1.5964648898124694,-9.67580068334043,-0.0245831330565737,0.0047076558694243,-0.0027055889368057,-0.0237032645258004,-0.0153026990592479
2025-04-30 01:25:27.464232200,12.419232177734376,0.1657935497791204,0.0503667965531349,0.0791474923490548,0.0630285292863845,0.3144391666164245,0.9456577470608354,0.6417137223269684,right,-0.0058150887489318,0.0036367297186096,1.6184303456440567,-9.672114103782176,-0.0243943548864594,0.0344074964523315,0.0042138248682022,-0.035664205807005,-0.0075212544761598
2025-04-30 01:25:27.504232200,12.459232177734377,0.1678995396560227,0.0577042549848556,0.0804845752422131,0.0409218184649944,0.3153775873912027,0.9452498634489828,0.6435608743670219,right,-0.010811448097229,0.0059496458830536,1.638777991015464,-9.668577161827685,-0.0237061401832744,0.0446541868150234,0.0057158768177032,-0.0583458973162807,0.0019734287634491
2025-04-30 01:25:27.544232200,12.499232177734376,0.1684066928206879,0.0597138032317161,0.0811656541704177,-0.0084014534950256,0.3164760320034877,0.9448544375373104,0.6456526398568426,right,-0.0113778710365295,0.0089025836654506,1.6436451586604115,-9.667532621210812,-0.0224751562661934,0.0633193999528884,0.0063454508781433,-0.0873035135901533,0.0047531444579362
2025-04-30 01:25:27.584232400,12.539232421875,0.1680104842597297,0.0452385619282722,0.0814140983482513,-0.0128541160374879,0.3172724874448865,0.9445971415450388,0.6470937479791847,right,-0.0065372586250305,0.0117584769947103,1.6397662714004515,-9.667897947391866,-0.0211215444121552,0.0738869905471801,0.0023707449436187,-0.1153087519094813,0.0024569295346736
2025-04-30 01:25:27.624232200,12.579232177734376,0.1675039136130902,0.0558933392167091,0.0816673937700166,-0.0103149404749274,0.3181688065760417,0.9443068045799644,0.6487177673641025,right,-0.0099079012870788,0.0149735471567995,1.6347984198600052,-9.668311788889763,-0.0195884677579166,0.0688111260533332,0.0056966543197631,-0.1468349948286544,0.0001267381012439
2025-04-30 01:25:27.664232200,12.619232177734377,0.1676263855913723,0.0166718289256095,0.0820695666057761,0.010537096299231,0.3188592967093012,0.944059004160461,0.6500001096436009,right,-0.0027674436569213,0.0172216824020604,1.6359231861062349,-9.66776175379157,-0.0185986560664322,0.0468860790133476,0.0058541446924209,-0.1688788039929233,0.0062891319394111
2025-04-30 01:25:27.704232200,12.659232177734374,0.1681862892740615,-0.0235825218260288,0.082597768105039,-0.0021480983123183,0.3186974089273048,0.9440812028603152,0.6495352081497066,right,-0.0003026127815246,0.0188581793029121,1.641287489618361,-9.666558807742597,-0.0178958799783193,0.0455439798533916,0.0024623125791549,-0.1849247518487274,0.0048001203685998
2025-04-30 01:25:27.744232200,12.699232177734377,0.1678807824685446,-0.0512398481369018,0.0826596190355645,-0.0156894400715827,0.3178731853254862,0.944366437321318,0.6476866220928995,right,0.0048483610153198,0.0200570283135405,1.6382960527174173,-9.666834117552638,-0.0172045870903583,0.0385054424405097,0.003746673464775,-0.1966792130556889,0.0020659752190113
2025-04-30 01:25:27.784232200,12.739232177734374,0.1664319926796476,-0.0212706010788679,0.0820730363421636,-0.0274125430732965,0.3171077564221611,0.9446847733755908,0.6459974974271872,right,0.0035964250564575,0.0205846438660409,1.6242717651486396,-9.669093879178163,-0.0166557160324749,0.0262074507772922,0.0017579495906829,-0.2018522865783423,-0.0089983232319355
2025-04-30 01:25:27.824232200,12.779232177734375,0.1649840483952135,0.008698645979166,0.0814863373608803,-0.0391356460750103,0.3163418604879344,0.945001752058806,0.6443089689852184,right,0.0023419260978698,0.0211147005233263,1.6102518614940344,-9.671329090884328,-0.0161068206674814,0.0139094581827521,-0.0002312064170837,-0.2070492341669276,-0.0200601834803819
2025-04-30 01:25:27.864232200,12.819232177734374,0.1641336759046766,0.0328989140689373,0.0811699818724032,-0.0081227589398622,0.3165339408774978,0.944971243165719,0.6446569871751725,right,-0.001534879207611,0.0216752066447143,1.6020079108923673,-9.672578798684476,-0.0157214302751128,0.0037159724161028,-0.0028537660837173,-0.2125446532454341,-0.0125359613448381
2025-04-30 01:25:27.904232200,12.859232177734375,0.164146470170089,0.0173744037747383,0.0812054746326239,0.0020433589816093,0.3169471687404032,0.9448308959262054,0.6455138060712469,right,-0.0054179430007934,0.021904823167324,1.6021236462265251,-9.672509825101494,-0.0156496888456938,-0.0139004858210682,-0.0024269819259643,-0.2147959027709439,-0.0101736132055521
2025-04-30 01:25:27.944232200,12.899232177734374,0.1645428268882545,0.013708509504795,0.0813645696671357,0.0024300855584442,0.3172386938370532,0.9447166979465972,0.6461490742031182,right,-0.0004028677940368,0.0217580540281937,1.6059623476065694,-9.671904844945669,-0.0158077243500716,-0.0181375704705715,-0.0013704001903533,-0.2133569194763898,-0.0128734000027179
2025-04-30 01:25:27.984232200,12.939232177734375,0.164018970095152,0.0355269834399223,0.080953775942322,-0.0237911287695169,0.3176669161215337,0.9446008670696276,0.6471243925777791,right,0.0034262537956237,0.0207729111286105,1.6009290296144782,-9.67294763199687,-0.0162297413534497,-0.0385362580418586,-0.0065918415784835,-0.2036981519070453,-0.0172249060124158
2025-04-30 01:25:28.024232200,12.979232177734374,0.1632386416266109,0.0551541894674301,0.0804243568981819,-0.0058564022183418,0.3186984778605178,0.9442917986196367,0.6493660883225896,right,0.0079904198646545,0.0198726425782634,1.5934095938950776,-9.674370942798255,-0.0166214012015261,-0.0420624315738678,-0.0113320499658584,-0.1948713599161244,-0.0016725622117519
2025-04-30 01:25:28.064232200,13.019232177734375,0.1636257604026484,0.043690413236618,0.080518355957084,0.0319324620068073,0.3196991460602378,0.9439390706689732,0.651527701811125,right,0.0080927014350891,0.0194282568087302,1.597168654167652,-9.673837858834862,-0.0169800497034417,-0.0107309743762016,-0.0148568451404571,-0.1905142789514735,0.0084641892462968
2025-04-30 01:25:28.104232200,13.059232177734376,0.1655774899380935,0.0212816521525383,0.0815749417794693,0.069996103644371,0.3202723501873624,0.9436552663291884,0.6527050606617562,right,-0.0005278587341308,0.0203423510011023,1.6160168547615408,-9.670526542329789,-0.0169084249995677,0.0230099409818649,-0.0143860578536987,-0.1994766982871107,0.0137325525283813
2025-04-30 01:25:28.144232200,13.099232177734375,0.1674623967324723,-0.0020513050258159,0.082667054523708,0.0444593131542205,0.3204041044723468,0.9435207500719373,0.6529151901043402,right,-0.0057689547538757,0.0216262924480891,1.6341979697488247,-9.667202950865027,-0.0166128410080763,0.0453816354274749,-0.0018245875835418,-0.2120650895675644,0.0143664060160517
2025-04-30 01:25:28.184232200,13.139232177734376,0.1685404671729843,-0.0211499836295843,0.0835023309048505,0.0190434642136096,0.3200573195933164,0.9435788015144972,0.6520372698407567,right,-0.0096944570541381,0.0236333354328833,1.644544299457222,-9.664996380731464,-0.0158015042738988,0.0689474940299987,0.0090322792530059,-0.2317424161956645,0.0060869082808494
2025-04-30 01:25:28.224232200,13.179232177734375,0.1681388977034804,-0.0277677848935127,0.0836905466917394,-0.0229553990066051,0.3193930750165188,0.9438068352720654,0.6504385172349119,right,-0.001733124256134,0.0259342184178292,1.6405694044768808,-9.665104517281057,-0.0145840492600441,0.0636280104517936,0.0093205273151397,-0.2542994264459237,-0.0056140385568141
2025-04-30 01:25:28.264232200,13.219232177734376,0.1675786452641433,-0.0081181116402149,0.0836606144774058,-0.0072789620608091,0.3189111517638875,0.943984638153624,0.6492951975842295,right,0.016317069530487,0.0273622817375044,1.6350919959791004,-9.66565455237925,-0.0137723312730682,0.0237149074673652,0.008409559726715,-0.2682989814322442,-0.0089728757739067
2025-04-30 01:25:28.304232200,13.259232177734376,0.1674805575308866,0.0298824869096279,0.0835715715721658,-0.0170503593981266,0.3190928126493373,0.9439293841155566,0.6496986865385362,right,0.0107657313346862,0.0271100675012923,1.6341551535204053,-9.665881346872448,-0.0138926858631514,-0.033655397593975,0.0002897977828979,-0.265826508637797,-0.0078320819884538
2025-04-30 01:25:28.344232400,13.299232421875,0.1680748779180102,-0.0210848189890384,0.0836724029296599,0.045979831367731,0.3195299897258857,0.943762778832506,0.6507205852764794,right,0.0145547986030578,0.026023221023766,1.6399468886643649,-9.66518751938939,-0.014543591238415,-0.0402398444712162,0.008121371269226,-0.2551719532304443,0.024284029379487
2025-04-30 01:25:28.384232200,13.339232177734376,0.1690928096868369,-0.0702838525176048,0.0840255445599774,-0.003753762692213,0.3186358467557521,0.9440256805666528,0.648913093951287,right,-0.0146612524986267,0.0251359879261288,1.6498219475992022,-9.66373205988407,-0.015049251598555,-0.0035174377262592,0.0094499439001083,-0.2464740117835812,0.0116173801943659
2025-04-30 01:25:28.424232200,13.379232177734377,0.1691867812192372,-0.0898147821426391,0.0839920329761969,0.0107901813462376,0.3170577028082428,0.9445569314075212,0.6456245960986956,right,0.0013095736503601,0.0244852287858461,1.6507567442312836,-9.66373322892785,-0.01523352316492,0.0084918914362788,0.0187819898128509,-0.2400942110859789,-0.0003308244049549
2025-04-30 01:25:28.464232200,13.419232177734376,0.1694445496596908,-0.1056182160973548,0.0839511472947621,-0.007842662744224,0.3151904718271196,0.9451777601296222,0.6417755330310385,right,-0.0099682807922363,0.023260412947384,1.6532960534505543,-9.663590021064875,-0.0156916980038269,-0.0306020267307758,0.0144807547330856,-0.2280863048409111,-0.0024870168417692
2025-04-30 01:25:28.504232200,13.459232177734377,0.1687322944586572,-0.0683255195617675,0.0831370845509712,-0.0231743678450584,0.3134551589588826,0.9458045940158696,0.6383549849939184,right,0.0194019079208374,0.0200275797527606,1.6465278744898737,-9.665441786411405,-0.0169661129724589,-0.082054853439331,0.0124030411243438,-0.1963904775084927,-0.0184174198657274
2025-04-30 01:25:28.544232200,13.499232177734376,0.1686273763592456,0.0718247890472412,0.0825673564980326,-0.004420505836606,0.3137410971913361,0.9457302070391964,0.6392253531214571,right,0.0059226751327514,0.0167443996904088,1.645613097732514,-9.666197573214768,-0.0185390762233283,-0.1010667607188224,0.0052283257246017,-0.164198939081002,-0.0280522983521223
2025-04-30 01:25:28.584232400,13.539232421875,0.1687119314098918,0.0887122079730033,0.0820385404253098,0.0078190183266997,0.3153617323359367,0.9452005114460048,0.642934295709125,right,0.0042357444763183,0.013343914716451,1.6465147227473556,-9.666552962523696,-0.0203132104097122,-0.0913216322660446,-0.0112217515707015,-0.1308553628078661,-0.0141137531027197
2025-04-30 01:25:28.624232200,13.579232177734376,0.1692236454084996,0.0911440551280975,0.081919405007505,0.0165396369993686,0.3173021422843034,0.9445346278653948,0.6472185745829886,right,-0.0027663707733154,0.0113392536008255,1.6515018635101617,-9.665948566889762,-0.0215171543759292,-0.0940694361925125,-0.012149766087532,-0.1111978551250882,-0.0001944359391927
2025-04-30 01:25:28.664232200,13.619232177734377,0.1709764100400169,0.0527246408164501,0.0824836417812137,0.0558847226202487,0.3188284848801525,0.943945825907573,0.6506113341056002,right,-0.0128508806228637,0.0099152374594196,1.6684665884450076,-9.663184947395324,-0.0226078620751937,-0.0404642783105373,-0.0072036981582641,-0.0972338189767207,0.014734711498022
2025-04-30 01:25:28.704232200,13.659232177734374,0.1717454845566622,-0.0007293261587619,0.0827373305597361,0.0253026783466339,0.3192371756919919,0.9437745374917824,0.6515481594187005,right,-0.0037388205528259,0.0092958432164575,1.6759078443616628,-9.661956866905092,-0.0230616277500138,-0.004523042589426,-0.0042518526315689,-0.0911599150236695,0.0139770247042179
2025-04-30 01:25:28.744232200,13.699232177734377,0.1723468399265575,-0.0335313826799392,0.0830172672270986,0.0241149254143238,0.3188137456941107,0.9438906039732036,0.6506730599503547,right,-0.0018430352210998,0.0092080849709692,1.6817191609889268,-9.66095499638617,-0.0231627144142177,0.0134127754718065,-0.0038328915834426,-0.0902993344052694,0.013676787726581
2025-04-30 01:25:28.784232200,13.739232177734374,0.1722715026513172,-0.0331255421042442,0.0829696679629371,-0.0046425983309745,0.3180836720865639,0.9441406750690476,0.6491403500641524,right,-0.0057066082954406,0.0090204896669873,1.680994207715243,-9.661098204249145,-0.0231756914698885,0.0087634455412626,-0.001451164484024,-0.0884597344205714,0.0062127783894538
2025-04-30 01:25:28.824232200,13.779232177734375,0.1715380074894295,-0.0253894757479429,0.0826315247719749,-0.0149418786168098,0.3175058008711568,0.944368498310702,0.6479017275614427,right,-0.0044943690299987,0.0089817278738506,1.6739080488465723,-9.662332129958273,-0.0230261650324,0.0188425369560718,-0.0008464604616165,-0.0880796216623392,0.0024993112310767
2025-04-30 01:25:28.864232200,13.819232177734374,0.1703610671873965,-0.0053100660443305,0.082208721933427,-0.0256268568336963,0.317134489558427,0.9445443466293852,0.6470217423106092,right,-0.0021604299545288,0.0097587003074937,1.6625227314792572,-9.664224811837077,-0.0224361602865446,0.0338413901627063,-0.0008860528469085,-0.095698782296013,-0.0039725685492157
2025-04-30 01:25:28.904232200,13.859232177734375,0.1694143436790267,-0.0017018860671669,0.0819829293108446,-0.0071285311132669,0.3170634176458197,0.944606799029515,0.6467340972178839,right,0.002463161945343,0.0111383594971984,1.6533488065510986,-9.66565513690114,-0.0216224604591975,0.0331732146441936,-0.0003309994935989,-0.1092278793595265,-0.005309946835041
2025-04-30 01:25:29.059748900,14.014748779296877,0.1625031652927176,-0.0512080676853656,0.0791028842435977,-0.0916121304035186,0.3155559108084593,0.9454063496433868,0.6432140319923051,right,0.0108329616487026,0.0133547548398554,1.5864657661065458,-9.676588034325835,-0.0193400475411714,-0.0740765109658241,0.0016269669868052,-0.1309616544602438,-0.0118470657616853
2025-04-30 01:25:29.099667700,14.054667724609375,0.1617687147333832,-0.007422384340316,0.078288412485649,0.0012400045525282,0.3154866209396875,0.9454700105535444,0.6432870710582863,right,0.0097790211439132,0.0103888326600185,1.5794139478988944,-9.678091424626112,-0.0206295531350834,-0.0705063194036483,2.57098581641e-05,-0.101877954988135,-0.013835678808391
2025-04-30 01:25:29.139667700,14.094667724609376,0.1635628417694256,-0.0277734696865081,0.0788210992297077,0.0087820114567875,0.3146311021978485,0.9456833830265112,0.6416870527557093,right,-0.0061195492744445,0.0082729789263782,1.5968066889874637,-9.675433603593708,-0.0218499419781162,-0.0545411221683025,0.006108820438385,-0.0811294280651025,-0.0088646244257688
2025-04-30 01:25:29.179667700,14.134667724609375,0.1646905562868806,-0.0552853755652904,0.0791292774431889,0.0025380100123584,0.3135699460543633,0.9459902225509969,0.6395981631567514,right,-0.0056146383285522,0.0066884001261653,1.6077357870198783,-9.673741412723064,-0.0226940909302207,-0.0263012740761041,0.0072777569293975,-0.065590457050479,-0.0011755204759538
2025-04-30 01:25:29.219667700,14.174667724609376,0.1647855638165837,-0.0381931364536285,0.0790811589398517,-0.0183128118515014,0.3125360253278155,0.9463293593757636,0.6374760979493632,right,-0.0041717290878295,0.0059378243171931,1.6086625464759765,-9.673634445217251,-0.0229801772136645,-0.0104704461991786,0.0051681399345397,-0.0582299701858777,-0.0059156008064746
2025-04-30 01:25:29.259667700,14.214667724609376,0.1645322146302913,-0.0136294998228549,0.0788889235152532,-0.0074082482606172,0.3120427327595568,0.946503907791618,0.6364714058295563,right,0.0008215308189392,0.0053995094543503,1.6062164684981106,-9.674071083068847,-0.0231557138739405,-0.0132483821362257,0.0022916793823242,-0.0529509886033367,-0.0037712650373578
2025-04-30 01:25:29.299667700,14.254667724609376,0.1643185896646484,0.0058874897658824,0.0787454580235118,-0.003679916029796,0.3119996278692597,0.946527862975521,0.6363977657908696,right,0.0033085942268371,0.0051221613778628,1.6041522294446826,-9.674428225943446,-0.0232507514787597,-0.0065276469103991,0.0006398260593414,-0.0502311717180069,-0.002044322900474
2025-04-30 01:25:29.339667700,14.294667724609376,0.1643185896646484,0.0111728776246309,0.0787454580235118,0.0065015079453587,0.3119996278692597,0.946527862975521,0.6363977657908696,right,0.0008002519607543,0.0051221613778628,1.6041522294446826,-9.674428225943446,-0.0232507514787597,-0.0046162540093064,-0.0004636943340301,-0.0502311717180069,-0.0017708330415189
2025-04-30 01:25:29.379667700,14.334667724609377,0.1644537185167522,0.0085858637467026,0.0787808143614158,0.0019435272552073,0.3123345384285819,0.9464116879938328,0.6371193364855323,right,0.0016948580741882,0.0049926731749417,1.6054605355642737,-9.674217213541269,-0.0233615490536946,-0.017115656286478,1.5497207641e-06,-0.0489613435784354,0.000665224622935
2025-04-30 01:25:29.419667700,14.374667724609376,0.1646234737783869,-0.0061736749485135,0.0787221463326155,0.0078317672014236,0.3124093517378556,0.9463806180397134,0.6373529927502531,right,0.0019510388374328,0.0041193570213672,1.6071091795541346,-9.673983404785394,-0.02381057006886,-0.0209662765264511,-0.000412493944168,-0.0403971252135699,0.0005574724636971
2025-04-30 01:25:29.459667700,14.414667724609377,0.164937943218582,-0.0056418804451823,0.0787423388082693,0.0113714346662163,0.3122732337937209,0.9464128107127158,0.6371422615937401,right,0.000196635723114,0.0032788517434643,1.6101562921650707,-9.67350760396719,-0.0242491453857906,-0.0143710346892476,0.0005934685468673,-0.0321546404832042,-0.0009278692305088
2025-04-30 01:25:29.499667700,14.454667724609376,0.1654052554814232,0.0004520211368799,0.078863162941341,0.0127822831273078,0.312255806727959,0.9463986899012952,0.637170196530151,right,-0.0032103657722473,0.0026380724537085,1.6146797609388828,-9.672772275429963,-0.0246264561829631,-0.0121069997549057,0.0028859227895736,-0.0258707721574581,0.0011469249147921
2025-04-30 01:25:29.539668000,14.49466796875,0.1656008023272468,-0.0011625554179772,0.0788998738000246,0.0022639520466327,0.3122657952693108,0.9463871445942648,0.6372255954970318,right,0.000173807144165,0.0022847240715668,1.6165725889481604,-9.672464816915989,-0.0248263841400237,-0.0048629455268383,0.002709686756134,-0.0224056190808303,0.0039403988048434
2025-04-30 01:25:29.579667700,14.534667724609376,0.1655035761215957,-0.0101720839738845,0.0788623713398383,-0.0091260764747858,0.3121065307234654,0.9464439267253084,0.6368842360536949,right,-0.0026156902313232,0.0023121194048331,1.6156320932276549,-9.672621468782424,-0.0247847778286004,0.0001254961825907,0.0021265447139739,-0.0226742731045116,0.0044425358064472
2025-04-30 01:25:29.619667700,14.574667724609377,0.1655035761215957,-0.0191816128790378,0.0788623713398383,-0.0205161049962043,0.3121065307234654,0.9464439267253084,0.6368842360536949,right,-0.0054211616516113,0.0023121194048331,1.6156320932276549,-9.672621468782424,-0.0247847778286004,0.005113938357681,0.0014474838972091,-0.0226742731045116,0.0049172779545187
2025-04-30 01:25:29.659667700,14.614667724609374,0.1648570944012099,9.73995774984e-05,0.0786326856113416,-0.0178109630942344,0.3118861433981889,0.946544274756292,0.6363647812875421,right,-0.0012862682342529,0.0027602373920784,1.6093766860947012,-9.673652565395832,-0.0244513951793568,0.0215422045439481,0.0015908926725387,-0.0270687954361434,0.0004936254117637
2025-04-30 01:25:29.699667700,14.654667724609377,0.1647418366628295,0.0068160239607095,0.0787348050277289,0.0075550246983766,0.3119296618495689,0.9465341643929992,0.636371291328374,right,0.0038748383522033,0.003766174832732,1.608256449893117,-9.673806294652818,-0.0239575484926165,0.0306824743747711,0.0009184479713439,-0.0369336183880455,0.002132082125172
2025-04-30 01:25:29.739667700,14.694667724609374,0.1650083130994206,-9.66130755841e-05,0.0790386136409727,0.0090134311467409,0.311983451517734,0.9465035020092716,0.6363979931361027,right,0.0020928978919982,0.0049086480254047,1.6108263003811238,-9.673329324790837,-0.0234594222663957,0.02651072666049,0.0013236701488494,-0.0481373458104906,0.0017084833234548
2025-04-30 01:25:29.779668000,14.73466796875,0.1653864734026027,-0.0301023703068494,0.0793426521926538,0.0081145772710442,0.3116493519388483,0.9465961244941477,0.6356402162191469,right,-0.0019847154617309,0.0056551967423783,1.614477808625996,-9.672681674537062,-0.0231350015817232,0.0172837618738412,0.0007301121950149,-0.0554583865806926,0.00383553490974
2025-04-30 01:25:29.819667700,14.774667724609374,0.1653927383508861,-0.0275935567915439,0.0794043963030626,-0.0027038371190428,0.3109560546269476,0.9468233971206494,0.6341537521986388,right,-0.0004723668098449,0.0059231799192697,1.61453596855402,-9.672656540095806,-0.0229501142644812,0.0106433685868978,0.0009272843599319,-0.0580863604641053,-0.0027559041045606
2025-04-30 01:25:29.859667700,14.814667724609375,0.1654663946115772,-0.0072890967130661,0.0794510801881186,0.0110806496813893,0.3105896328152251,0.946940504901696,0.6333800649163396,right,0.0025513768196105,0.0059421551566949,1.6152482084766029,-9.67253671310842,-0.0229218431528336,-0.0021293759346008,0.0011044442653656,-0.0582724393544252,-0.0018791630864143
2025-04-30 01:25:29.899667700,14.854667724609374,0.1658392054020439,-0.0078458078205585,0.0796165884201005,0.0036518583074212,0.310603430159539,0.9469198860439396,0.6334238207388757,right,-1.07288360595e-05,0.0058744408922401,1.6188547085359692,-9.671937578171493,-0.0230135434151963,-0.0021072688978165,0.0019313842058181,-0.057608399654855,0.0006380560807883
2025-04-30 01:25:29.939667700,14.894667724609375,0.1658392054020439,-0.0084025198593735,0.0796165884201005,-0.0037769326008856,0.310603430159539,0.9469198860439396,0.6334238207388757,right,-0.0025117397308349,0.0058744408922401,1.6188547085359692,-9.671937578171493,-0.0230135434151963,-0.0020851618610322,0.0031260848045349,-0.057608399654855,0.0032229924108833
2025-04-30 01:25:29.979667700,14.934667724609374,0.1658392054020439,-0.0075408378615975,0.0796165884201005,-0.0087829725816845,0.310603430159539,0.9469198860439396,0.6334238207388757,right,0.0009289979934692,0.0058744408922401,1.6188547085359692,-9.671937578171493,-0.0230135434151963,0.0049870549701154,-0.0003688335418701,-0.057608399654855,0.0007248474285006
2025-04-30 01:25:30.019668000,14.97466796875,0.1658392054020439,0.0102031202986836,0.0796165884201005,-0.0053412159904837,0.310603430159539,0.9469198860439396,0.6334238207388757,right,0.0014348626136779,0.0058744408922401,1.6188547085359692,-9.671937578171493,-0.0230135434151963,0.0104932133108377,-0.0005594193935394,-0.057608399654855,-0.0050182766281068
2025-04-30 01:25:30.059667700,15.014667724609374,0.1653761810508559,0.0304234772920608,0.0794966418980134,-0.0111839957535266,0.3109971393340773,0.9468095908866432,0.6341871706964425,right,-0.0012109875679016,0.0065703332747976,1.6143692336849866,-9.672644265136125,-0.0226424461921657,0.0197992250323295,0.0005096793174743,-0.064432642484596,-0.002552478108555
2025-04-30 01:25:30.099667700,15.054667724609375,0.1647698884167639,0.0277026072144508,0.0793214375288617,-0.0188994780182838,0.3115228872355908,0.9466615915549608,0.6352186697667581,right,-0.0026900172233581,0.0073643825821764,1.608495665476471,-9.673567809721828,-0.0222130964417358,0.0141735943034291,-7.53849744796e-05,-0.0722194147701375,-0.0013454058207571
2025-04-30 01:25:30.139667700,15.094667724609376,0.1640810315590442,0.0267714709043502,0.0791034946617158,-0.0132308173924684,0.312068065676979,0.9465103040724956,0.6362920583470575,right,-0.0003044605255126,0.0081349615331237,1.6018218868009746,-9.674615857470036,-0.0217834275809074,0.0105025442317128,0.0027550309896469,-0.0797759858958423,-0.0004718285053968
2025-04-30 01:25:30.179667700,15.134667724609375,0.1636852569462542,0.0210265945643186,0.0789701616408251,-0.0086854817345738,0.3125427893497022,0.9463698309743124,0.6372528218704758,right,-0.0012010931968688,0.0085480324873179,1.5979874232046305,-9.675215576928853,-0.0215640754094443,0.0050718579441308,0.0012869834899902,-0.0838266860587522,-0.0006184903904795
2025-04-30 01:25:30.219667700,15.174667724609376,0.1633494385265216,0.0221291724592447,0.0788608163428554,-0.0083399042487144,0.3129589526552189,0.9462457744125748,0.6380944823878776,right,0.0007426142692565,0.0089234284346292,1.594732951453328,-9.675720019319654,-0.0213671162714331,0.0058688852004706,0.0015359222888946,-0.0875079227216076,-0.0007474236190319
2025-04-30 01:25:30.259667700,15.214667724609376,0.163169363816302,0.0161214284598827,0.0787911230333163,-0.0013558398932218,0.3133364172403041,0.9461282487576542,0.6388760418238258,right,0.0007609724998474,0.0090760065196018,1.592988299743086,-9.675993575564029,-0.0212975220538732,-0.0003622686490416,-0.0016161203384399,-0.0890041434955783,-0.0011493042111396
2025-04-30 01:25:30.299667700,15.254667724609376,0.1631931519678851,0.0094890287145972,0.0788232142084795,0.0043996730819344,0.3136285986008089,0.9460300158978708,0.6394802597954384,right,0.0005332827568054,0.0092503528908726,1.593215971019119,-9.675940384072064,-0.0212425645993918,0.0059677786193788,-0.002854898571968,-0.0907138243571389,0.0025127306580543
2025-04-30 01:25:30.339667700,15.294667724609376,0.1631931519678851,-0.0148023860529065,0.0788232142084795,0.013525741174817,0.3136285986008089,0.9460300158978708,0.6394802597954384,right,0.0011903047561645,0.0092503528908726,1.593215971019119,-9.675940384072064,-0.0212425645993918,0.0076409610919654,-0.0025187134742736,-0.0907138243571389,0.002750382758677
2025-04-30 01:25:30.379667700,15.334667724609377,0.1638988744347386,-0.0341557525098323,0.0792244700635375,0.0111304810270667,0.313010074508138,0.9462036917605848,0.6381610978778878,right,-2.33650207519e-05,0.0095922299416523,1.600038948906958,-9.674782446208596,-0.0211392282968125,0.0083470661193132,0.0009430795907974,-0.0940663405222818,-0.0005901167169213
2025-04-30 01:25:30.419667700,15.374667724609376,0.1645088224361046,-0.0206802114844322,0.0795324092054745,0.0160136949270963,0.3123912013222625,0.9463817540130736,0.6368638207400021,right,0.0034325718879699,0.009628281959058,1.6059392589919268,-9.673801033955812,-0.0211660444344738,-0.0002530347555875,0.0035089552402496,-0.0944198758008424,-0.0060597965493798
2025-04-30 01:25:30.459667700,15.414667724609377,0.1653255438723669,-0.0062272036448121,0.0798919957276139,0.0272752624005079,0.3121231548044448,0.9464352964108294,0.6363326653185782,right,0.0015980005264282,0.0094193791441705,1.6138427255928516,-9.672505733448268,-0.0213712674270906,-0.0071023972705006,0.0051350444555282,-0.092371336640045,-0.00516486633569
2025-04-30 01:25:30.499667700,15.454667724609376,0.1663329197871913,0.0064200330525636,0.0803239373881585,0.0164515487849712,0.3121104192279559,0.9463963193424852,0.6363520258954825,right,-0.0017127990722656,0.0091332735829932,1.6235900664947926,-9.670900636339187,-0.0216646705512265,-0.0137588325887918,0.0028820782899856,-0.0895657137679401,-0.0049874624237418
2025-04-30 01:25:30.539668000,15.49466796875,0.1668901380948863,0.0083723347634077,0.0805618360971187,0.0109167965129017,0.3123670383910962,0.9462875043267768,0.6369174833701331,right,0.0002754926681518,0.0090073525703153,1.62898038123101,-9.670005148804186,-0.0218340056992631,-0.0088818054646253,0.0025942474603652,-0.0883309021428227,0.0010350691154599
2025-04-30 01:25:30.579667700,15.534667724609376,0.1668901380948863,-0.0073490310460329,0.0805618360971187,-0.0035124020650982,0.3123670383910962,0.9462875043267768,0.6369174833701331,right,-0.0031095147132873,0.0090073525703153,1.62898038123101,-9.670005148804186,-0.0218340056992631,-0.0032732780091464,0.001546025276184,-0.0883309021428227,0.0003023697063326
2025-04-30 01:25:30.619667700,15.574667724609377,0.1667558329207503,-0.0222152695059776,0.0804561778271527,-0.005640557501465,0.3121314228349588,0.946371891410088,0.636441400972992,right,-6.69956207275e-05,0.0087036034163531,1.6276861036367714,-9.670250063475963,-0.0219376279923074,-0.0066882064566016,0.0005032271146774,-0.0853522607913706,0.0015807249583303
2025-04-30 01:25:30.659667700,15.614667724609374,0.1669390481582711,-0.0230945069342851,0.0804709151174197,0.0028589810244739,0.3116837293344776,0.9465124657483142,0.6355428427110016,right,-0.0025240182876586,0.0081774506699066,1.62946494987756,-9.669994627410173,-0.0221791005619492,-0.0093523655086755,0.000656172633171,-0.080192649538489,-0.0017591621726751
2025-04-30 01:25:30.699667700,15.654667724609377,0.1671626647217848,-0.0111992768943309,0.0805331058817592,0.0016850616084411,0.3113920815676658,0.9465993022917388,0.6349584543492403,right,-0.001531183719635,0.0078548610022119,1.6316316263921558,-9.669655020192264,-0.0223431195327459,-0.0035145534202456,0.0022232681512832,-0.0770292262046597,-0.0002031037583947
2025-04-30 01:25:30.739667700,15.694667724609374,0.1674203541256711,-0.0096270674839615,0.0806501701143364,-0.003517273813486,0.3112152844096327,0.9466462819114918,0.6345957973675745,right,-0.0046701431274414,0.0077972070669143,1.6341240277297795,-9.669238840606807,-0.0223959064804715,-0.0009635840542614,0.0049847215414047,-0.0764638519734377,0.0008368333801627
2025-04-30 01:25:30.779668000,15.73466796875,0.1670158883936074,-0.0170274041593074,0.0804500397351236,-0.0217257793992757,0.3110223079587511,0.9467275877713291,0.6341855745653091,right,-0.0061468482017517,0.0077117149824122,1.6302140146791937,-9.66990519556105,-0.0223569462157791,-0.0035225413739681,0.0009738057851791,-0.0756254831868456,0.0026024552062153
2025-04-30 01:25:30.819667700,15.774667724609374,0.1661475892119116,-0.0253334529697895,0.0800055103001357,-0.0296706911176443,0.3106014165363665,0.9469043879583235,0.6332990524709485,right,-0.0021626353263854,0.0074321204632603,1.621820572604239,-9.671337858712672,-0.0223188307893338,-0.002527856035158,-0.0017621368169784,-0.0728836782319936,0.0001141773536801
2025-04-30 01:25:30.859667700,15.814667724609375,0.165222226140871,-0.0042105838656425,0.079518429990093,-0.0193633362650871,0.3102941270993986,0.9470461003985502,0.632657881289249,right,0.0012434720993041,0.0070701203273514,1.612874611213058,-9.672859369191526,-0.0223210581833194,-0.0123330894857645,-0.002180591225624,-0.0693337626314954,-0.0045955125242471
2025-04-30 01:25:30.899667700,15.854667724609374,0.1648619206761811,0.0299153439700603,0.0792214131519315,0.0009476691484451,0.3105728865156819,0.946971707435148,0.6333008280262121,right,0.0035513639450073,0.0063009923439822,1.6093975827522575,-9.673490068310498,-0.022654898201361,-0.0257116444408893,-0.0045887678861618,-0.0617913615950383,-0.0064292810857295
2025-04-30 01:25:30.939667700,15.894667724609375,0.1651120523931039,0.0338605530560016,0.0791970079352738,0.0088863475248217,0.3113411219046118,0.9467097413940344,0.6349945643356004,right,-0.0018910765647888,0.0055059054208737,1.6118246637687086,-9.67313234091401,-0.0231373414079751,-0.028110459446907,-0.0041048377752304,-0.0539943601764272,0.0009010406211018
2025-04-30 01:25:30.979667700,15.934667724609374,0.1655612448508219,0.0093756690621376,0.0792905434438594,0.0125397145748138,0.3118715495937461,0.946516495442955,0.6361817724451575,right,-0.0043615102767944,0.0048297661890706,1.616175260193646,-9.6724414360404,-0.0235744343108322,-0.0205277353525161,-0.0029515027999877,-0.0473637904549948,0.0066067315638065
2025-04-30 01:25:31.019668000,15.97466796875,0.1658026176715762,-0.0092123672366142,0.0793035104159436,0.0018040500581264,0.3118837566027276,0.9465027106415512,0.6362665890485452,right,-0.0046561360359191,0.0041861095915866,1.618514662926644,-9.672079032468796,-0.0239200879225259,-0.0106592494994401,-0.0021068453788757,-0.041051739497669,0.0055774701759219
2025-04-30 01:25:31.059667700,16.014667724609374,0.1658527995038051,-0.0106524555012583,0.0792338567353061,0.0064255925826728,0.3116926936744994,0.9465640944263864,0.6359158507365942,right,-0.0015648603439331,0.0035592822202542,1.6190039077483116,-9.672021164801716,-0.0242106974249492,-0.0090705305337905,-0.0001729875802993,-0.0349047086596139,0.0021424535661935
2025-04-30 01:25:31.099667700,16.054667724609374,0.1662227931481831,-0.003640029579401,0.0793170705364201,0.0107707977294921,0.3115548006233986,0.9465938512677002,0.6356843312810084,right,-0.0021789669990539,0.0029508520010303,1.6225855656273662,-9.671440734565255,-0.0245471594882965,-0.011032847687602,-7.20918178558e-05,-0.028938078173052,0.0002481925766915
2025-04-30 01:25:31.139667700,16.094667724609376,0.1666832978623809,0.0092081930488348,0.0794596985962765,0.0150458263233304,0.3116514407666093,0.946542236955796,0.6359390127662532,right,0.0016556978225708,0.0024872824245208,1.6270412298619743,-9.670704821506142,-0.0248484311657407,-0.0121815148741006,0.000195026397705,-0.0243920299579622,-0.0025030812248587
2025-04-30 01:25:31.179667700,16.134667724609375,0.1676227768647104,0.0282100457698106,0.0798186232703339,0.0281656831502914,0.3120794773207314,0.946360156837026,0.6369077264203169,right,0.0006108880043029,0.0020154755030096,1.6361276226371526,-9.669182141983509,-0.0252567872693521,-0.0186418108642101,0.0022155791521072,-0.0197651967077981,-0.0043216897174716
2025-04-30 01:25:31.219667700,16.174667724609375,0.1687413734621946,0.0423818789422512,0.080262351305473,0.0294232070446014,0.3128923590649785,0.9460423389325692,0.6386897725985851,right,-1.07884407043e-05,0.0016134357759255,1.6469437618143856,-9.66735258846879,-0.0256930984014298,-0.0202600471675395,0.0050880908966064,-0.0158225417629349,-0.0010692620417103
2025-04-30 01:25:31.259668000,16.21466796875,0.1699070033219082,0.0370281785726547,0.0806818047962717,0.023256791755557,0.3137537661272276,0.9457053960123848,0.6406010650773474,right,-0.0039129853248596,0.0009303482033524,1.6582126131951809,-9.665434772148728,-0.0262756733576631,-0.027447847649455,0.0047274529933929,-0.0091237473771907,0.0037550199776887
2025-04-30 01:25:31.299667700,16.254667724609376,0.1707791089969968,0.0159290973097085,0.0809825134890259,0.0122312316671013,0.3143704013670397,0.9454615707626728,0.6419804366776057,right,-0.0025197267532348,0.0003358967939168,1.6666418572358783,-9.663988664993644,-0.026749428699736,-0.0135653698816895,0.002132773399353,-0.0032941724323842,0.0083021139726042
2025-04-30 01:25:31.339667700,16.294667724609376,0.1713181571364233,-0.0089712161570787,0.0811736195964665,0.0045184246264398,0.3144724338177647,0.9454034160644548,0.6422444226231718,right,-0.0017039775848388,-4.67895286747e-05,1.6718511163167655,-9.663089670327306,-0.0270257755012016,-0.0054245702922344,0.0008707046508789,0.000458698130121,0.0073295915499329
2025-04-30 01:25:31.379667700,16.334667724609375,0.1716457030791903,-0.0211500860750675,0.081276937300477,0.0018742303363978,0.3141342997140053,0.9455010177070404,0.6415717174500235,right,-0.0031406879425048,-0.0004326788869744,1.6750160100884737,-9.662540219751,-0.0272323484970583,0.00131342606619,0.0015111565589904,0.004242979894331,0.0022532730363309
2025-04-30 01:25:31.419667700,16.374667724609374,0.1716348028086075,-0.0186016596853733,0.0812509946513452,-0.0009535634890198,0.3137274440325255,0.9456366074670308,0.6407285827627595,right,-0.003055989742279,-0.0006382969135358,1.674910503887385,-9.66255775540769,-0.0272935873128867,-0.0002583191962912,0.0038101077079772,0.0062594034588808,0.0009279341902583
2025-04-30 01:25:31.459667700,16.414667724609377,0.1718430474282474,-0.0066597256809473,0.0813128840623057,0.0076717417687177,0.3134308927141832,0.9457254714317724,0.6401320318539078,right,-0.0004209280014038,-0.0009235875615203,1.6769222821012135,-9.662206457751989,-0.0274368877012875,-0.0013736367691308,0.002783179283142,0.0090571484143845,-0.0003972484264522
2025-04-30 01:25:31.499667700,16.454667724609376,0.1722765414185752,0.0102398749440908,0.0815173389393919,0.0185289829969406,0.313493403918093,0.9456851496878832,0.6402760305161787,right,0.0054570436477661,-0.000914306216378,1.6811105275712903,-9.661478727999327,-0.0275063017702411,-2.10416037589e-05,0.0036341696977615,0.0089661291088414,-0.0009675804758444
2025-04-30 01:25:31.539668000,16.49466796875,0.1732408712442864,0.020817881450057,0.0819802180216798,0.0262274704873561,0.3138191557176309,0.9455332426299404,0.6409838678598664,right,0.0007182955741882,-0.0008078806382766,1.690426783579588,-9.659853757146,-0.0276361548195045,-0.0031531834974884,0.0019964724779129,0.007922451004252,-0.0022916332818567
2025-04-30 01:25:31.579667700,16.534667724609374,0.1741223290653171,0.0158613361418247,0.0823713233984694,0.020245537161827,0.3141475267340823,0.9453839730322128,0.6417129900945432,right,-0.0012925267219543,-0.0009063757287541,1.6989407832942902,-9.658359134674072,-0.0278510489630144,-0.0053324978798627,0.0021503865718841,0.0088883574439387,-0.0022137963678687
2025-04-30 01:25:31.619667700,16.574667724609377,0.1749140734937027,0.0118185114115476,0.0827499777961975,0.0158777292817831,0.3144258199769027,0.9452550064711116,0.6423179216321472,right,-0.0016636252403259,-0.0008245388436703,1.7065873525246975,-9.657011811718345,-0.0279617656778507,0.0005868920125067,0.0028454512357711,0.0080858123143319,-0.0004111045855097
2025-04-30 01:25:31.659667700,16.614667724609376,0.1755658939500272,-0.0009690383449196,0.0830975642040378,0.0090271383523941,0.3145454776487122,0.9451852282137968,0.6425663518563712,right,-0.0040269494056701,-0.0005510988737847,1.71288192262426,-9.655899466562271,-0.027945329294729,0.0075645362958312,0.0023634433746337,0.005404282754421,0.0017226415220648
2025-04-30 01:25:31.699667700,16.654667724609375,0.1756871642048347,-0.0001532405149191,0.0832393478049196,0.0063538518734276,0.3144764327500992,0.945202650522504,0.6423779855546882,right,-0.0025123953819274,-3.06386510443e-05,1.7140531583607197,-9.65569313033521,-0.0277105999154539,0.0048412173055112,0.0013564974069595,0.0003003121059693,-0.0004663669387809
2025-04-30 01:25:31.739667700,16.694667724609374,0.1758085323244765,0.0006625573150813,0.0833811309967645,0.0036805658601224,0.3144073132156213,0.945219962409035,0.6421894258009951,right,-0.0009981393814086,0.0004898078563796,1.7152248324885964,-9.655483871498705,-0.0274758622162241,0.0021178983151912,0.0003494918346405,-0.0048035243992751,-0.0026553887873888
2025-04-30 01:25:31.779668000,16.73466796875,0.175861611945917,-0.0008902453118935,0.0834237953125716,-0.0010836878791451,0.3143465509503675,0.9452377385437554,0.6420536139683816,right,0.0003527998924255,0.0005898049277684,1.7157371659249063,-9.655392101562022,-0.0274312787350796,-0.0050262315198779,0.0004874169826507,-0.0057841603339242,-0.003468734677881
2025-04-30 01:25:31.819667700,16.774667724609376,0.175861611945917,0.0110537288710474,0.0834237953125716,0.0075869914144277,0.3143465509503675,0.9452377385437554,0.6420536139683816,right,0.0046038031578063,0.0005898049277684,1.7157371659249063,-9.655392101562022,-0.0274312787350796,-0.0109298974275588,-0.0003814250230789,-0.0057841603339242,-0.0058876010589301
2025-04-30 01:25:31.859667700,16.814667724609375,0.1763997204676554,0.0269156023859977,0.0835676355784811,0.0189580097794532,0.3147645218157917,0.9450736584822228,0.6430083398493343,right,0.0016382336616516,-2.86930609684e-05,1.7209329810023306,-9.654469141498208,-0.0278480657527651,-0.0244749076664447,-0.0015317350625991,0.0002812322683124,-0.0039506047032773
2025-04-30 01:25:31.899667700,16.854667724609374,0.1772727374247491,0.0165266934782266,0.0838497264265492,0.0192935615777969,0.3152629762390752,0.9448668576114844,0.6441536755673564,right,-0.0046399235725402,-0.0007542594127705,1.729360325346887,-9.652960490500927,-0.0283763196525593,-0.0219692606478929,-0.0019019991159439,0.0073966062074643,0.0040743891149759
2025-04-30 01:25:31.939667700,16.894667724609373,0.1777847635026601,0.0087348632514476,0.0840114947392864,0.0096031846478581,0.3155084867638922,0.944760885856753,0.644729495241477,right,-0.0042548179626464,-0.0012100829177426,1.7343018734022977,-9.652069094619154,-0.0286965530570097,-0.0078977476805448,-0.0026521682739257,0.0118667053928016,0.0044290898367762
2025-04-30 01:25:31.979667700,16.934667724609376,0.1782431850183227,-0.0110828876495361,0.0842523984724277,0.00641306117177,0.3151607366074043,0.9448553992978672,0.6439993819318944,right,-0.0047086477279663,-0.0011221930199234,1.7387265579767524,-9.65127414484918,-0.0286966073071657,0.0014892686158418,-0.0006020069122314,0.0110048004669952,0.0040164794772863
2025-04-30 01:25:32.019668000,16.97466796875,0.17870172237756,-0.0309006385505199,0.0844933022055701,0.0032229379285126,0.3148129637538326,0.9449498315585024,0.6432693617359028,right,-0.0051627159118652,-0.001034637424989,1.7431519732035696,-9.650476856991649,-0.0286966615573214,0.0108762849122285,0.0014480650424957,0.0101461743436637,0.0036035282537341
2025-04-30 01:25:32.059667700,17.014667724609374,0.178945175480698,-0.0214170739054679,0.0846452754480243,0.0038284724578261,0.3143194587070325,0.9451026453349476,0.6422198020506306,right,-0.0023367404937744,-0.0008954620376367,1.7455016050696373,-9.650053663143517,-0.0286248147261566,0.0120035661384463,0.0035309344530105,0.0087813305726216,-0.0001532186870463
2025-04-30 01:25:32.099667700,17.054667724609374,0.1792189410847692,0.0049878824502229,0.0848046379424192,-0.0003533661365509,0.3141306079898729,0.9451526886434092,0.6418146672551965,right,-0.0023832917213439,-0.0007414364566387,1.7481436440110203,-9.649576693281531,-0.0285778700056763,0.0087117422372102,0.0013446509838104,0.0072708563693682,-0.0033175621647387
2025-04-30 01:25:32.139667700,17.094667724609376,0.1793618139078779,0.0256146397441625,0.0848905131718737,0.0008191438391804,0.3144990962187332,0.9450234058828948,0.6425819847718389,right,-0.0006031990051269,-0.0005549182022152,1.7495225311487912,-9.649327686956523,-0.0285447414202027,-0.0048340074717998,0.0024551749229431,0.0054417378211335,-0.001693244324997
2025-04-30 01:25:32.179667700,17.134667724609375,0.1795416370192809,0.0295823626220226,0.0849580154346492,-0.0011480173561722,0.315091664155798,0.9448174689257444,0.643841316567975,right,-0.0028343796730041,-0.0005514896469419,1.751257684378326,-9.649013214179872,-0.0286249018097871,-0.0043223360553383,0.0020548105239868,0.0054081146835669,0.0019167970167472
2025-04-30 01:25:32.219667700,17.174667724609375,0.1793304840874403,0.023857194930315,0.0848676504460076,-0.0099873794242739,0.3156448258576732,0.9446427680531888,0.6449912161723437,right,-0.0031127333641052,-0.0003878030550599,1.7492203333318233,-9.649383216536044,-0.028563111031122,0.0029550436884164,0.0022236257791519,0.0038028977018344,0.0028902913909405
2025-04-30 01:25:32.259668000,17.21466796875,0.1789768206846777,0.0104692177847027,0.0847734847195335,-0.0079505546018481,0.3160074245281211,0.9445382826497386,0.6457011409390829,right,-0.0007258653640747,0.0001375403700448,1.7458077484093606,-9.650002225217223,-0.0282892508228772,0.0149156898260116,0.0035551488399505,-0.0013489612153207,0.0025597102940082
2025-04-30 01:25:32.299667700,17.254667724609376,0.1786552988173371,0.0125250872224569,0.0847494504555298,-0.0019401749595999,0.3162486078367455,0.9444725574669968,0.6461264821144712,right,0.0010839104652404,0.0009840001804392,1.7427040833055971,-9.650558105534314,-0.0278567074317427,0.0161877404898405,0.0023379474878311,-0.0096498947097221,0.0001240043202415
2025-04-30 01:25:32.339667700,17.294667724609376,0.1783334383268002,0.014580956660211,0.0847253991425823,0.0040702051483094,0.3164897457512024,0.9444066699232972,0.6465522098847188,right,0.0028928518295288,0.0018303283841788,1.7395957420267163,-9.65110697158873,-0.0274241565387305,0.0174597911536693,0.001121237874031,-0.0179495301545364,-0.0023118276149034
2025-04-30 01:25:32.379667700,17.334667724609375,0.1784531389755886,0.005993197672069,0.084898652736197,0.003836243180558,0.3166514792755356,0.944346352893608,0.6468303086215337,right,0.0009375214576721,0.0025921898997154,1.7407481269322336,-9.65088251518309,-0.0270951334758302,0.0162670649588108,0.000809296965599,-0.0254208204498514,-0.0021409026812762
2025-04-30 01:25:32.419667700,17.374667724609374,0.1786006306718892,-0.0054296739399433,0.0850641962356464,0.0027012948412448,0.3166269910434482,0.9443472039590723,0.6467294673175004,right,0.0005406737327575,0.0031898220023134,1.742168515124172,-9.650608958938715,-0.0268319873209007,0.0102226128801703,0.002283826470375,-0.0312815634261234,-0.0015249161515384
2025-04-30 01:25:32.459667700,17.414667724609377,0.1786006306718892,-0.0063535054214298,0.0850641962356464,0.0063940831460058,0.3166269910434482,0.9443472039590723,0.6467294673175004,right,0.0012207627296447,0.0031898220023134,1.742168515124172,-9.650608958938715,-0.0268319873209007,0.0033742063678801,0.0029594600200653,-0.0312815634261234,-0.0023731749970465
2025-04-30 01:25:32.499667700,17.454667724609376,0.1786006306718892,-0.0031013141851872,0.0850641962356464,0.0040007513016462,0.3166269910434482,0.9443472039590723,0.6467294673175004,right,-0.0003924965858459,0.0031898220023134,1.742168515124172,-9.650608958938715,-0.0268319873209007,-0.0023200535215437,0.0037925690412521,-0.0312815634261234,-0.0028849195223301
2025-04-30 01:25:32.539668000,17.49466796875,0.1786006306718892,0.0059603312984108,0.0850641962356464,0.0008592181839048,0.3166269910434482,0.9443472039590723,0.6467294673175004,right,-0.0003644227981567,0.0031898220023134,1.742168515124172,-9.650608958938715,-0.0268319873209007,-0.0086408192291855,0.004579335451126,-0.0312815634261234,-0.0036603489425033
2025-04-30 01:25:32.579667700,17.534667724609374,0.1786006306718892,0.0028338942211121,0.0850641962356464,-0.0008501649135723,0.3166269910434482,0.9443472039590723,0.6467294673175004,right,-0.001269519329071,0.0031898220023134,1.742168515124172,-9.650608958938715,-0.0268319873209007,-0.0082382587715983,0.0033831447362899,-0.0312815634261234,-0.0010934744495898
2025-04-30 01:25:32.619667700,17.574667724609377,0.1786006306718892,-0.0002925426233559,0.0850641962356464,-0.0025595480110496,0.3166269910434482,0.9443472039590723,0.6467294673175004,right,-0.0021746754646301,0.0031898220023134,1.742168515124172,-9.650608958938715,-0.0268319873209007,-0.0078356973826885,0.0021869540214538,-0.0312815634261234,0.0014734002761542
2025-04-30 01:25:32.659667700,17.614667724609376,0.1786006306718892,-0.0024501443840563,0.0850641962356464,-0.0026446857955306,0.3166269910434482,0.9443472039590723,0.6467294673175004,right,-0.0003435015678405,0.0031898220023134,1.742168515124172,-9.650608958938715,-0.0268319873209007,-0.008010609075427,0.0021605938673019,-0.0312815634261234,0.0022005192004144
2025-04-30 01:25:32.699667700,17.654667724609375,0.1788597946096968,0.0001674089580774,0.0850847498047821,-0.0028813465032726,0.316682416981377,0.9443169155873408,0.6469102585416406,right,-0.000959575176239,0.0025617016399782,1.7446726068995893,-9.65017465917468,-0.0271773113175394,-0.0062620239332318,0.0035536885261535,-0.0251218329366995,0.0014485880965366
2025-04-30 01:25:32.739667700,17.694667724609374,0.1788597946096968,0.007017808035016,0.0850847498047821,-0.0049067488871514,0.316682416981377,0.9443169155873408,0.6469102585416406,right,-5.39422035217e-05,0.0025617016399782,1.7446726068995893,-9.65017465917468,-0.0271773113175394,-0.0015670410357415,0.001773253083229,-0.0251218329366995,0.0006611684802919
2025-04-30 01:25:32.779668000,17.73466796875,0.1788597946096968,0.0020856894552707,0.0850847498047821,-0.005613443441689,0.316682416981377,0.9443169155873408,0.6469102585416406,right,-0.000904381275177,0.0025617016399782,1.7446726068995893,-9.65017465917468,-0.0271773113175394,-0.0006031582015566,0.0019143223762512,-0.0251218329366995,-0.0004205307923257
2025-04-30 01:25:32.819667700,17.774667724609376,0.1788597946096968,-0.0028464291244745,0.0850847498047821,-0.0063201379962265,0.316682416981377,0.9443169155873408,0.6469102585416406,right,-0.0017548203468322,0.0025617016399782,1.7446726068995893,-9.65017465917468,-0.0271773113175394,0.0003607245744206,0.0020554065704345,-0.0251218329366995,-0.0015022300649434
2025-04-30 01:25:32.859667700,17.814667724609375,0.1788597946096968,-0.002778184833005,0.0850847498047821,-0.0014419229701161,0.316682416981377,0.9443169155873408,0.6469102585416406,right,0.0001531839370727,0.0025617016399782,1.7446726068995893,-9.65017465917468,-0.0271773113175394,-0.0005554138915613,0.0015968382358551,-0.0251218329366995,0.0009870396461337
2025-04-30 01:25:32.899667700,17.854667724609374,0.1788597946096968,-0.0004818611778318,0.0850847498047821,-0.0013310927897691,0.316682416981377,0.9443169155873408,0.6469102585416406,right,0.0005127191543579,0.0025617016399782,1.7446726068995893,-9.65017465917468,-0.0271773113175394,0.0001112104509957,0.0002774149179458,-0.0251218329366995,5.95904421061e-05
2025-04-30 01:25:32.939667700,17.894667724609373,0.1788597946096968,-0.0019621583633124,0.0850847498047821,0.0019153081811964,0.316682416981377,0.9443169155873408,0.6469102585416406,right,-2.9444694519e-05,0.0025617016399782,1.7446726068995893,-9.65017465917468,-0.0271773113175394,-0.0045597208663821,0.001659482717514,-0.0251218329366995,0.0007061773212626
2025-04-30 01:25:32.979667700,17.934667724609376,0.1788597946096968,-0.0053109936416149,0.0850847498047821,-0.0003828443586826,0.316682416981377,0.9443169155873408,0.6469102585416406,right,-0.001037061214447,0.0025617016399782,1.7446726068995893,-9.65017465917468,-0.0271773113175394,-0.008166404440999,0.0018673837184906,-0.0251218329366995,0.0019608587026596
2025-04-30 01:25:33.019668000,17.97466796875,0.1787013347975515,-0.0067408168688416,0.0849269992143704,-0.0051115904934704,0.316468690493162,0.9443963205919476,0.6465029477462694,right,-0.0028238892555236,0.0020023222379931,1.743145689593255,-9.650463412988186,-0.0273990645819772,-0.0038787554949522,0.0012305825948715,-0.0196362114497111,0.0001967009156942
2025-04-30 01:25:33.059667700,18.01466772460937,0.1787013347975515,0.0001229923218488,0.0849269992143704,0.0014767991378903,0.316468690493162,0.9443963205919476,0.6465029477462694,right,0.0039904117584228,0.0020023222379931,1.743145689593255,-9.650463412988186,-0.0273990645819772,0.0022116228938102,0.001682162284851,-0.0196362114497111,-0.0016758544370532
2025-04-30 01:25:33.099667700,18.054667724609374,0.1787013347975515,0.0114911561831831,0.0849269992143704,0.0034185599070042,0.316468690493162,0.9443963205919476,0.6465029477462694,right,-0.000953197479248,0.0020023222379931,1.743145689593255,-9.650463412988186,-0.0273990645819772,0.0019977313932031,0.0009581297636032,-0.0196362114497111,-0.003490213304758
2025-04-30 01:25:33.139667700,18.094667724609376,0.1787013347975515,0.0048845624551177,0.0849269992143704,0.0018467269837856,0.316468690493162,0.9443963205919476,0.6465029477462694,right,0.0009775161743164,0.0020023222379931,1.743145689593255,-9.650463412988186,-0.0273990645819772,0.0019032520940527,0.0004318058490753,-0.0196362114497111,-6.9218222051e-06
2025-04-30 01:25:33.179667700,18.13466772460937,0.1787013347975515,-0.0067827608436346,0.0849269992143704,0.0006849509663879,0.316468690493162,0.9443963205919476,0.6465029477462694,right,-8.55326652526e-05,0.0020023222379931,1.743145689593255,-9.650463412988186,-0.0273990645819772,0.0028660239186137,0.0007620006799697,-0.0196362114497111,-0.0011904349084943
2025-04-30 01:25:33.219667700,18.17466772460937,0.1787013347975515,-0.0136916171759366,0.0849269992143704,-0.0031739939004182,0.316468690493162,0.9443963205919476,0.6465029477462694,right,-0.0013359785079956,0.0020023222379931,1.743145689593255,-9.650463412988186,-0.0273990645819772,0.0005941449198871,0.0006927698850631,-0.0196362114497111,-0.001700734719634
2025-04-30 01:25:33.259668000,18.21466796875,0.1782815257702187,-0.0146052334457635,0.0847540939402811,-0.0051480685360729,0.3161062434540045,0.9445373495966848,0.6457150495537347,right,-0.0012311339378356,0.002094536575735,1.7390939299844204,-9.651192311784625,-0.0272557043315198,0.0012218167539685,0.0019088685512542,-0.0205405216119834,-0.0006179362535476
2025-04-30 01:25:33.299667700,18.254667724609376,0.1780250732530443,-0.0098790992051363,0.0846415410215539,-0.0068150153383612,0.315820295721415,0.9446450429762752,0.6451020973370328,right,-0.001779019832611,0.0020959718654555,1.7366187720425426,-9.651638301986456,-0.0271885525058305,-0.0008827089332044,0.0017874389886856,-0.0205545980863971,-0.0019984154496341
2025-04-30 01:25:33.339667700,18.294667724609376,0.1780250732530443,-0.002608030103147,0.0846415410215539,-0.0061954571865499,0.315820295721415,0.9446450429762752,0.6451020973370328,right,-0.0009993314743041,0.0020959718654555,1.7366187720425426,-9.651638301986456,-0.0271885525058305,-0.0001952641759999,0.0015492886304855,-0.0205545980863971,-0.0005144306924194
2025-04-30 01:25:33.379667700,18.33466772460937,0.1780250732530443,-0.0007863068021833,0.0846415410215539,-0.0033903883304446,0.315820295721415,0.9446450429762752,0.6451020973370328,right,0.000573456287384,0.0020959718654555,1.7366187720425426,-9.651638301986456,-0.0271885525058305,-0.0021478564012795,0.0006783157587051,-0.0205545980863971,0.0011885151034221
2025-04-30 01:25:33.419667700,18.37466772460937,0.1780250732530443,-0.0011171849910169,0.0846415410215539,-0.0052129486575722,0.315820295721415,0.9446450429762752,0.6451020973370328,right,-0.0002997517585754,0.0020959718654555,1.7366187720425426,-9.651638301986456,-0.0271885525058305,0.000180373666808,0.0001993924379348,-0.0205545980863971,0.0010447578970342
2025-04-30 01:25:33.459667700,18.414667724609377,0.1774769708554746,-0.0001337326830253,0.0843778860075699,-0.0029563610441982,0.3157951616515846,0.9446791157859662,0.645036316762568,right,0.0001676678657531,0.0020600940069841,1.731328556679934,-9.652589319100976,-0.0271161725168014,-0.0019893876742571,0.0005392283201217,-0.0202027570080012,0.0010162296239286
