time,seconds_elapsed,roll,rotationRateZ,quaternionY,rotationRateY,quaternionZ,quaternionW,yaw,devicelocation,accelerationZ,pitch,gravityX,gravityZ,quaternionX,rotationRateX,accelerationX,gravityY,accelerationY
2025-04-30 01:22:32.527241000,0.234240966796875,-1.5767783384600562,-0.0500575341284275,-1.5678635027138925e-17,0.049124002456665,-0.6886656341672767,-0.1510570787772901,2.926946480923455,right,-0.9443216919898988,0.2159241184068041,-9.578757190170885,0.0573001237235497,-0.7091696088544862,0.0013813781552016,1.1517935991287231,-2.101076353568584,0.5074789524078369
2025-04-30 01:22:32.567241000,0.274240966796875,-0.8233126108194587,-0.0100929327309131,0.0847401821620736,0.079200878739357,-0.9125476814992226,0.0367852195470985,3.1412014945840827,right,-0.2613328695297241,-0.1850232568508084,-7.069456740194559,-6.552732375448942,-0.3984002313599794,-0.0150525067001581,0.8965177536010742,1.8041233053863048,0.0957061201333999
2025-04-30 01:22:32.607241000,0.314240966796875,0.0452732059706648,0.0298716723918914,0.1534503668516851,0.1092777550220489,-0.9638064148803828,0.2176690204006305,-2.6903794114316737,right,0.0320324301719665,-0.3058807281698517,0.4232252661846578,-9.341863912284374,-0.0122668872007185,-0.0314863920211792,0.1330782324075698,2.95310687802732,-0.0350109636783599
2025-04-30 01:22:32.647241000,0.354240966796875,0.1931251879378759,0.1468387097120285,0.1596290531649307,0.1725467592477798,-0.9547444995103974,0.2447139346518103,-2.6123447412819893,right,0.0029661655426025,-0.2812685160739006,1.808198738131672,-9.24613968501985,0.0556473844025188,-0.0567120797932148,-0.0008989125490188,2.722076062433421,-0.011962354183197
2025-04-30 01:22:32.687241000,0.394240966796875,0.1972709336934635,0.1361479312181472,0.159906230644716,0.1035609617829322,-0.9541068630568555,0.2466162476531679,-2.607768194087225,right,-0.0197420716285705,-0.2805055769936228,1.846921705888212,-9.240597832983733,0.0573639485097773,-0.0446561835706234,-0.0029190629720687,2.714887319973111,0.0275541245937347
2025-04-30 01:22:32.727241000,0.434240966796875,0.1947607195655545,-0.0178335756063461,0.1591761472844346,0.0429595410823822,-0.9546287402246464,0.2452582767809024,-2.6111273183166306,right,-0.0034086108207702,-0.2798177215105841,1.824081074657291,-9.24703517255485,0.0565277266792342,-0.0139834452420473,0.0122889727354049,2.7084049722164867,0.011576771736145
2025-04-30 01:22:32.767241000,0.474240966796875,0.1935896193702174,-0.0247021690011024,0.1612920518869894,0.0446463860571384,-0.9547720618730716,0.2435353221659602,-2.614262706199633,right,0.0039079189300537,-0.2847711282551814,1.810647446458041,-9.235886002030968,0.0555494068593913,-0.0153690772131085,0.0169708132743835,2.7550585868418214,-0.0099420547485351
2025-04-30 01:22:32.807241000,0.514240966796875,0.1924006299229836,-0.0315707623958587,0.1634066057268424,0.0463332347571849,-0.954907373623662,0.2418103453809316,-2.617408734160185,right,0.0112038254737854,-0.2897209991318173,1.7970351006910203,-9.224534002411366,0.0545706228315934,-0.0167547091841697,0.0216708779335021,2.8016110791802404,-0.0314505696296691
2025-04-30 01:22:32.847230700,0.554230712890625,0.1966181339045768,0.0083894673734903,0.1651585691430418,0.009078012779355,-0.9545880239876762,0.2415078491298194,-2.6169625614323704,right,0.0017468489240854,-0.2923174505358656,1.834496231818199,-9.209707604679464,0.0561982693058414,-0.012031327933073,0.0165303070098161,2.8260031776368617,-0.0017674724804237
2025-04-30 01:22:32.887230700,0.594230712890625,0.1982303622960466,-0.0083217415958642,0.1640990251817714,-0.0011603999882936,-0.9547140759064672,0.2414642927951978,-2.617139399615904,right,0.0011058449745178,-0.2896799323520381,1.850803369627148,-9.214013777440783,0.0573372370027837,-0.0114575456827878,0.0108441114425659,2.801225294733048,-0.0008977353572845
2025-04-30 01:22:32.927230700,0.634230712890625,0.199841801728311,-0.025032952427864,0.1630390666318695,-0.0113988136872649,-0.9548377424354322,0.2414201954562445,-2.617320363054572,right,0.0004554390907287,-0.2870426393136129,1.8671089000009,-9.218227595743535,0.0584760578234212,-0.0108837634325027,0.0051580965518951,2.776430168433487,-2.62558460235e-05
2025-04-30 01:22:32.967230500,0.67423046875,0.2014083675291422,0.007376704365015,0.1637208092962122,0.0160602033138275,-0.9547441921920904,0.2411792971374158,-2.617411685989265,right,-0.004736304283142,-0.2880885614932875,1.88096557591781,-9.21244141355753,0.0590906938751878,-0.0260216630995273,-0.0056784301996231,2.7862659182712437,-0.0013629794120788
2025-04-30 01:22:33.007230500,0.71423046875,0.2017464760282949,0.0232866555452346,0.1640942310534661,0.0163713283836841,-0.954562197006236,0.2416494505464467,-2.6162804761826446,right,-0.0013129115104675,-0.2887203328160279,1.8837272957161069,-9.210078191557526,0.059074293959266,-0.021018486469984,-0.0026804059743881,2.792205537453293,-0.0012766420841217
2025-04-30 01:22:33.047230500,0.75423046875,0.2020854052610159,0.0391966067254543,0.1644675938142745,0.0166824534535408,-0.954379742756948,0.2421195266488451,-2.615148668656843,right,0.002109944820404,-0.2893517144035787,1.8864944223418831,-9.207710293382403,0.0590578768917222,-0.0160153117030859,0.0003170818090438,2.7981404804602263,-0.0011897683143615
2025-04-30 01:22:33.087230700,0.794230712890625,0.2032994454400123,0.021342322230339,0.1650372932061318,0.0354791469871997,-0.9541354947498754,0.2426064535616535,-2.6138050248844844,right,0.0005192160606384,-0.290160448685763,1.8972141154073177,-9.203194277262687,0.0594170270281011,-0.0207259319722652,-0.0069530755281448,2.805740726330876,-0.0010885894298553
2025-04-30 01:22:33.127230700,0.834230712890625,0.204441417078857,0.0388639345765113,0.1652349676024697,0.0382230281829834,-0.9539286658502358,0.243180508498075,-2.612398874508756,right,5.4657459259e-05,-0.2901965141740854,1.907702045543492,-9.200922240677476,0.0598407670241502,-0.018659958615899,0.0001228600740432,2.8060797490268943,0.0064687728881835
2025-04-30 01:22:33.167230700,0.874230712890625,0.2065670352715764,0.0446107275784015,0.1653114043258799,0.0675380676984787,-0.9533988776522396,0.2450104131509572,-2.6082850910275006,right,0.0060864090919494,-0.2895476715664374,1.9276283967629075,-9.198626823216676,0.0606028523390649,-0.0172367263585329,0.0059198290109634,2.799982308934629,0.0392837226390838
2025-04-30 01:22:33.207230500,0.91423046875,0.2086894774760063,0.050357524305582,0.1653871584248831,0.0968531146645546,-0.95286512526263,0.2468393174518813,-2.6041735836167725,right,0.012116253376007,-0.288890497415284,1.9475284444972871,-9.196312701055406,0.0613646883894993,-0.0158134941011667,0.0117194950580596,2.7938053738653656,0.0721068084239959
2025-04-30 01:22:33.247230500,0.95423046875,0.2106802445795295,-0.1506748348474502,0.1644855379230432,0.0182650610804557,-0.9533962296647164,0.2449900159565377,-2.6080232045836977,right,-0.0253247618675231,-0.286717853990546,1.9670970683202147,-9.198331639662385,0.0629294810786651,0.1143445074558258,-0.0163646042346954,2.77337516477704,0.0026806890964508
2025-04-30 01:22:33.287230500,0.99423046875,0.2103445550131183,-0.0845398306846618,0.1646605613555012,0.0121410228312015,-0.9539345256288292,0.242736058894421,-2.612697271071716,right,-0.0190752744674682,-0.28748583522801,1.963563779627532,-9.19690599077344,0.0630492400247211,0.0709951817989349,-0.0021141320466995,2.7805983940288423,-0.0104007422924041
2025-04-30 01:22:33.327230700,1.034230712890625,0.2100050172836584,-0.0184048265218734,0.1648346811898811,0.0060169831849634,-0.9544675016771978,0.2404807880458397,-2.617372426989753,right,-0.0128252506256103,-0.2882522272265758,1.9599961502738297,-9.19548501805961,0.0631686553546141,0.027645856142044,0.0121398568153381,2.787804672145844,-0.0234804451465606
2025-04-30 01:22:33.367217400,1.074217529296875,0.2105280822384845,0.0133828120306134,0.1641295766584141,0.0212221294641494,-0.9545740021994904,0.2404115114815044,-2.6176579839651475,right,0.0023535445798188,-0.2866489681470915,1.9657373242743312,-9.198817377352714,0.0636577960082434,0.0243934262543916,0.0160676129162311,2.772727222262323,0.0155479880049824
2025-04-30 01:22:33.407217200,1.114217041015625,0.2114994452145868,0.006413978524506,0.163258276454015,0.0217731464654207,-0.9546585437147228,0.2404704722938098,-2.6176680310088893,right,0.0024604201316833,-0.2845625676438557,1.9758818478003144,-9.202539612746238,0.0644032908717263,0.0260167233645916,0.0090188682079315,2.753095470075309,0.0083207488059997
2025-04-30 01:22:33.447217200,1.154217041015625,0.2124702496972175,-0.0005548549816012,0.1623867533994314,0.0223241653293371,-0.954741892535042,0.2405291626039495,-2.617680214004983,right,0.0025622844696044,-0.2824761856819408,1.98602169515118,-9.20621216377914,0.0651486946016758,0.0276400223374366,0.0019706040620803,2.7334520274505016,0.0010947287082672
2025-04-30 01:22:33.487217200,1.194217041015625,0.2131529167955238,0.0160292722284793,0.1618973356800948,0.0130988676100969,-0.9547780729992192,0.240583756034493,-2.6176246004674844,right,0.0024775862693786,-0.2812653595433406,1.9930046859063208,-9.208082633826136,0.0656331608176364,0.0256510525941848,0.0057058781385421,2.7220462518170474,0.0026214718818664
2025-04-30 01:22:33.527217200,1.234217041015625,0.2143439111359008,0.0348161570727825,0.1621473218728409,0.0209290850907564,-0.954621614108196,0.2409061297410865,-2.6167235199715497,right,0.0027586817741394,-0.2814278572899106,2.0038759162716566,-9.205269914492964,0.0661067858580292,-0.0002741364296525,-0.0007479190826416,2.723577406907081,-0.0133286118507385
2025-04-30 01:22:33.567217400,1.274217529296875,0.2142808488488684,0.0160336606204509,0.1621183956710966,-0.0025014467537403,-0.9545703324541778,0.2411448880199097,-2.6162454626824294,right,-0.0034271478652954,-0.2813494594322762,2.003340932612121,-9.205604845535754,0.0660485073884545,0.0074592558667063,-0.0004962533712387,2.7228385712385177,-0.0102529525756835
2025-04-30 01:22:33.607217400,1.314217529296875,0.2142176970849791,-0.0027488339692354,0.1620894418476435,-0.025931978598237,-0.9545189392613312,0.241383573342173,-2.615767434453568,right,-0.0096129179000854,-0.2812710508856664,2.0028049260392784,-9.205939776578544,0.0659902171249193,0.0151926483958959,-0.0002444684505462,2.7221000278308987,-0.0071772634983062
2025-04-30 01:22:33.647217200,1.354217041015625,0.21367589625869,-0.0101776961237192,0.1617643592402297,0.0062196496874094,-0.9545931903383048,0.241354007815386,-2.615998476296617,right,0.0047380328178405,-0.280738558942227,1.998123928616196,-9.208439192178846,0.0658222803344997,0.0099636381492018,-0.0004304349422454,2.7170827841907736,0.0027990937232971
2025-04-30 01:22:33.687217200,1.394217041015625,0.2147613516484933,-0.0084352614358067,0.161848612447146,0.0072896759957075,-0.9546238943089168,0.2410196121758069,-2.61652388547238,right,-0.0157549977302551,-0.2806766869736202,2.0081538858518004,-9.206428436878324,0.066391249613477,-0.002048110589385,0.0008194297552108,2.7164997236058115,-0.0024736523628234
2025-04-30 01:22:33.727217200,1.434217041015625,0.2147622491437259,-0.0308601669967174,0.1621624310643806,-0.0119579136371612,-0.9546647927205556,0.240658089857312,-2.6171782921071323,right,0.001706838607788,-0.2813851973479526,2.007751442530751,-9.204543938305973,0.0663490947802693,-0.0142840407788753,-0.0001619309186935,2.7231752558469773,0.0019274055957794
2025-04-30 01:22:33.767217200,1.474217041015625,0.214410492291807,-0.0101300664246082,0.1624001775455848,-0.0126373711973428,-0.9546928026524188,0.2404466319231557,-2.6175910476071453,right,-0.0034652948379516,-0.2820056011739857,2.00415371029973,-9.20359759736657,0.0661310488613524,-0.0182574950158596,0.0025629103183746,2.7290195979610083,-0.0001910030841827
2025-04-30 01:22:33.807217400,1.514217529296875,0.2140583998345766,0.0106000360101461,0.1626378945285664,-0.0133168278262019,-0.9547206495550644,0.2402351310566587,-2.6180040855221787,right,-0.00863778591156,-0.2826258485360752,2.0005532015897334,-9.20264658025205,0.0659129943666245,-0.022230951115489,0.0052880197763442,2.734861309726536,-0.0023091733455657
2025-04-30 01:22:33.847217400,1.554217529296875,0.2134897652223036,0.0304402522742748,0.1627194358210994,-0.003652264829725,-0.9545877136049716,0.2408163980275148,-2.6168490647102502,right,0.0022799372673034,-0.2828623853470715,1.9951827605977648,-9.20315043812096,0.065515731009721,-0.0110828196629881,0.0025867372751235,2.737088922648132,0.0040711164474487
2025-04-30 01:22:33.887217400,1.594217529296875,0.2141242316704545,0.0549374818801879,0.1626988202623194,0.0140471216291189,-0.954424351611246,0.2414125776232998,-2.615534586307696,right,1.25169754028e-05,-0.2825660940424956,2.001193691450357,-9.202674637302756,0.0657516227446576,0.0021641720086336,0.0003581196069717,2.7342987074077127,0.0014287829399108
2025-04-30 01:22:33.927217200,1.634217041015625,0.2150821340981839,0.0024941451847553,0.162459116986767,0.0066495072096586,-0.9542372361846738,0.2421929630313836,-2.6138622923298684,right,-0.0032905936241149,-0.2816983313661062,2.010513746850937,-9.203068020534516,0.0661902751982314,0.0102662788704037,-0.0040995627641677,2.726125337824225,0.0106780529022216
2025-04-30 01:22:33.967217200,1.674217041015625,0.2148686705295772,0.0077564883977174,0.1621161500630141,-0.0029718729201704,-0.9542977028219328,0.2421841308181279,-2.614012937003478,right,-0.0003127455711364,-0.2810386970533647,2.0089320306174456,-9.205251794314384,0.0661901222119817,0.0201450660824775,-0.0003605186939239,2.7199107010930774,-0.0031408071517944
2025-04-30 01:22:34.007217200,1.714217041015625,0.2148686705295772,-0.0184893663972616,0.1621161500630141,0.0024609889369457,-0.9542977028219328,0.2421841308181279,-2.614012937003478,right,-0.0024203658103942,-0.2810386970533647,2.0089320306174456,-9.205251794314384,0.0661901222119817,0.0096090286970138,-0.0018774569034576,2.7199107010930774,-0.0040702819824218
2025-04-30 01:22:34.047170800,1.7541708984375,0.2144988329280893,0.0101753678172826,0.1618993248406041,0.0058052162639796,-0.9543780189234377,0.2420391836245573,-2.614428066991123,right,0.0121751893311738,-0.2807041489638447,2.005721105746925,-9.206882610386607,0.0660926201009491,-0.0043776626698672,0.0063426131382584,2.716758666802942,0.0028271737974137
2025-04-30 01:22:34.087171000,1.794171142578125,0.2144969418045993,-0.0030259545892477,0.1618615000939175,-0.0016131261363625,-0.954366315171488,0.2421109348753188,-2.6142910804213373,right,0.0084394216537475,-0.2806151700396307,2.005755154146999,-9.207122848883271,0.0660926737867422,-0.0114307012408971,0.0131967812776565,2.715920170152187,0.0076604783535003
2025-04-30 01:22:34.127171000,1.834171142578125,0.2141413411060029,-0.0050996686331927,0.1614161384312644,0.0060996748507022,-0.9545835178932048,0.2415395246268991,-2.6156580112316075,right,0.0063673853874206,-0.2798605887006999,2.0029158390678465,-9.209835614973306,0.0661355666212794,0.0009865341708064,0.0103573650121688,2.70880887684226,0.0051694810390472
2025-04-30 01:22:34.167171000,1.874171142578125,0.2137869108390738,-0.0071733826771378,0.1609706957799982,0.0138124767690896,-0.9548001800368784,0.2409680156056765,-2.6170243083664944,right,0.0042945742607116,-0.2791055614736938,2.000084853425622,-9.212540782278776,0.0661784208557863,0.0134037695825099,0.0075170993804931,2.701692030574381,0.002679020166397
2025-04-30 01:22:34.207171000,1.914171142578125,0.2134335988514467,-0.0092470971867442,0.1605251407653829,0.0215252786874771,-0.9550162715782908,0.2403963563212614,-2.618390020493064,right,0.0022209882736206,-0.2783500269206862,1.997261612698436,-9.215238935321567,0.0662212311326011,0.025821004062891,0.0046760588884353,2.6945687545657155,0.0001892447471618
2025-04-30 01:22:34.247170800,1.9541708984375,0.2147571431069841,0.0224187821149826,0.1601599886530614,-0.0011987715261057,-0.9549923346128264,0.2405249880775253,-2.6180614556927084,right,-0.003355860710144,-0.2772200845809168,2.010104289267212,-9.215556330707669,0.0669788861906734,0.0371534265577793,0.0025293827056884,2.68391233599484,-0.0010692179203033
2025-04-30 01:22:34.287170800,1.9941708984375,0.2144132398670117,-0.0172070860862731,0.1597341816686217,-0.0112830614671111,-0.9550346670900132,0.2406573424351704,-2.6179601498104708,right,0.0044642686843872,-0.2764013356671439,2.0074017523102463,-9.218391261872648,0.0669167436416916,0.0129786431789398,0.0040674805641174,2.676189048266411,0.0072101950645446
2025-04-30 01:22:34.327171000,2.034171142578125,0.213255780772374,0.0071058990433812,0.1592270319047753,-0.0400355942547321,-0.9551701310270144,0.2405707632224115,-2.618441659813737,right,0.0066255927085876,-0.275658678144227,1.9971505535393952,-9.222648334795236,0.0665022693932278,0.0145740816369652,0.0033007711172103,2.669181799852848,-0.0087763369083404
2025-04-30 01:22:34.367171000,2.074171142578125,0.213255780772374,0.0107505349442362,0.1592270319047753,-0.0375213474035263,-0.9551701310270144,0.2405707632224115,-2.618441659813737,right,0.003082275390625,-0.275658678144227,1.9971505535393952,-9.222648334795236,0.0665022693932278,0.0143550392240285,0.0044579952955245,2.669181799852848,-0.0049672722816467
2025-04-30 01:22:34.407171000,2.114171142578125,0.213255780772374,0.0143951717764139,0.1592270319047753,-0.0350071005523204,-0.9551701310270144,0.2405707632224115,-2.618441659813737,right,-0.0004611015319824,-0.275658678144227,1.9971505535393952,-9.222648334795236,0.0665022693932278,0.0141359977424144,0.0056152194738388,2.669181799852848,-0.0011582374572753
2025-04-30 01:22:34.447171000,2.154171142578125,0.210314727102412,-0.0693175420165062,0.1588202520320233,-0.0840827450156211,-0.9553946302537174,0.2403082785246868,-2.619486439268973,right,-0.0037421584129333,-0.2756189800607205,1.9700398437738416,-9.228585908150672,0.0651859045818542,-0.0024350753519684,0.0009041428565979,2.6688071213215587,0.0135453045368194
2025-04-30 01:22:34.487170800,2.1941708984375,0.2083370317716344,-0.0649691671133041,0.1591154479024722,-0.0434958115220069,-0.9554578517416794,0.2401471491639054,-2.6199889206673053,right,-0.0054599046707153,-0.2767771990729362,1.951144004645944,-9.229433464890718,0.0641258490427486,-0.0141057753935456,-0.003148153424263,2.679734758049249,0.0145786702632904
2025-04-30 01:22:34.527170800,2.2341708984375,0.2074526642693109,-0.0362975187599659,0.1589755063846789,-0.0208072643727064,-0.9555865005322406,0.2398218102835997,-2.620819133161209,right,-0.0073570013046264,-0.2767618258408938,1.9429894858933985,-9.231195798388123,0.0637714213307411,0.005917708389461,-0.0027721524238586,2.6795897966206077,0.0087962448596954
2025-04-30 01:22:34.567171000,2.274171142578125,0.206568358169024,-0.0076258704066276,0.1588355491795172,0.0018812790513038,-0.9557149562693648,0.2394963769805637,-2.6216494713593828,right,-0.0092546939849853,-0.2767458171922095,1.934834382618964,-9.232952286666633,0.0634169909399027,0.0259411893784999,-0.0023960918188095,2.6794386977121234,0.0030144453048706
2025-04-30 01:22:34.607171000,2.314171142578125,0.2074210644812868,-0.0075139151886105,0.1586432281874028,0.0492270439863204,-0.9558253982631646,0.2390354486012685,-2.622550975509528,right,-0.0032495856285095,-0.2761857063913015,1.943015350987017,-9.23276640870571,0.0639707503511771,0.031898520886898,-0.0058668702840805,2.6741546198293564,-0.001742273569107
2025-04-30 01:22:34.647171000,2.354171142578125,0.2079956801943243,-0.0058005936443805,0.158357406774071,0.0278199203312397,-0.9557568838865492,0.2394127978906581,-2.62177852623352,right,-0.003982663154602,-0.2753858516511959,1.948761347293109,-9.23373788408637,0.0642908262722497,0.0193948708474636,-0.003914251923561,2.6666069809287785,0.0005669891834259
2025-04-30 01:22:34.687171000,2.394171142578125,0.2085694763123709,-0.0040872721001505,0.1580715015573562,0.0064127966761589,-0.9556880434514986,0.2397900613153663,-2.6210067311774705,right,-0.0047165155410766,-0.274585511948982,1.9545006215974687,-9.234703514248132,0.0646108684205159,0.0068912198767066,-0.0019609183073043,2.659053204548359,0.0028769373893737
2025-04-30 01:22:34.727171000,2.434171142578125,0.2091868683221104,0.0195683632045984,0.1576854702251007,0.0175756141543388,-0.9556816557568446,0.2399606222288973,-2.620687615654228,right,0.0037041902542114,-0.2735934165456714,1.9607485760763288,-9.236070710948107,0.0650133443528778,-0.0025368500500917,-0.000855803489685,2.6496874103099106,-0.0045786798000335
2025-04-30 01:22:34.767170800,2.4741708984375,0.2102271689733827,0.0094773955643177,0.1575998628803663,-0.0022681336849927,-0.9556143805175789,0.240142606706804,-2.6202026486593177,right,-0.0037664771080017,-0.2731161500692128,1.9706195433579383,-9.235261732652782,0.0655360570168497,0.0023700781166553,0.001538798213005,2.645180746540427,-0.0001874566078186
2025-04-30 01:22:34.807171000,2.514171142578125,0.2112671243407656,-0.0006135702133178,0.1575142260374088,-0.0221118796616792,-0.955546727729488,0.2403245353442485,-2.6197181091094577,right,-0.0112382769584655,-0.272638406119023,1.9804874418996272,-9.234442232963442,0.0660587611050106,0.0072770058177411,0.0039337426424026,2.640669114334881,0.0042043030261993
2025-04-30 01:22:34.847171000,2.554171142578125,0.2102236887542323,-0.0062554655596613,0.1570669273615755,-0.0284384172409772,-0.9556695744443724,0.2402324107223589,-2.6201746659313865,right,-0.0045588016510009,-0.271991132074488,1.9712071339875457,-9.238173236185313,0.0656827805715205,0.033276293426752,-0.0006365627050399,2.634555307629704,-0.0035415589809417
2025-04-30 01:22:35.011997200,2.7189970703125,0.2126300444414942,-0.0343643613159656,0.1560343442854387,-0.0254198014736175,-0.9558704047866592,0.239661439575898,-2.6213586443580468,right,-0.0137243550270795,-0.2692878923459179,1.9949273245319723,-9.240330706480146,0.0672869261680192,0.0589521192014217,0.0010539899813011,2.609010532006621,0.0054659149609506
2025-04-30 01:22:35.051997400,2.75899755859375,0.2111608611742873,-0.0211068261414766,0.1552289907033809,-0.0044687949120998,-0.9561767907434822,0.2390770789336638,-2.6229919145905227,right,0.0126072764396667,-0.2680763165846567,1.982010559813678,-9.246335499852895,0.0668733327541822,0.0282893665134906,0.0041403174400329,2.5975553642734885,-0.0050828456878662
2025-04-30 01:22:35.091997400,2.79899755859375,0.2115750087726488,-0.0091740721836686,0.1549728917256184,-0.0073534734547138,-0.9561514006791224,0.2392727957059815,-2.622610306197199,right,0.0064458847045898,-0.2674052532753466,1.986205381155014,-9.247216374340653,0.0671311059008656,0.0129042165353894,0.0024669468402862,2.5912089178562163,2.71201133728e-05
2025-04-30 01:22:35.131997400,2.83899755859375,0.211366423861032,-0.0063560707494616,0.1545834126571028,-0.0120413675904273,-0.9562119461312634,0.2392797179888652,-2.6227368721737423,right,0.0034995675086975,-0.2666459619471574,1.984688692981749,-9.249551539289952,0.0671423257261099,0.020336452871561,-0.0001009106636047,2.5840266051366925,-0.000437706708908
2025-04-30 01:22:35.171997200,2.8789970703125,0.211366423861032,-0.003538069082424,0.1545834126571028,-0.0167292617261409,-0.9562119461312634,0.2392797179888652,-2.6227368721737423,right,0.0003151297569274,-0.2666459619471574,1.984688692981749,-9.249551539289952,0.0671423257261099,0.0277686882764101,-0.0028234422206878,2.5840266051366925,-0.0016349256038665
2025-04-30 01:22:35.211997200,2.9189970703125,0.2113850638694392,0.0248329956084489,0.1541443281910779,0.0129668461158871,-0.9561790144883924,0.23966957571669,-2.622056335359426,right,0.0055382251739501,-0.2656677062075072,1.9853904115103185,-9.25198139678538,0.0672290914887412,-0.0048445649445056,-0.0001076161861419,2.5747709932744502,-0.0087751746177673
2025-04-30 01:22:35.251997200,2.9589970703125,0.2115727344915839,0.0156915038824081,0.1541784173725067,0.0102632641792297,-0.9560783874210352,0.2400397759193899,-2.6212562807639896,right,0.0023468732833862,-0.2656354259794727,1.987144269440323,-9.251690304884312,0.0672614467929893,-0.0084167625755071,-0.000442624092102,2.574465580587089,-0.0032795071601867
2025-04-30 01:22:35.291997400,2.99899755859375,0.2119432374535128,0.0270603857934474,0.1540834659431356,-0.0048594968393445,-0.9559724755003512,0.2404793644436043,-2.6203279021442523,right,-0.0062143802642822,-0.2652755933000397,1.990766697721183,-9.251858062666654,0.0674150848464471,0.0069838492199778,-0.0021807253360748,2.57106044831872,-0.0045970678329467
2025-04-30 01:22:35.331997400,3.03899755859375,0.2126101188057851,0.024831622838974,0.1539535831546679,-0.0070548867806792,-0.9558381321618912,0.2410113597992349,-2.619181622415026,right,-0.0070767998695373,-0.2647508976100319,1.9972204039052128,-9.251845787706973,0.067715807201085,0.0104967020452022,-0.002413123846054,2.566094642604887,-0.0017429292201995
2025-04-30 01:22:35.371997400,3.07899755859375,0.2132762463607731,0.0226028598845005,0.1538236322501849,-0.0092502767220139,-0.955703351226168,0.2415431963336241,-2.61803589981835,right,-0.0079395771026611,-0.2642254495135411,2.0036679726094007,-9.251830005615949,0.0680164984617472,0.0140095548704266,-0.0026448816061019,2.5611209458455444,0.001112014055252
2025-04-30 01:22:35.411997400,3.11899755859375,0.2139417425391164,0.0203740987926721,0.1536936527857358,-0.0114456657320261,-0.955568325746618,0.2420749684695022,-2.61689086276532,right,-0.0088028311729431,-0.2636993659185195,2.0101104267470538,-9.2518101318717,0.0683171795375237,0.017522407695651,-0.0028761327266693,2.556140527084469,0.003967672586441
2025-04-30 01:22:35.451997200,3.1589970703125,0.2129642716691771,-0.039800476282835,0.1530937697876137,-0.0094079384580254,-0.9557864747271944,0.241664805857158,-2.6180386749774835,right,-0.0029823780059814,-0.262766160047285,2.0015693928949534,-9.25609759993255,0.0680636029149283,0.0253796353936195,0.0002212971448898,2.5473040174171326,0.0086984932422637
2025-04-30 01:22:35.491997200,3.1989970703125,0.211952896310397,-0.0307868234813213,0.1522721901288854,-0.0032985252328217,-0.956155349865446,0.2407613933407341,-2.6202760063975945,right,0.0037706494331359,-0.2614518091985026,1.9929095549687743,-9.261382262337207,0.0679270951062783,0.0174601301550865,0.0037545561790466,2.534854870210588,0.0004643499851226
2025-04-30 01:22:35.531997400,3.23899755859375,0.2122828738678659,-0.015897698700428,0.1521136509239598,-0.0044975480996072,-0.9562045975558054,0.2405993734587992,-2.620617887201203,right,-0.001050591468811,-0.261058560043886,1.9961754248969257,-9.261697904157636,0.0681634261436194,0.0060374792665243,0.0049829185009002,2.5311294199466703,0.003354787826538
2025-04-30 01:22:35.571997400,3.27899755859375,0.2122828738678659,-0.0010085767135024,0.1521136509239598,-0.0056965709663927,-0.9562045975558054,0.2405993734587992,-2.620617887201203,right,-0.0059040188789367,-0.261058560043886,1.9961754248969257,-9.261697904157636,0.0681634261436194,-0.0053851716220378,0.006544291973114,2.5311294199466703,0.0058653354644775
2025-04-30 01:22:35.611997400,3.31899755859375,0.2121983206468114,-0.0015959350857883,0.1516801146326997,-0.0323468185961246,-0.9562758421452332,0.2405633503086609,-2.620830127717838,right,-0.0129727721214294,-0.2601817057857029,1.9958589062936605,-9.264033069106937,0.0682562667475261,0.0237774904817342,0.0014934092760086,2.5228207335457205,0.0057549178600311
2025-04-30 01:22:35.651997400,3.35899755859375,0.2101792599481592,-0.0138624627143144,0.1509198332870457,-0.0276552177965641,-0.9565358204924822,0.2402171137976533,-2.6220146336061743,right,-0.0059985518455505,-0.2591760223371941,1.977678668089211,-9.270520677560569,0.0675144906521036,0.0162898804992437,-0.0039012730121612,2.513288935090601,-0.0001122951507568
2025-04-30 01:22:35.691997200,3.3989970703125,0.2081620057962439,-0.0261289924383163,0.150159360465943,-0.0229636151343584,-0.9567945546544284,0.239870636808699,-2.623196611971409,right,0.0009712576866149,-0.2581680370701557,1.9594960917972024,-9.27696503139436,0.0667726287808094,0.0088022695854306,-0.0092957317829132,2.5037328789770603,-0.0059770196676254
2025-04-30 01:22:35.731997200,3.4389970703125,0.2083549524296967,0.0806883350014686,0.1499798721297129,0.0833857357501983,-0.9567516372760934,0.2401214912628204,-2.6227058235106884,right,0.0215284824371337,-0.2577068594229861,1.96152467501536,-9.27771555750072,0.0668894034304254,0.0026639318093657,0.0083219856023788,2.4993600707203147,-0.0300055146217346
2025-04-30 01:22:35.771997200,3.4789970703125,0.2130329732962344,0.1205848678946495,0.1502247078180854,0.1026089787483215,-0.9561186506432282,0.241904693964704,-2.6183797021433897,right,-0.0018759965896606,-0.2567256874097484,2.005421976669877,-9.270830474162102,0.0689328775294649,0.0243993736803531,0.0009327828884124,2.4900544822365043,-0.0057425200939178
2025-04-30 01:22:35.811997400,3.51899755859375,0.2140173689393842,0.0526504516601562,0.1487192820980888,0.0212645903229713,-0.9560937902018584,0.2426894105231183,-2.617080510722225,right,-0.0074662566184997,-0.2532070846749059,2.0163954983659087,-9.27735607653856,0.0697786902548606,0.0468200705945491,-0.0004063546657562,2.456664253810048,0.0028689205646514
2025-04-30 01:22:35.851997400,3.55899755859375,0.2149962019164133,-0.0152839496731758,0.1472133276064656,-0.0600797906517982,-0.956065566195356,0.2434733284831566,-2.615786058216136,right,-0.0130680203437805,-0.2496872723007788,2.027307791393995,-9.283768281668424,0.0706242561027453,0.0692407637834549,-0.0017392486333847,2.4232322320684787,0.0114846229553222
2025-04-30 01:22:35.891997400,3.59899755859375,0.2132504093751982,-0.0678998380899429,0.1461713679170932,-0.0128852799534797,-0.9564231419287516,0.2428355907246794,-2.6176142856089872,right,0.0129057765007019,-0.2480748667774737,2.011921421691776,-9.291099939730763,0.0701403393288456,0.023249015212059,-0.0003011375665664,2.4079070910342035,0.0062617510557174
2025-04-30 01:22:35.931997200,3.6389970703125,0.2130230779185198,-0.0184328258037567,0.1460114643809166,0.0118437837809324,-0.9566670540656536,0.2419557112599049,-2.619508206189568,right,0.0044847726821899,-0.2479360872104858,2.0098798328615723,-9.291883783584831,0.0701885312063203,0.0193651840090751,4.64171171188e-05,2.406587825129181,-0.0004803240299224
2025-04-30 01:22:35.971997200,3.6789970703125,0.215778362131673,0.0312801972031593,0.1462799317377751,0.0227831713855266,-0.9562983303609308,0.2429017449956764,-2.617153039823711,right,-0.0011048913002014,-0.2476225615040549,2.03563547475636,-9.287047449469563,0.0713761369410085,0.0206293165683746,-0.0009797513484954,2.4036070557527243,-0.0041572451591491
2025-04-30 01:22:36.011997200,3.7189970703125,0.2185326708856883,0.0809932202100753,0.1465480355841317,0.033722560852766,-0.9559271912421626,0.2438471862367267,-2.614798911226091,right,-0.0067002177238464,-0.2473027470932941,2.0613735809944567,-9.282155001252889,0.0725635673664851,0.0218934472650289,-0.0020041465759277,2.4005662267521024,-0.0078280270099639
2025-04-30 01:22:36.051997400,3.75899755859375,0.2212859857915055,0.130706250667572,0.1468157777965003,0.0446619540452957,-0.955553688199738,0.2447920049588366,-2.6124459665103155,right,-0.0123012661933898,-0.2469766731591811,2.0870941515758634,-9.277207607978582,0.0737508192646008,0.0231575798243284,-0.0030267238616943,2.3974657765187324,-0.0114926993846893
2025-04-30 01:22:36.091997400,3.79899755859375,0.222677521238981,0.0279380902647972,0.1467534111606409,0.0194789879024028,-0.9551781749302152,0.2461252794534281,-2.609544925715678,right,0.0001474022865295,-0.2462584414268279,2.1003813570417464,-9.275971344181894,0.0743002050723686,-0.0023758020251989,-0.0031935423612594,2.390635492107272,0.0222898423671722
2025-04-30 01:22:36.131997400,3.83899755859375,0.2226233529180828,-0.011294450610876,0.1457927751194404,0.0371181219816207,-0.9555198861174072,0.2452538517686089,-2.6116450432286653,right,-0.0026597380638122,-0.2444112728965286,2.1008502897277475,-9.280376301142573,0.0746790618053046,0.035307228565216,-0.0040282905101776,2.373063302798569,0.0085936784744262
2025-04-30 01:22:36.171997200,3.8789970703125,0.2225731206705788,-0.050526987761259,0.1448318207533291,0.054757259786129,-0.9558595894635984,0.2443819389199204,-2.6137438799089527,right,-0.0054709911346435,-0.2425638942886996,2.1013483023777604,-9.284741510614753,0.075057754483671,0.0729902610182762,-0.0048660188913345,2.355481176617741,-0.0051014721393585
2025-04-30 01:22:36.211997200,3.9189970703125,0.221673818719362,-0.0165674611926078,0.1442198198003295,0.0403139479458332,-0.955989845821588,0.2443144727075652,-2.6141684802461143,right,-0.0021179914474487,-0.241539141262009,2.0935272533632814,-9.288977540749311,0.0747970342194166,0.0407615974545478,-0.002210721373558,2.3457246294960377,-0.0067841857671737
2025-04-30 01:22:36.251997200,3.9589970703125,0.2207751592651079,0.0173920691013336,0.1436077397352304,0.0258706361055374,-0.9561195616015352,0.2442469077224072,-2.614591852028673,right,0.0012332797050476,-0.2405139666676101,2.085704304652661,-9.293196619749068,0.0745362721369826,0.0085329264402389,0.0004447698593139,2.33596179876402,-0.0084662586450576
2025-04-30 01:22:36.291997400,3.99899755859375,0.2187637998691037,0.0224671326577663,0.1428393683105659,-0.0705845654010772,-0.9560821074564766,0.245114037117277,-2.613250865941316,right,0.0030747056007385,-0.2393088633470575,2.0676175899505616,-9.300114436313509,0.0736414090289065,-0.0020481785759329,0.018705129623413,2.324482227241993,0.0117705911397933
2025-04-30 01:22:36.331997400,4.03899755859375,0.2170731322608794,-0.0347295217216014,0.1428777645424059,-0.0221714600920677,-0.9561792124955846,0.2449664069931794,-2.613733885308586,right,0.0031490325927734,-0.239863395309085,2.0516132344804703,-9.302336204016209,0.0727927602777683,-0.0183334313333034,-0.0065108388662338,2.329764989950508,-0.0002650320529937
2025-04-30 01:22:36.371997400,4.07899755859375,0.2159125722868393,-0.0385161153972148,0.1429905681980784,-0.0104938186705112,-0.9563713309157938,0.2443090249663795,-2.6151910425849114,right,0.0072941184043884,-0.2405112954066176,2.040492121007293,-9.303234614160656,0.0722546456419625,-2.51270830631e-05,-0.0007359683513641,2.335936372061819,-0.0063861310482025
2025-04-30 01:22:36.411997400,4.11899755859375,0.214565011740828,-0.0550929047167301,0.1429289223438296,-0.0697924196720123,-0.956628251845492,0.2435030462126833,-2.617027891634886,right,-0.0095736980438232,-0.2408667244240148,2.027776724079996,-9.305164120918512,0.0716937044461201,0.0162367280572652,-0.0025833696126937,2.339321338324994,-0.0001362711191177
2025-04-30 01:22:36.451997200,4.1589970703125,0.2081392622076511,-0.0739783346652984,0.1414915957433513,-0.2298400551080703,-0.9572448904851576,0.2427032773878747,-2.619816356289701,right,-0.0250753164291381,-0.2396920571481804,1.968509127075225,-9.32068434613347,0.0689745847870112,0.0536235496401786,0.0140205025672912,2.32813285870403,-0.003398984670639
2025-04-30 01:22:36.491997200,4.1989970703125,0.200247579070075,0.0056260153651237,0.1398721844611024,-0.1331029087305069,-0.9578115517789912,0.2423671974884871,-2.6218451721017275,right,0.0094554424285888,-0.2384427907271815,1.8954697559580205,-9.338771791487932,0.0655052046924263,0.038111001253128,0.009035974740982,2.31623009333387,-0.0194131582975387
2025-04-30 01:22:36.531997400,4.23899755859375,0.1977107783923923,0.0392027236521244,0.1383772659760201,-0.0515153780579566,-0.9578711370942145,0.2432438425620645,-2.6207203540368096,right,-0.0043941140174865,-0.2358718390870231,1.8729365832410751,-9.349358067432046,0.0645533407094612,0.0396130755543708,0.0036844164133071,2.29172342858687,0.0064330995082855
2025-04-30 01:22:36.571997400,4.27899755859375,0.1971123518109442,-0.016702577471733,0.1376463500924686,-0.0307874362915754,-0.9578876535713864,0.2436288090974127,-2.6201873316053645,right,-0.0084002017974853,-0.2344530969185916,1.8679761843547225,-9.35365605688691,0.0644184879342466,-0.0031684264540672,-0.009660929441452,2.27819320814535,0.010243684053421
2025-04-30 01:22:36.611997400,4.31899755859375,0.196007758559343,0.0095313619822263,0.1375668143951692,-0.0144950747489929,-0.957939553894913,0.2436101374445536,-2.620368419245188,right,4.9889087677e-05,-0.2345808752994798,1.857586453896016,-9.35542832725644,0.0638849139456339,-0.0024135177955031,-0.0009849220514297,2.2794119362853467,-0.0099714249372482
2025-04-30 01:22:36.651997400,4.35899755859375,0.1945183016346683,-0.0397641286253929,0.1379399572547814,-0.0449746064841747,-0.9580106591188324,0.2433361537957985,-2.620999079580121,right,0.0026524066925048,-0.2357876799316977,1.843116760647297,-9.355479180660843,0.0630546571637982,-0.0417834147810936,-0.0061299800872802,2.2909208800323304,-0.004858911037445
2025-04-30 01:22:36.691997200,4.3989970703125,0.1928701900629197,0.0284473523497581,0.1378251309097455,-0.0246534887701272,-0.9579904276876544,0.2436979757028894,-2.6204621940807176,right,0.0013002157211303,-0.2359326678580028,1.8276317528761925,-9.358177918225527,0.0622089599804236,0.0014637187123298,0.0018523037433624,2.292303420431912,-0.0033900439739227
2025-04-30 01:22:36.731997200,4.4389970703125,0.1900967918299869,-0.0101319998502731,0.1376014651609016,-0.0075891129672527,-0.95825549892875,0.2431008610861114,-2.6220636707106006,right,0.0107702016830444,-0.2362753312137198,1.8015221829771997,-9.362438498279452,0.0609451720045256,-0.0012043344322592,0.0012207329273223,2.295570605534315,-0.0082104802131652
2025-04-30 01:22:36.771997200,4.4789970703125,0.1873225776238944,-0.0487113520503044,0.1373774993262871,0.0094752628356218,-0.9585186138192336,0.2425032312812447,-2.623666318855714,right,0.0202338695526123,-0.2366136603799596,1.7753972693786024,-9.36663711901307,0.0596812478587649,-0.0038723873440176,0.0005907267332077,2.298796143452078,-0.0130266845226287
2025-04-30 01:22:36.811997400,4.51899755859375,0.1873777794894415,-0.0250968933105468,0.138150705200682,0.0210446193814277,-0.9586600320891426,0.2415211789366304,-2.6254916711868352,right,0.0041474103927612,-0.2383366864167836,1.7751738358862696,-9.362633144068717,0.0596064916111562,-0.0353587828576564,-0.0029907077550888,2.3152190165951847,-0.0276266485452651
2025-04-30 01:22:36.851997400,4.55899755859375,0.1886214610096145,-0.0063629783689975,0.1389613449076089,0.043482556939125,-0.958552370329975,0.2413818628604539,-2.62542894053298,right,-0.000150442123413,-0.2397190406400031,1.7862147237300872,-9.357265479555725,0.0600164034580838,-0.037179198116064,0.0063737779855728,2.32838990220502,-0.0061381608247756
2025-04-30 01:22:36.891997400,4.59899755859375,0.1889614884255512,-0.033216793090105,0.1396879236147077,0.0036644525825977,-0.9585969232602626,0.2407757519678581,-2.62645445978335,right,-0.0023192167282104,-0.2412227575737335,1.78873664342314,-9.353208313119412,0.0600531159248483,-0.0537867322564125,-0.0002583265304565,2.3427120036765934,-0.0047594159841537
2025-04-30 01:22:36.931997200,4.6389970703125,0.1895554566668344,0.0119869671761989,0.1406552205790202,0.0160482637584209,-0.958490211072773,0.2406283614540597,-2.6264372589831018,right,-0.0071682929992675,-0.2431021953766191,1.7934591419003902,-9.347803823727368,0.0600896460366287,-0.0510528534650802,-0.0013482570648193,2.3606050955027342,-0.0054423809051513
2025-04-30 01:22:36.971997200,4.6789970703125,0.1911446407937873,0.0498103238642215,0.1415146629579448,0.0284844636917114,-0.958183071668424,0.2412279959206163,-2.6247864980527726,right,-0.0115916728973388,-0.2444003508483256,1.8077284902714192,-9.341925287082791,0.0605638030867894,-0.0213290769606828,-0.0071929544210433,2.3729594040326774,0.0021813213825225
2025-04-30 01:22:37.011997200,4.7189970703125,0.1932440046443566,0.0582873821258544,0.1415921513998389,0.0684928447008133,-0.95784916417725,0.2422779929067278,-2.622351927757172,right,0.0014360547065734,-0.2438740083386581,1.827576223296672,-9.339334101545813,0.0614666703106397,0.0151660088449716,-0.004992663860321,2.3679507820904253,0.0078571140766143
2025-04-30 01:22:37.051997400,4.75899755859375,0.1956370036534253,0.0178577899932861,0.1414456891054011,0.0527708232402801,-0.9576787476194986,0.2427304931540271,-2.621182194965697,right,0.0026500821113586,-0.2428801683168736,1.850376522517204,-9.337237421527504,0.0626616930107939,0.0143861034885048,-0.0066722333431243,2.3584917566105723,0.0049691647291183
2025-04-30 01:22:37.091997400,4.79899755859375,0.1977613955283221,0.0352875590324401,0.1417200627782861,0.0863250792026519,-0.9574981238113104,0.2430347356187875,-2.620236381581472,right,0.0075150728225708,-0.2428518479614146,1.8702213329330089,-9.333350935482978,0.0636156475335011,-0.0116467969492077,0.0008233487606048,2.3582221458889543,-0.0021741092205047
2025-04-30 01:22:37.131997400,4.83899755859375,0.1998174261098555,0.0436660572886467,0.1418688927361267,0.0507526881992816,-0.957236311940377,0.2437397938862817,-2.618502554027053,right,0.0050934553146362,-0.2425219121876615,1.889561408697069,-9.330248293292522,0.064520884779013,-0.010612622834742,0.0038342326879501,2.355081509775668,0.001508742570877
2025-04-30 01:22:37.171997200,4.8789970703125,0.2018726557695213,0.0520445555448532,0.1420175054733234,0.0151803009212017,-0.9569730628307038,0.2444445172530991,-2.6167694221694147,right,0.0026686787605285,-0.242188460215539,1.908890524675697,-9.327114086920025,0.0654260212365433,-0.0095784477889537,0.0068462193012237,2.3519069713927805,0.0051950514316558
2025-04-30 01:22:37.211997200,4.9189970703125,0.2036457802581022,0.0277993362396955,0.1421162784139037,0.0517489984631538,-0.956725779239409,0.2451445539128926,-2.615091849997785,right,0.0060763955116271,-0.24182347851731,1.925599082892388,-9.324554465565084,0.0662041430489266,0.0093087702989578,-0.0015519112348556,2.348431988758594,0.0104243457317352
2025-04-30 01:22:37.251997200,4.9589970703125,0.2049257855036007,-0.0074014719575643,0.1419446668051491,0.0213480051606893,-0.9566913706965352,0.2451901467653224,-2.6149015381921905,right,-0.0020317435264587,-0.2411187701256926,1.9378693664006887,-9.323700479084252,0.06689766041115,0.012679886072874,0.0020114034414291,2.341721677464992,0.0058457106351852
2025-04-30 01:22:37.291997400,4.99899755859375,0.2049257855036007,-0.0104729104787111,0.1419446668051491,-0.0307880360633134,-0.9566913706965352,0.2451901467653224,-2.6149015381921905,right,-0.0078006982803344,-0.2411187701256926,1.9378693664006887,-9.323700479084252,0.06689766041115,0.0145281022414565,0.0025163888931274,2.341721677464992,-0.0010596513748168
2025-04-30 01:22:37.331997400,5.03899755859375,0.2011645625724976,-0.0208061598241329,0.1414728179738525,-0.0525877699255943,-0.957077593754754,0.2444019182861152,-2.6170888482514663,right,0.001724362373352,-0.2412466295451306,1.9027273258708417,-9.330629401564597,0.0652359617584942,0.0081341061741113,0.0050591528415679,2.3429392365612087,-0.0029300600290298
2025-04-30 01:22:37.371997400,5.07899755859375,0.1974029589535875,-0.0311394091695547,0.1410004527743979,-0.0743875056505203,-0.9574602816605738,0.2436127152711929,-2.6192768891490696,right,0.0112378597259521,-0.2413665489746556,1.867560735421628,-9.337445511320231,0.0635740245389191,0.001740108244121,0.0076044499874114,2.344081246203184,-0.0047927498817443
2025-04-30 01:22:37.411997400,5.11899755859375,0.1954912621602893,-0.0217760168015956,0.1409521374408272,-0.0111914947628974,-0.9576564084386436,0.2430989949070507,-2.6205695079469864,right,0.0125083923339843,-0.2418397031760314,1.8494912641152736,-9.33990927108526,0.0626868874857614,-0.0019184609409421,-0.0023471415042877,2.3485864486679437,-0.0040252953767776
2025-04-30 01:22:37.451997200,5.1589970703125,0.1979439667259752,-0.0043714828789234,0.1413466633546016,0.0349830240011215,-0.9575226874923642,0.2431043135510125,-2.6201737574263726,right,0.00364750623703,-0.2420160121196814,1.8723123138628897,-9.334939081457255,0.0638098565408223,0.0041135801002383,-0.0011149942874908,2.350265195535123,0.001067578792572
2025-04-30 01:22:37.491997200,5.1989970703125,0.2003968737404049,0.0130330510437488,0.1417409987311842,0.0811575353145599,-0.9573877138027332,0.2431092587120292,-2.619777770954172,right,-0.0052189230918884,-0.2421914388740967,1.8951222576946016,-9.32991394677162,0.0649327382109365,0.0101456213742494,0.0001182854175567,2.3519353207044302,0.0061613321304321
2025-04-30 01:22:37.531997400,5.23899755859375,0.2026346380138017,0.0104594137519598,0.1416611421464604,0.0269984789192676,-0.9573554270132733,0.242966561833525,-2.619842520846591,right,-0.0213923454284667,-0.2414561599820004,1.916343178769201,-9.32734146593511,0.0661064815184044,0.0348301865160465,-0.0014732629060745,2.344934502031654,-0.0021717101335525
2025-04-30 01:22:37.571997400,5.27899755859375,0.2024401428696817,0.0415955185890197,0.1406853173044389,-0.0136604271829128,-0.9573545370491016,0.2435023642555179,-2.6190264951390216,right,-0.0039806365966796,-0.2393971077221534,1.915495768159628,-9.332423883765935,0.0662303272401115,0.0483925230801105,0.006078228354454,2.3253229158498345,-0.0018130540847778
2025-04-30 01:22:37.611997400,5.31899755859375,0.2022688658689514,0.0357376933097839,0.1399086222891164,-0.008866012096405,-0.9572938412746193,0.2441714302421809,-2.6178762424381543,right,0.0037948489189147,-0.2377276552399555,1.914674514904618,-9.336541840478777,0.0662905668577364,0.0296767279505729,-0.0013941228389739,2.3094148603610694,-0.0053199082612991
2025-04-30 01:22:37.651997400,5.35899755859375,0.2008864786040037,-0.0172297544777393,0.1392057535893105,-0.0493280328810215,-0.9573182575090268,0.2446252038633846,-2.617284206611457,right,0.0009715557098388,-0.2365638323287507,1.9023009171523155,-9.341806629139183,0.0657431631575044,0.0175616964697837,0.002586007118225,2.298321073286236,0.0081172287464141
2025-04-30 01:22:37.691997200,5.3989970703125,0.1995948402524759,-0.0461239926517009,0.1389822599512348,-0.0117738619446754,-0.9575777144085684,0.2438673556607991,-2.6190569556911445,right,0.0087320804595947,-0.2365476326063385,1.890240477002412,-9.344292600736022,0.0652502845268135,0.0035883346572518,-0.0099723637104034,2.298166613376885,-0.0130885243415832
2025-04-30 01:22:37.731997200,5.4389970703125,0.1998772362346589,-0.0241390727460384,0.1391036962302446,0.0297009460628032,-0.957724640268699,0.2431680869270263,-2.6204397890393256,right,0.0084821581840515,-0.236825560269372,1.892752313692868,-9.343132324784994,0.0654446378874321,-0.0058403443545103,-0.0034749656915664,2.3008162511028347,-0.0095125436782836
2025-04-30 01:22:37.771997200,5.4789970703125,0.2012057244895774,-0.0170385297387838,0.1395932158239015,0.0374538823962211,-0.9577482307301094,0.242633468268951,-2.62126444734329,right,-0.0037840604782104,-0.2375722392046332,1.904819037453085,-9.33892318265736,0.0660390324671119,-0.0189123786985874,-0.0011877417564392,2.307933535762131,-0.0055147260427474
2025-04-30 01:22:37.811997400,5.51899755859375,0.2016966378850262,0.0035092737525701,0.1395808390318248,0.001991793513298,-0.9577512385194752,0.2425573349897436,-2.6213709068488646,right,-0.015245497226715,-0.2374284806079866,1.9094699319988488,-9.338312357282636,0.0663006420761816,0.0060394667088985,0.003739058971405,2.306563416452706,0.0050266534090042
2025-04-30 01:22:37.851997400,5.55899755859375,0.2014773001726026,-0.0048592668026685,0.139277916465367,0.0003240950172767,-0.9578166901943636,0.2424761153882069,-2.6216467979475926,right,-0.0047339797019958,-0.2368669791109192,1.9076804182335731,-9.339998118412494,0.0662893812500429,0.0222512613981962,-0.0054636895656585,2.301211095639318,0.0006620436906814
2025-04-30 01:22:37.891997400,5.59899755859375,0.2021468285725958,0.0033697383478283,0.138861882050623,0.0404978916049003,-0.9578966830475764,0.2422647049868553,-2.6221249023799404,right,0.0091094374656677,-0.2358556524559066,1.914399643485993,-9.34099414371252,0.0667774490290316,0.0151401963084936,0.0030147582292556,2.291569114807993,-0.0068500339984893
2025-04-30 01:22:37.931997200,5.6389970703125,0.2046417656437701,-0.0090778609737753,0.1387773931796079,0.0164473429322242,-0.9577467893079876,0.2425575144207683,-2.621268209693995,right,-0.0006349086761474,-0.2349819289327152,1.938105074852705,-9.338145768544075,0.0680288023009948,0.0281211175024509,0.0066312253475189,2.2832370475314554,-0.0004646331071853
2025-04-30 01:22:37.971997200,5.6789970703125,0.2071353494644324,-0.0215254593640565,0.1386926498775413,-0.0076032057404518,-0.9575951837616136,0.2428498730651037,-2.620413861857611,right,-0.0103854537010192,-0.2341060713680809,1.96179501638934,-9.335237187620995,0.0692800298531997,0.0411020368337631,0.0102492868900299,2.274883060684055,0.0059230327606201
2025-04-30 01:22:38.011997200,5.7189970703125,0.2063875749965953,0.0255212318152189,0.138422982237402,-0.0332791209220886,-0.957630918528493,0.2429515067661426,-2.6203609875918312,right,0.0058360695838928,-0.2337262674642321,1.9549907432019709,-9.337546633607149,0.0689688693213854,-0.0094172544777393,0.0011796355247497,2.271259901750833,-0.0134861022233963
2025-04-30 01:22:38.051997400,5.75899755859375,0.2078514437111481,0.0538020618259906,0.1386853162450448,0.0428739562630653,-0.9573183904577316,0.2438754672702679,-2.618216444102996,right,0.0013505220413208,-0.2337471442609432,1.9686478048935527,-9.334628115811944,0.0695183179320133,-0.0164509359747171,0.0009014904499053,2.271459077584743,0.0008103251457214
2025-04-30 01:22:38.091997400,5.79899755859375,0.2103085199796547,0.0412725359201431,0.1389492168824661,0.0444643981754779,-0.9569633758205768,0.2448149561528412,-2.615930151287925,right,-0.0080683827400207,-0.2335023846963081,1.9916936033077537,-9.3303061609596,0.070568300388559,0.0107825305312871,0.0023629516363143,2.269123912635445,0.0098763555288314
2025-04-30 01:22:38.131997400,5.83899755859375,0.2104405247932578,-0.035746082663536,0.1385279683332073,-0.0076499655842781,-0.9570525390559554,0.2446435299030236,-2.61639038588602,right,-0.0040434598922729,-0.2326164131278479,1.993344439254701,-9.332005950614809,0.0707822394019704,0.0238131284713745,0.0012501329183578,2.2606704109363256,0.0056154578924179
2025-04-30 01:22:38.171997200,5.8789970703125,0.2088946312541346,-0.0276206899434328,0.1379577100309093,-0.0281492732465267,-0.9573437765099634,0.2439781675118124,-2.618095675465413,right,0.0021134614944458,-0.2319406340631065,1.9792321811415252,-9.336568143963811,0.0702507264398498,0.0318503268063068,0.0011913031339645,2.2542212347969413,-0.0005095154047012
2025-04-30 01:22:38.211997200,5.9189970703125,0.2068822226374539,-0.0435915142297744,0.1374695150313665,-0.0307853873819112,-0.957603783417976,0.2434654921047197,-2.619511075806347,right,0.0048521757125854,-0.2315337613240703,1.9606274339146912,-9.341429612520336,0.0694390577612834,0.0178879611194133,0.0071637481451034,2.250337963622808,0.0046389997005462
2025-04-30 01:22:38.251997200,5.9589970703125,0.2062407942037316,0.069531962275505,0.1370047953843556,0.0029481928795576,-0.957562149821731,0.2439608844957597,-2.618685397073904,right,0.0077302455902099,-0.2306610248100192,1.9550366281703115,-9.344603566381334,0.0691916688893836,0.0134059116244316,0.0047661960124969,2.2420067731291056,-0.0089108347892761
2025-04-30 01:22:38.291997400,5.99899755859375,0.2087448814132234,0.0342055298388004,0.1373186261213862,0.0609686076641082,-0.9571701565912027,0.2450214302779606,-2.6161341279221357,right,-0.0064437389373779,-0.2304902666196049,1.978509419824928,-9.340053647992017,0.0702382021161796,-0.0123663004487752,-0.0011371225118637,2.2403765415787698,0.0081541240215301
2025-04-30 01:22:38.331997400,6.03899755859375,0.2106485297620401,0.0203863829374313,0.1371943596002925,-0.0007879547774791,-0.95706592572349,0.2452156490283502,-2.615563247430154,right,-0.0100289583206176,-0.2296957019606632,1.996657655455917,-9.338007821378111,0.0712166321326643,0.0197368059307336,-0.0034399777650833,2.2327898858420547,0.0039264261722564
2025-04-30 01:22:38.371997400,6.07899755859375,0.2108945139222948,-0.0287645980715751,0.1370070336515627,0.0097312349826097,-0.9571061500040654,0.2451072580536693,-2.6158144203917084,right,0.0046080350875854,-0.2292571006822162,1.999159409143776,-9.338473100802302,0.0714104198517561,-0.0037631355226039,0.0005767941474914,2.2286014942415058,0.000412568449974
2025-04-30 01:22:38.411997400,6.11899755859375,0.2100783584030318,-0.0492289178073406,0.1368423368156944,-0.0280407797545194,-0.9572942525232424,0.2445501943222348,-2.6171004374529887,right,-0.0084340572357177,-0.2292171996743824,1.991555656141788,-9.340188672548532,0.0711132080165809,0.0016971309669315,-0.0024446696043014,2.22822038596943,-0.0074683278799057
2025-04-30 01:22:38.451997200,6.1589970703125,0.2082501881003383,-0.0382984057068824,0.1367010955654091,-0.0103843137621879,-0.9574723787146534,0.2441743397538589,-2.61811329905965,right,0.0088451504707336,-0.229465169681384,1.9743625292785465,-9.343273194560409,0.0702741772055364,-0.0064343377016484,0.0060239881277084,2.2305884302750227,-0.0021304935216903
2025-04-30 01:22:38.491997200,6.1989970703125,0.2070639931445167,0.0015366934239864,0.1363642289889819,-0.0301428753882646,-0.957611534112478,0.2439529256284383,-2.618792517057678,right,-0.01028972864151,-0.2291113194614019,1.9634402993783355,-9.346380512925982,0.0697998634427069,0.0273120235651731,-0.0030477792024612,2.227209163100272,-0.0126731991767883
2025-04-30 01:22:38.531997400,6.23899755859375,0.2052349508809864,0.0006656412733718,0.1358369669060537,-0.0090036503970623,-0.9576331376225916,0.2443961957791529,-2.6182177366412405,right,0.0130360126495361,-0.2284305301847064,1.9466506387494504,-9.35143838083744,0.0689758246337659,-0.0047384705394506,0.004455029964447,2.2207069415993987,-0.004051923751831
2025-04-30 01:22:38.571997400,6.27899755859375,0.2052349508809864,-0.0032360814511775,0.1358369669060537,0.0093862898647785,-0.9576331376225916,0.2443961957791529,-2.6182177366412405,right,-0.0002136826515197,-0.2284305301847064,1.9466506387494504,-9.35143838083744,0.0689758246337659,0.0021305996924638,-0.0097121000289917,2.2207069415993987,-0.0075220316648483
2025-04-30 01:22:38.611997400,6.31899755859375,0.2059165991636112,-0.0187383536249399,0.1358360488678414,0.03223617374897,-0.9575640178555328,0.2445760819175487,-2.617773404227302,right,0.0101576447486877,-0.228221192956167,1.953119688633084,-9.350563936090468,0.069299961902307,-0.0218727625906467,-0.0010201036930084,2.218707292214781,-0.0053243339061737
2025-04-30 01:22:38.651997400,6.35899755859375,0.2055805066684545,-0.0204557161778211,0.1354920834576965,-0.0247614383697509,-0.9576642147894752,0.2443872512610496,-2.6182952360003693,right,0.0008363723754882,-0.2276225830254856,1.950247640328109,-9.35251857728958,0.0692543674656621,-0.0062024313956499,0.0071572214365005,2.2129887684375045,-0.0039777606725692
2025-04-30 01:22:38.691997200,6.3989970703125,0.205244813743244,-0.0221730787307024,0.1351481042366971,-0.0817590504884719,-0.9577643302088088,0.2441983991383802,-2.618816873480357,right,-0.0084854364395141,-0.2270238354939539,1.947377637849748,-9.354467957791686,0.069208767132037,0.0094678979367017,0.0153343379497528,2.207268052703142,-0.0026309788227081
2025-04-30 01:22:38.731997200,6.4389970703125,0.2043165405164345,0.010112190619111,0.1350466381736267,-0.0083400756120681,-0.9578319067498956,0.2441107656999093,-2.619124443806172,right,0.0031701922416687,-0.2270710298532288,1.9386722072161733,-9.356169501012564,0.0687787117304561,-0.0078801065683364,0.0054990649223327,2.207719011341035,-0.0063775032758712
2025-04-30 01:22:38.771997200,6.4789970703125,0.2033882719591558,0.042397454380989,0.1349451592379584,0.065078891813755,-0.9578993202617644,0.2440230893290976,-2.619432101281353,right,0.0148249268531799,-0.2271179811672511,1.9299654614083468,-9.357864029970765,0.0683486488228203,-0.0252281110733747,-0.0043360590934753,2.20816763189137,-0.0101237744092941
2025-04-30 01:22:38.811997400,6.51899755859375,0.2081759686417434,0.0974958166480064,0.1357290035979534,0.128612220287323,-0.9573546641351874,0.2451370505880244,-2.616402772322913,right,-0.0023973584175109,-0.2273140011116236,1.9746562515281136,-9.348092577540871,0.0704099029083849,-0.0225716009736061,-0.0055285394191741,2.210040586156398,-0.0024894475936889
2025-04-30 01:22:38.851997400,6.55899755859375,0.2110215925463119,0.0457243546843528,0.1359326611748773,-0.0093740224838256,-0.956871059858466,0.2465572264844027,-2.6131063664201064,right,-0.0197567343711853,-0.2267604828238124,2.00150524161756,-9.343630337435007,0.0716221865574248,0.0025374051183462,0.0049223750829696,2.2047516859680414,0.0233645737171173
2025-04-30 01:22:38.891997400,6.59899755859375,0.2087239709699256,-0.0489308908581733,0.1352823390919092,-0.0862131342291832,-0.9570554809802518,0.2464763919875923,-2.613699597767696,right,-0.0169125795364379,-0.2260326226196722,1.9803638155199583,-9.349771908929943,0.0706610691747312,0.0299806296825408,-0.0013737827539443,2.197795875480771,0.0157677084207534
2025-04-30 01:22:38.931997200,6.6389970703125,0.2046517743663115,-0.0462439768016338,0.1342259654092693,-0.0790969356894493,-0.9575584853479286,0.2455636278878529,-2.6163102593733,right,0.0051223635673522,-0.2250564590810864,1.942708476994932,-9.359854911527036,0.069018825791146,0.0395834483206272,-0.0053005516529083,2.1884654448166487,-0.0001138001680374
2025-04-30 01:22:38.971997200,6.6789970703125,0.2031964545449772,-0.0212972164154052,0.1332561216697011,-0.0569326020777225,-0.9577769164477048,0.2453596036339081,-2.6171513731773985,right,0.0034136772155761,-0.2234546057849079,1.929789812580496,-9.366094098177552,0.0685924230829731,0.0324778370559215,-0.0015126913785934,2.1731500945240256,0.0020672529935836
2025-04-30 01:22:39.011997200,6.7189970703125,0.2017430500915703,0.0036495439708232,0.1322861185331131,-0.0347682684659957,-0.9579942063429572,0.2451552788535783,-2.6179898255439573,right,0.0017006397247314,-0.2218515704247989,1.9168707097746431,-9.37229003020823,0.0681659387497839,0.0253722239285707,0.0022751688957214,2.157817646966129,0.0042499750852584
2025-04-30 01:22:39.051997400,6.75899755859375,0.2013777379124486,-0.0131287965923547,0.1316193774215886,0.0088198818266391,-0.9581141355613542,0.2450381533569741,-2.618450654036641,right,0.0021337866783142,-0.2205783042939407,1.9139947159469128,-9.375673827427626,0.0681910538054697,0.0326582044363021,-0.0003989934921264,2.145635480132699,0.0009672492742538
2025-04-30 01:22:39.091997400,6.79899755859375,0.2002753834703781,0.0697960704565048,0.1308542956837876,-0.0740298777818679,-0.9581663960315352,0.2453459753984097,-2.6181339120943967,right,-0.0068362355232238,-0.2192329154709071,1.904230862301588,-9.380598424348234,0.0678213992167314,0.0362384989857673,0.0079428702592849,2.1327594858162104,-0.027455598115921
2025-04-30 01:22:39.131997400,6.83899755859375,0.1987973950128782,0.0441478081047534,0.1302380113931996,-0.0481024160981178,-0.9580492034922056,0.2463167995392828,-2.6164421037105687,right,-0.0049350261688232,-0.2182004457415892,1.8907982570156452,-9.385556339016556,0.0671406821621458,0.0243526324629783,-0.0011162459850311,2.1228756590530278,-0.0181629359722137
2025-04-30 01:22:39.171997200,6.8789970703125,0.1973179483702279,0.018499543890357,0.1296214888280565,-0.0221749581396579,-0.9579302991460902,0.2472871728905783,-2.614749152423592,right,-0.0030370950698852,-0.2171704173306529,1.87733832533136,-9.390482689502834,0.0664598412620955,0.0124667678028345,-0.0101725757122039,2.113012875077873,-0.0088724642992019
2025-04-30 01:22:39.211997200,6.9189970703125,0.1994854466809873,0.0133191868662834,0.129619584817073,0.0857619792222976,-0.957762703947508,0.2476498490448479,-2.6137802627096045,right,-0.0029325485229492,-0.2165349831442747,1.8979535355977712,-9.387705626004934,0.0675203105094797,0.0047890432178974,-0.0092959553003311,2.1069274176843464,0.0133302211761474
2025-04-30 01:22:39.251997200,6.9589970703125,0.2036325909313398,0.096737653017044,0.1300229784596585,0.0697451382875442,-0.957223282176253,0.2490137033830144,-2.6104309353427224,right,-0.003856599330902,-0.2160597751217317,1.9370714940212663,-9.380732864382862,0.0693523295171793,-0.0106522673740983,0.00347301363945,2.102375745729357,0.001082420349121
2025-04-30 01:22:39.291997400,6.99899755859375,0.2077776680743259,0.1801561117172241,0.1304256352864109,0.0537282973527908,-0.9566785104650346,0.2503761924443267,-2.607084048840645,right,-0.0047942399978637,-0.2155710230028759,1.9761502894781529,-9.373627416291832,0.0711839555400762,-0.0260935798287391,0.0162459909915924,2.09769387152344,-0.0111521035432815
2025-04-30 01:22:39.331997400,7.03899755859375,0.2116217799747843,0.1635285913944244,0.1304491343741689,0.0176941491663455,-0.9557191131244376,0.2535513197545602,-2.6001200635935424,right,-0.0089058279991149,-0.2140736844837532,2.0128264077074824,-9.369021968322992,0.0727724737438324,0.0153282284736633,0.0034338235855102,2.083347512393445,0.001036450266838
2025-04-30 01:22:39.371997400,7.07899755859375,0.2114540723168099,0.0441731885075569,0.1298071822155762,-0.0613298155367374,-0.9552336651772808,0.2557394791713685,-2.595784833787312,right,-0.0047871470451354,-0.2124344145183571,2.011969206356257,-9.372686336049435,0.0726367484234204,-0.0003101378679275,-0.0047123879194259,2.0676360023900866,0.0163383483886718
2025-04-30 01:22:39.411997400,7.11899755859375,0.2103002438566791,-0.0273827984929084,0.1299753551562112,-0.0144937671720981,-0.9552356875535796,0.2558302737359663,-2.595662880867307,right,-0.0014950037002563,-0.213090390514597,2.000869866323471,-9.373673008999228,0.0719867862183041,-0.0178902484476566,-0.0027416348457336,2.0739238504879176,0.0025010854005813
2025-04-30 01:22:39.451997200,7.1589970703125,0.2099929819206114,-0.0138366213068366,0.130136603454575,-0.0012755151838064,-0.9553350769716236,0.2554217425619292,-2.5964944609344256,right,-0.0124105811119079,-0.2135758522773697,1.9977793529622256,-9.373301253077388,0.0718268344722381,0.0106859151273965,-0.0025617331266403,2.078576644729823,-0.0075072348117828
2025-04-30 01:22:39.491997200,7.1989970703125,0.2092908137600755,-0.0165080316364765,0.1302247657880829,-0.02366229519248,-0.9554001991672534,0.2552353557264035,-2.596925542128748,right,-0.0102840662002563,-0.2139829698465294,1.9910212570041417,-9.37387350000739,0.0714631218608233,-0.0229838844388723,6.22570514678e-05,2.0824781822130083,0.0018426328897476
2025-04-30 01:22:39.531997400,7.23899755859375,0.2071972055686566,-0.0341280214488506,0.1302546289120435,-0.0540831312537193,-0.9555950082671564,0.2547746348978851,-2.598079764694541,right,-0.0028128623962402,-0.214694366946112,1.9710864302173257,-9.376569314962625,0.070439752247178,-0.0020312871783971,-0.0072093904018402,2.089295022621006,-0.0067146867513656
2025-04-30 01:22:39.571997400,7.27899755859375,0.2045860809043252,-0.0207723006606102,0.1304884951909856,-0.0661070048809051,-0.9558145332574552,0.2541965577127685,-2.599473575555305,right,-0.0050858259201049,-0.2159888470911767,1.94604536633268,-9.379027814030646,0.0691043900586704,-0.0312660858035087,-0.0045051574707031,2.101696385163069,-0.0150948762893676
2025-04-30 01:22:39.611997400,7.31899755859375,0.2019723925835936,-0.0074165798723697,0.1307220843430152,-0.0781308710575103,-0.956031938867924,0.2536179224072226,-2.6008712313325866,right,-0.0073658823966979,-0.2172797863876367,1.9209790218763048,-9.381416170471908,0.0677688819088021,-0.0605008900165557,-0.0017983615398406,2.1140601921737194,-0.023471251130104
2025-04-30 01:22:39.651997400,7.35899755859375,0.1981538586134752,-0.0383517071604728,0.1319305639392393,-0.0601143538951873,-0.9560843848400996,0.2533947686507206,-2.6013932051806266,right,0.0097898840904235,-0.2208786642721756,1.8836318725176155,-9.381163072493672,0.0654837496394242,-0.1110444366931915,0.0090495347976684,2.148509574264288,-0.0053020417690277
2025-04-30 01:22:39.691997200,7.3989970703125,0.1956061156574772,-0.0340550243854522,0.1338191160974137,-0.0003358945250511,-0.9561377901812962,0.2526564022872684,-2.602678658904591,right,0.0158759951591491,-0.2256191680648721,1.8577245471924544,-9.375835739991068,0.0637014279062855,-0.0953228399157524,0.0026957392692565,2.193844361376017,-0.0149749964475631
2025-04-30 01:22:39.731997200,7.4389970703125,0.1979548246178768,0.0316077098250389,0.1353551951209195,0.0346435271203517,-0.9556053012184896,0.2536983420806776,-2.599853889633929,right,0.0104153752326965,-0.2280369277546763,1.8786917857669287,-9.366218601340057,0.0643019101520659,-0.0820172205567359,1.5795230865e-06,2.21694700454399,-0.0114659219980239
2025-04-30 01:22:39.771997200,7.4789970703125,0.2003118629205244,0.09727044403553,0.1368907205658595,0.0696229487657547,-0.9550688995544594,0.2547392514979096,-2.597021683263111,right,0.0049442648887634,-0.2304482023901213,1.899693949524313,-9.356498002314568,0.0649021288991507,-0.0687116086483001,-0.00269615650177,2.2399749750405547,-0.0079492479562759
2025-04-30 01:22:39.811997400,7.51899755859375,0.2032347307462891,0.0879044160246849,0.1376801522328843,0.0131669826805591,-0.9543791916702864,0.2566322538989927,-2.5925599398664323,right,-0.0135384202003479,-0.2310172161591012,1.926776017717272,-9.349655589073896,0.0659120388661604,-0.0425487421452999,0.0021828413009643,2.245407229222357,0.007275566458702
2025-04-30 01:22:39.851997400,7.55899755859375,0.2032414090179154,0.0321576558053493,0.1383657476524578,-0.0224083289504051,-0.9539865773504796,0.2578118377369694,-2.589917069057769,right,-0.0043238401412963,-0.2322788091145829,1.9262651455856856,-9.346860989919303,0.0655563429854017,-0.035512913018465,0.0019527077674865,2.257448672410846,0.0052326321601867
2025-04-30 01:22:39.891997400,7.59899755859375,0.2027711571258054,0.0043167192488908,0.1386425181198045,-0.015455562621355,-0.9538485654500322,0.2582702128655548,-2.588937518825877,right,-0.0019206404685974,-0.2329234976357231,1.92157611098662,-9.346338427349924,0.0651737515972828,-0.015671195462346,0.0008591562509536,2.263600765299797,0.0033575743436813
2025-04-30 01:22:39.931997200,7.6389970703125,0.2026801866938378,-0.0102321449667215,0.1388147320796205,0.0127320066094398,-0.9538169017342212,0.2583219329340177,-2.588791607236461,right,-0.0011642575263977,-0.2333018390090757,1.920553343810141,-9.34567382596135,0.0650670856604647,0.005280477926135,0.005494475364685,2.2672106263600287,0.0034387409687042
2025-04-30 01:22:39.971997200,7.6789970703125,0.201843975101528,-0.0497540012001991,0.1388331695423569,0.0124304182827472,-0.953979027367557,0.2578049245501367,-2.589950804772289,right,0.0014742016792297,-0.2336478910984605,1.912580319104344,-9.346507354176044,0.0647001533761083,0.0032274213153868,0.0057656913995742,2.2705121521234517,0.0180386155843734
2025-04-30 01:22:40.011997200,7.7189970703125,0.2010072952177013,-0.0892758592963218,0.1388515522308035,0.0121288299560546,-0.9541406939374592,0.2572878388596231,-2.5911102581275616,right,0.0041121840476989,-0.233992988516125,1.904603056614846,-9.34733562169373,0.064333196699294,0.001174364471808,0.0060373097658157,2.2738043255366382,0.0326394438743591
2025-04-30 01:22:40.051997400,7.75899755859375,0.2002631222639652,0.0038056224584579,0.1396145556423966,0.0295558143407106,-0.9538653577544188,0.2580728857070236,-2.5893470197366284,right,0.0251342058181762,-0.2356866957964288,1.896877576929331,-9.344963047343493,0.0636181208454931,-0.0693747177720069,0.0097741931676864,2.2899580263495443,0.0119008123874664
2025-04-30 01:22:40.091997400,7.79899755859375,0.1995216958847119,0.0968871116638183,0.1403772985242683,0.0469827987253665,-0.9535881767595944,0.2588574903228954,-2.5875841017086185,right,0.0461519956588745,-0.2373816124846404,1.88917650103271,-9.342548971939086,0.0629029297309195,-0.1399238109588623,0.0135085582733154,2.306116695598513,-0.008838340640068
2025-04-30 01:22:40.131997400,7.83899755859375,0.2030560705879088,0.0277692154049873,0.1428008022410391,0.0460152179002761,-0.9528269399401056,0.2601183018007643,-2.5838871120609315,right,-0.0091665983200073,-0.2412856727578331,1.9203544602371752,-9.326924117305872,0.0637741562410793,-0.1293879598379135,-0.0027159601449966,2.343311138613522,0.0127304792404174
2025-04-30 01:22:40.171997200,7.8789970703125,0.2027106368067889,0.0130239883437752,0.1431389212726667,0.0121628120541572,-0.9527481541659923,0.2602961654862654,-2.583459459989886,right,-0.0043191313743591,-0.2420667343428153,1.9167634500078856,-9.32579131388366,0.0634682249603766,-0.0586041137576103,-0.0040455758571624,2.3507480106160044,0.0057422667741775
2025-04-30 01:22:40.211997200,7.9189970703125,0.2023654755323806,-0.0017212368547916,0.1434769979334739,-0.0216895975172519,-0.9526690723576632,0.2604739947974748,-2.583031854524382,right,0.0005275011062622,-0.2428479034612599,1.9131747778661548,-9.324650911676883,0.0631622775978081,0.0121797323226928,-0.0053754299879074,2.358184590357542,-0.0012459158897399
2025-04-30 01:22:40.251997200,7.9589970703125,0.2025733918301354,0.0220374278724193,0.1431511633511337,0.0345546938478946,-0.952620081222479,0.2607911097097185,-2.582441597264179,right,0.003308892250061,-0.2420621931804588,1.9154856851570308,-9.326064870128034,0.0633306473344885,-0.0035334154963493,0.0052203834056854,2.35070490212664,0.0078370571136474
2025-04-30 01:22:40.291997400,7.99899755859375,0.2050798390299086,0.0139474039897322,0.1440533425246986,0.0730428844690322,-0.9524030398403228,0.2608473586983343,-2.581785270104795,right,-0.0028331875801086,-0.243234586112667,1.938292267987877,-9.318529798448084,0.0643104630626931,-0.0274992734193801,-0.0032239854335784,2.361865324696898,-0.0046747624874114
2025-04-30 01:22:40.331997400,8.03899755859375,0.2065666955662888,-0.014288761653006,0.1443708667320118,0.0330980457365512,-0.9523379029790332,0.2607441711034573,-2.581741213501164,right,-0.004448652267456,-0.2434931225006584,1.952020202958584,-9.315039618244766,0.0649784901317952,-0.0263806413859128,-0.0049919635057449,2.364325869591534,-1.46478414535e-05
2025-04-30 01:22:40.371997400,8.07899755859375,0.2080536316270228,-0.0425249263644218,0.1446882952016007,-0.0068467929959297,-0.9522721955154818,0.2606408332453877,-2.5816967089022644,right,-0.0060662031173706,-0.2437515596992586,1.9657425849713384,-9.311528979775307,0.0656464743129613,-0.0252620112150907,-0.0067593902349472,2.3667855377033358,0.0046455562114715
2025-04-30 01:22:40.411997400,8.11899755859375,0.2065105355747313,-0.0541821792721748,0.1448802762607728,-0.0377824120223522,-0.9525295298985152,0.2597756894443926,-2.583614284207602,right,-0.0027098655700683,-0.2447147522642566,1.950903327757865,-9.312315161716937,0.0649134980635605,-0.0038022045046091,-0.0070799440145492,2.375950840933621,0.0014982819557189
2025-04-30 01:22:40.451997200,8.1589970703125,0.2059758618725825,-0.0201772712171077,0.1449286740762269,-0.0180380661040544,-0.9526775783260292,0.2592603347529628,-2.5847326869934744,right,-0.0094932317733764,-0.2450404856836919,1.945765672608465,-9.312599239355324,0.0646936510114358,0.0130063761025667,-0.0063340961933135,2.3790499759927397,0.0016512423753738
2025-04-30 01:22:40.491997200,8.1989970703125,0.2054407641247838,0.0138276368379592,0.1449770166482631,0.0017062779515981,-0.9528252492047184,0.2587449242210708,-2.5858512179905198,right,-0.0162767171859741,-0.2453656066229248,1.940624364197254,-9.312880978906154,0.0644737803713906,0.0298149567097425,-0.0055879056453704,2.3821429735720154,0.001804769039154
2025-04-30 01:22:40.531997400,8.23899755859375,0.2053425537374531,0.0171194300055503,0.1443272515801575,0.000642537837848,-0.95280244607459,0.2591668246663504,-2.5851724409214425,right,-0.000825822353363,-0.2439724198560966,1.94038456409201,-9.316312122398614,0.0645750351589467,0.0239870399236679,-0.0024275332689285,2.368887332288176,0.0035156309604644
2025-04-30 01:22:40.571997400,8.27899755859375,0.2053425537374531,-0.0090636648237705,0.1443272515801575,0.0042547918856143,-0.95280244607459,0.2591668246663504,-2.5851724409214425,right,-0.0025339126586914,-0.2439724198560966,1.94038456409201,-9.316312122398614,0.0645750351589467,0.0139891225844621,-0.0067172646522521,2.368887332288176,0.0006835013628005
2025-04-30 01:22:40.611997400,8.31899755859375,0.2054990785547272,-0.0045822104439139,0.1438241980784808,0.0355284921824932,-0.9529323891529946,0.2588997930380956,-2.585854748603765,right,0.0177637934684753,-0.2429127057588174,1.942353818338364,-9.318460240343212,0.0648487145714334,0.0158792473375797,-0.0022359639406204,2.358801553212106,-0.0088573694229125
2025-04-30 01:22:40.651997400,8.35899755859375,0.2068998867566306,-0.0127259967848658,0.1438190914807385,0.0166922602802515,-0.9529487992443492,0.2586545974094488,-2.586208932338473,right,-0.0103187561035156,-0.2425431928934584,1.955584325180948,-9.316582756033538,0.0655938586062034,-0.0002933293581008,0.000134453177452,2.3552840466104445,-0.0010615587234497
2025-04-30 01:22:40.691997200,8.3989970703125,0.2068998867566306,-0.0145878437906503,0.1438190914807385,-0.0016791131347417,-0.9529487992443492,0.2586545974094488,-2.586208932338473,right,0.0032423734664916,-0.2425431928934584,1.955584325180948,-9.316582756033538,0.0655938586062034,-0.0035208924673497,0.0028158724308013,2.3552840466104445,-0.0041145086288452
2025-04-30 01:22:40.731997200,8.4389970703125,0.2067966862482477,-0.0001203492283821,0.143980041962114,-0.0012434553354978,-0.9530636032748974,0.2581514518853437,-2.587219971267418,right,-0.0071299076080322,-0.242981677124316,1.954410605226457,-9.315772608694434,0.0655554970084715,-0.0036512042861431,0.0017827600240707,2.359457971294224,-0.0058737248182296
2025-04-30 01:22:40.771997400,8.47899755859375,0.2075639955875975,0.0180554520338773,0.1440407595429629,0.0148743744939565,-0.9529505419404914,0.2584500382788655,-2.5864954719258506,right,-0.0036801099777221,-0.2428502077046689,1.961621997909993,-9.314573754298689,0.0658875266843747,0.0041901366785168,0.000247836112976,2.358206656058877,-0.0071378201246261
2025-04-30 01:22:40.811997400,8.51899755859375,0.2083311766953207,0.0362312495708465,0.1441014366295055,0.0309922080487012,-0.9528372660864785,0.2587486117642658,-2.585771015970568,right,-0.0002306699752807,-0.242718174604545,1.96883163702786,-9.313370808249712,0.0662195370602628,0.0120314769446849,-0.0012869387865066,2.356949787865579,-0.0084013938903808
2025-04-30 01:22:40.851997400,8.55899755859375,0.2091636574553174,0.0227146595716476,0.1438302178731335,-0.0057538133114576,-0.9526701910465002,0.2594053974277397,-2.5843916409713987,right,-0.007573664188385,-0.2418197965646104,1.9770231267899276,-9.313795755663511,0.0666440506934956,0.0044777537696063,0.0033985972404479,2.3483969174452124,0.0063817054033279
2025-04-30 01:22:40.891997400,8.59899755859375,0.2091636574553174,-0.0025534555315971,0.1438302178731335,0.0129824597388505,-0.9526701910465002,0.2594053974277397,-2.5843916409713987,right,0.0044854879379272,-0.2418197965646104,1.9770231267899276,-9.313795755663511,0.0666440506934956,0.0272096302360296,-0.0006060004234313,2.3483969174452124,-0.0011644512414932
2025-04-30 01:22:40.931997200,8.6389970703125,0.2092522597539038,-0.0095057487487792,0.143510660540915,0.0208497308194637,-0.9527639863951,0.2591930454996117,-2.5849163141573763,right,0.005706787109375,-0.2411567835613374,1.9781712739117443,-9.315141909575464,0.0668179253225157,0.0179405808448791,-0.0002434253692626,2.34208364264518,-0.0005758106708526
2025-04-30 01:22:40.971997200,8.6789970703125,0.2092522597539038,-0.0164580419659614,0.143510660540915,0.0287170019000768,-0.9527639863951,0.2591930454996117,-2.5849163141573763,right,0.0067909359931945,-0.2411567835613374,1.9781712739117443,-9.315141909575464,0.0668179253225157,0.0086715286597609,0.000236228108406,2.34208364264518,-0.0006309449672698
2025-04-30 01:22:41.011997200,8.7189970703125,0.2100709341972481,-0.0092624677345156,0.1434323698522582,0.0146195841953158,-0.9528632629637588,0.2587420775978465,-2.585785381509294,right,-0.0012458562850952,-0.2408287390265358,1.9859568132214247,-9.314270387437938,0.0673167306857701,-0.0178537257015705,0.0015344619750976,2.33895966540575,-0.0023246109485626
2025-04-30 01:22:41.051997400,8.75899755859375,0.2102859473017979,-0.0108415950089693,0.143313527114235,0.0073609999381005,-0.952929876359568,0.2585165965601092,-2.5862647100932565,right,-0.001562476158142,-0.2405528468247725,1.988094117511064,-9.31447380105555,0.0674925568073536,-0.0049448534846305,6.53862953186e-05,2.3363320933811367,-0.0010570287704467
2025-04-30 01:22:41.091997400,8.79899755859375,0.2102859473017979,-0.0124207213521003,0.143313527114235,0.000102415215224,-0.952929876359568,0.2585165965601092,-2.5862647100932565,right,-0.0018998384475708,-0.2405528468247725,1.988094117511064,-9.31447380105555,0.0674925568073536,0.0079640168696641,-0.001185730099678,2.3363320933811367,-5.73843717575e-05
2025-04-30 01:22:41.131997400,8.83899755859375,0.2103307337624934,0.0030454099178314,0.1429537739762666,-0.0024368136655539,-0.9530249771659504,0.2583224577587531,-2.5867679323651176,right,0.0017926096916198,-0.2398160205719854,1.9888700703196227,-9.316065454161167,0.0676540446039891,0.005659163929522,0.0005267560482025,2.3293137390516696,0.0023085623979568
2025-04-30 01:22:41.171997200,8.8789970703125,0.2101805137834624,-0.0026616635732352,0.1428749399786927,0.0053053703159093,-0.9530669077662112,0.2582214895324484,-2.5870173812283257,right,0.0067885518074035,-0.2397082216503163,1.98752303962484,-9.316609644040463,0.0676155064151902,0.0162024535238742,-0.0028911232948303,2.3282867340914906,-0.0030543208122253
2025-04-30 01:22:41.211997200,8.9189970703125,0.2101089429193548,0.0069744954816997,0.1424157845155693,0.0180702712386846,-0.9531163646190582,0.2582657195476481,-2.5870671992422234,right,0.0070258378982543,-0.2387608425626863,1.9873153882235288,-9.318905061501264,0.0677186776916716,0.0200413987040519,0.0039625763893127,2.319260839331895,0.0005552619695663
2025-04-30 01:22:41.251997200,8.9589970703125,0.2107635443034635,0.0123065495863556,0.1420803729846173,0.029367595911026,-0.9531168717956088,0.2583354563877666,-2.586947888606914,right,0.0085396766662597,-0.237864688832901,1.9938491739064452,-9.319631037688255,0.0681486477075505,0.0275885872542858,0.0022546648979187,2.3107208283931016,0.003606766462326
2025-04-30 01:22:41.291997400,8.99899755859375,0.2114179077874529,0.0176386050879955,0.1417449209593588,0.0406649224460125,-0.953117134428333,0.2584051288293742,-2.586829254376404,right,0.0100522637367248,-0.2369684743052496,2.000380913762748,-9.320345323437452,0.0685785984234141,0.0351357758045196,0.0005469769239425,2.3021786254972216,0.006658524274826
2025-04-30 01:22:41.331997400,9.03899755859375,0.2141905309819169,-0.0635367333889007,0.1416809540243408,0.0606519803404808,-0.953213266621448,0.2576761401039137,-2.5880588124505923,right,-0.0304287075996398,-0.2361673246745462,2.026606365126371,-9.3165622977674,0.0701001330437241,0.0641641989350318,-0.0138640254735946,2.29454082409516,0.0199051797389984
2025-04-30 01:22:41.371997400,9.07899755859375,0.2115685503585596,-0.0779171884059906,0.1394950477778027,-0.0608329400420188,-0.9539732615966224,0.2561764240392762,-2.592094601168854,right,-0.0012847781181335,-0.2325593084532468,2.0038971051901577,-9.32987770641446,0.0696402971638241,0.109164759516716,0.0052565187215805,2.2601254904046653,0.0020467191934585
2025-04-30 01:22:41.411997400,9.11899755859375,0.2107152518274529,-0.0813367664813995,0.1388707589746585,-0.0702458918094635,-0.9544245681851,0.2548520823673889,-2.595114666842333,right,-0.0171349644660949,-0.2316936094000418,1.9963436210706829,-9.333493558824062,0.0695641205986338,-0.0741387009620666,0.000831663608551,2.25186356575489,0.0075142979621887
2025-04-30 01:22:41.451997200,9.1589970703125,0.2099531674002899,-0.0717127472162246,0.1387012897812304,0.0021683573722839,-0.9547537971558876,0.2537634148731637,-2.59750325560584,right,-0.0241296291351318,-0.231715520618776,1.9892199066706,-9.334964215898513,0.0693630998256144,0.0548345744609832,-0.0005959868431091,2.252072824591398,0.0237387865781784
2025-04-30 01:22:41.491997200,9.1989970703125,0.2088281945288068,-0.0713841319084167,0.1387351606999396,-0.0458285361528396,-0.9552572149949988,0.2519412971267351,-2.6013928236737307,right,-0.00313401222229,-0.2323705219089833,1.9784107817560432,-9.33575098236203,0.0690052573973418,-0.0027714669704437,0.0021359324455261,2.2583239939406514,-0.02960966527462
2025-04-30 01:22:41.531997400,9.23899755859375,0.2087068455803442,-0.0253775529563426,0.1387665129002189,-0.0247555170208215,-0.955316011688154,0.2517130602879101,-2.6018702287664093,right,-0.0039625167846679,-0.2325035366535028,1.9772155806221068,-9.33569720634818,0.0689621095330019,-0.0177906900644302,0.0029961615800857,2.2595932832241057,-0.02180016040802
2025-04-30 01:22:41.571997400,9.27899755859375,0.2085711074496282,-0.009124657139182,0.1389332735795321,-0.0178836733102798,-0.9552555634881252,0.2518894769523144,-2.601471735334771,right,-0.0002126693725585,-0.2328621436694137,1.9757805793829264,-9.33517230569124,0.0688202747520889,-0.0210563540458679,0.0056354403495788,2.2630152204968037,-0.0098702311515808
2025-04-30 01:22:41.611997400,9.31899755859375,0.208119301215799,-0.0130595825612545,0.1390348600847432,-0.0351828932762146,-0.955243801392566,0.2519511885723661,-2.601363744400247,right,-0.0007975697517395,-0.2331884260132427,1.971409963083267,-9.335340647995473,0.0685520755449543,-0.0104998275637626,0.0046771019697189,2.2661285302117467,-0.0108672082424163
2025-04-30 01:22:41.651997400,9.35899755859375,0.2065292910180487,-0.0118888998404145,0.1388800766425188,-0.0544121004641056,-0.955301301751412,0.2520266071523228,-2.601423487124068,right,0.0002403855323791,-0.2332887266207608,1.9565175143778324,-9.338241045612095,0.0677829791617619,-0.0084886895492672,0.0046722292900085,2.267085538675636,-0.004266008734703
2025-04-30 01:22:41.691997200,9.3989970703125,0.2044342559334739,-0.006059433799237,0.1386885222270076,-0.0493413582444191,-0.9553876944162252,0.2520740699164898,-2.6016059324046035,right,-0.0005627274513244,-0.233454379484971,1.936873048839718,-9.341951590567827,0.0667721299666232,-0.0051969299092888,0.0019987076520919,2.268665939734876,-0.0014977604150772
2025-04-30 01:22:41.731997200,9.4389970703125,0.2030805149781447,0.0258622430264949,0.1384327359719773,0.0178005993366241,-0.9553797498537672,0.2524163767362145,-2.601114417615897,right,0.0105950832366943,-0.2332407480238254,1.92432234095484,-9.34503961971104,0.0661207831740476,-0.0117926355451345,0.000255212187767,2.2666277119055387,0.0022923201322555
2025-04-30 01:22:41.771997400,9.47899755859375,0.2032990369995483,0.0283276829868555,0.1386213974144063,0.0356565192341804,-0.9552425562806648,0.2528314271771231,-2.6001771262110385,right,0.006150484085083,-0.2335148798146228,1.9262389882311224,-9.344010276663305,0.0661224908402889,0.0130536444485187,-0.0033762007951736,2.2692431551009413,0.0010677874088287
2025-04-30 01:22:41.811997400,9.51899755859375,0.2033274781574724,-0.0165205392986536,0.1383258683944944,0.0175234265625476,-0.9552738521200956,0.2528482982530405,-2.600221888218312,right,0.0033757090568542,-0.2328875782399534,1.9267917998082933,-9.345347662746908,0.0662256053456661,-0.0007669636979699,-0.0057190507650375,2.263257943211496,0.0065128058195114
2025-04-30 01:22:41.851997400,9.55899755859375,0.2014889024448455,-0.029022391885519,0.1381814818659831,-0.0055262502282857,-0.9554610199193132,0.2524377785097297,-2.6013124245902355,right,0.0107322931289672,-0.2331483348329341,1.9094881983079013,-9.348295991158484,0.0653868508689,-0.0254714116454124,-0.0030024349689483,2.2657459606349466,0.0130700469017028
2025-04-30 01:22:41.891997400,9.59899755859375,0.2007304853540804,0.0055903755128383,0.1386973550852534,0.0490560159087181,-0.9555228948770718,0.2520477412607965,-2.6020604777369964,right,0.0218129754066467,-0.2344880979833707,1.9017907756730916,-9.34675811406672,0.0648922171410113,0.0061337761580944,0.0061230361461639,2.2785271162748337,-0.0079154223203659
2025-04-30 01:22:41.931997200,9.6389970703125,0.2008971246215456,0.01735620200634,0.138945641719167,0.0099675543606281,-0.9554768778791431,0.2520847855732926,-2.601896726063893,right,0.0068062543869018,-0.2349557999050529,1.9031354682803152,-9.34539617806375,0.0648962129077299,-0.004468678496778,0.0027945339679718,2.2829878950759768,-0.0084024667739868
2025-04-30 01:22:41.971997200,9.6789970703125,0.2017272876609852,0.0474998876452446,0.1392197428600742,0.0321413502097129,-0.9552663930195644,0.2526618002838391,-2.6005326955247847,right,0.0037124752998352,-0.2352191838222402,1.910772392899543,-9.343223510199785,0.0651616980346055,-0.0110008977353572,0.000217318534851,2.2854997317664325,-0.0004881620407104
2025-04-30 01:22:42.011997200,9.7189970703125,0.2037313276783879,0.0427151806652545,0.1393328316142738,0.0331470295786857,-0.9549730702315666,0.2534782414550907,-2.598588596890106,right,-0.0036064386367797,-0.2347886041908925,1.929691759033501,-9.340338310152292,0.066042767485796,0.0111013129353523,-0.0029763132333755,2.2813933193609115,0.0046367794275283
2025-04-30 01:22:42.051997400,9.75899755859375,0.2050087098151779,0.0179016273468732,0.1391529658249389,0.010891605168581,-0.954784338974262,0.2541239197523193,-2.5971607436943103,right,-0.0027925372123718,-0.2339676298245409,1.942001936160773,-9.339696505117416,0.0666668415296146,0.0046361428685486,-0.0064613968133926,2.2735623334743083,0.0024655610322952
2025-04-30 01:22:42.091997400,9.79899755859375,0.2049671776069591,0.0064948359504342,0.1393072962280242,0.0296751987189054,-0.9548772621243252,0.253693767959069,-2.5980141388090323,right,-1.54972076416e-05,-0.2343641751818148,1.941430419883132,-9.338893372040989,0.0666515180302736,0.0277045145630836,-0.003412440419197,2.2773450668834148,-4.01735305786e-05
2025-04-30 01:22:42.131997400,9.83899755859375,0.2049253303695542,-0.0049119563773274,0.139461612820255,0.0484587922692298,-0.9549700222451704,0.253263573233478,-2.5988676793280496,right,0.0027614831924438,-0.2347607250351978,1.9408556887350976,-9.338089654442667,0.0666361886339523,0.0507728904485702,-0.0003631561994552,2.2811273619011043,-0.00254587829113
2025-04-30 01:22:42.171997200,9.8789970703125,0.205982954029406,0.0062449900433421,0.1384961601505962,0.0445602796971797,-0.9551145446133634,0.2530192962902619,-2.599532479366518,right,-0.0128930807113647,-0.2324900572785871,1.9517850790284568,-9.341078314864635,0.0675009673511765,0.0916636437177658,0.0030038207769393,2.2594646884083747,0.0105763673782348
2025-04-30 01:22:42.211997200,9.9189970703125,0.2066022403223138,0.0098742255941033,0.1368884594029048,0.0389773249626159,-0.9553164625457689,0.2529110789361831,-2.600144411564713,right,-0.0034314393997192,-0.2289800912896278,1.9591843954995276,-9.347571768537165,0.068322913033689,0.1296795904636383,0.0043534934520721,2.2259559481687843,0.0028032213449478
2025-04-30 01:22:42.251997200,9.9589970703125,0.2070539075434901,0.0093733705580234,0.1346472623759711,0.0032034814357757,-0.955586969437598,0.2528409724276269,-2.600873194473216,right,-0.0047202110290527,-0.224190372300806,1.965575411710888,-9.35701296609938,0.0692476177269282,0.1227982267737388,0.0010730028152465,2.1801853999882934,0.001392975449562
2025-04-30 01:22:42.291997400,9.99899755859375,0.2079931977964275,0.0913005769252777,0.132975953827431,0.0338444784283638,-0.9556037551821132,0.2534069696823645,-2.600072699912784,right,0.0042826533317565,-0.2203606151040568,1.9760731325887144,-9.3632632586658,0.0701699512321501,0.0992107018828392,0.0004397183656692,2.1435523902483284,-0.016463279724121
2025-04-30 01:22:42.331997400,10.03899755859375,0.2119109061440613,0.1313602030277252,0.1316988751637658,0.0891672149300575,-0.9550763674907644,0.2554493671901217,-2.59580446719454,right,0.0076192021369934,-0.2162993272356142,2.0145548389352856,-9.363883436390758,0.0723202157541853,0.0656555593013763,-0.0021161586046218,2.104670286407321,-0.011068046092987
2025-04-30 01:22:42.371997400,10.07899755859375,0.216071676483468,0.0938096418976783,0.1309762716252748,0.0556914433836936,-0.9544661752297467,0.2574867821630304,-2.591374836243036,right,0.0031388998031616,-0.2133081748195347,2.054838772398233,-9.36152781317532,0.0744321538184985,0.0351602882146835,0.0001996904611587,2.0760111781559885,-0.0046225190162658
2025-04-30 01:22:42.411997400,10.11899755859375,0.2176399716683304,-0.0105848610401153,0.1308207038095808,-0.0225301012396812,-0.9542041402914422,0.258316649188872,-2.58954526123163,right,-0.0052964091300964,-0.2124090257465109,2.069920167804509,-9.3601121011585,0.0751866366541407,-0.0111564509570598,-0.002810925245285,2.0673925490230323,-0.0002287328243255
2025-04-30 01:22:42.451997200,10.1589970703125,0.2157592688247425,-0.055680077522993,0.1308304473160843,-0.0466611720621585,-0.9544052993119476,0.2578304914520595,-2.590735153885895,right,-0.0072255730628967,-0.2130353256433884,2.052035259284824,-9.362721991395947,0.074279358759337,-0.034232310950756,0.0026922225952148,2.0733960272215306,0.0158217400312423
2025-04-30 01:22:42.491997200,10.1989970703125,0.2159012586492797,0.0216542743146419,0.1312883620206832,0.0644856095314025,-0.9544699892899432,0.2573625703922889,-2.5915590926920493,right,0.0010595917701721,-0.2140271437094176,2.052923148035258,-9.360417221584916,0.0742624171547035,-0.0063591767102479,0.0073103010654449,2.0829015221916136,-0.0015373080968856
2025-04-30 01:22:42.531997400,10.23899755859375,0.219715483702724,0.066144123673439,0.1317250161686859,0.1192386150360107,-0.9541159115168076,0.2579430013886168,-2.589851955235549,right,0.004180908203125,-0.2137764030706145,2.0887245292566714,-9.353028280377387,0.0760052103746055,0.009223454631865,0.0049438029527664,2.0804986988335847,-0.0062814652919769
2025-04-30 01:22:42.571997400,10.27899755859375,0.2238609171782699,0.0580817610025405,0.1322563530429157,0.0773279666900634,-0.9536612228751732,0.2587992344075244,-2.5875112157008653,right,0.0007491707801818,-0.2135774886513096,2.127570685001462,-9.344692413708566,0.0778558289422686,0.0023830216377973,0.0016628950834274,2.078592280690372,-0.0111677646636962
2025-04-30 01:22:42.611997400,10.31899755859375,0.2252426691365946,-0.0102839544415473,0.1326344370927965,-0.0195229724049568,-0.9534511128224926,0.2592172670591937,-2.5863957222397014,right,-0.0049889683723449,-0.2139060464060324,2.140328167504817,-9.341077730342745,0.0783944097056432,-0.0121864359825849,-9.66489315032e-05,2.0817411001101136,-0.0038241893053054
2025-04-30 01:22:42.651997400,10.35899755859375,0.2212915509044078,-0.1031998619437217,0.1326859032862871,-0.1072747409343719,-0.9538465550103756,0.2583099548085268,-2.58865276220192,right,-0.0023543834686279,-0.2152787125937881,2.1027745357885954,-9.34666459056437,0.0764667933331223,-0.0448847264051437,-0.0031842738389968,2.094893573280424,0.0140176117420196
2025-04-30 01:22:42.691997200,10.3989970703125,0.2159508742863418,-0.0914974063634872,0.1331350977741345,-0.0578887425363063,-0.95453078101896,0.2563093387432963,-2.593203821514892,right,0.0092754364013671,-0.2180373948200412,2.05158123190701,-9.352081354916097,0.0738349903157008,-0.0310501027852296,0.00441375374794,2.121314547216147,-0.0025599151849746
2025-04-30 01:22:42.731997200,10.4389970703125,0.214477276815999,0.0150873586535453,0.133793942186815,0.0290756486356258,-0.9547420142117792,0.2554218124053694,-2.59500253836618,right,0.0133600831031799,-0.2199637772308203,2.0369241993926464,-9.35108416057229,0.0729834349791536,-0.0088078957051038,0.0076463371515274,2.139754605400562,-0.0148578286170959
2025-04-30 01:22:42.771997400,10.47899755859375,0.2166271269402126,0.0577714405953884,0.1340564226886082,0.0520657673478126,-0.954473206348788,0.2560168970052047,-2.5934743126792434,right,-0.0036215186119079,-0.2198192517838813,2.057089473934472,-9.346985493081808,0.0739273458887022,-0.0007853657007217,0.0036350190639495,2.1383714804790914,0.0056681483983993
2025-04-30 01:22:42.811997400,10.51899755859375,0.2198855950836677,0.0733659118413925,0.1340883560172521,0.0665081739425659,-0.9540624027210935,0.2570839953453296,-2.590922309999163,right,-0.0032026767730712,-0.218803524221136,2.088007905419916,-9.342347896409034,0.0754529442613648,0.010855846107006,0.0038432627916336,2.1286491278879343,0.0038020014762878
2025-04-30 01:22:42.851997400,10.55899755859375,0.2238059726192744,0.0615726262331008,0.1343300523314099,0.0740434601902961,-0.9535877389542824,0.2581835699110485,-2.5881754078662893,right,-0.0029477477073669,-0.2180261602329576,2.1249838833786545,-9.335700713479518,0.0772474556468885,-2.05961987376e-05,0.0011726468801498,2.121206995188445,0.0031124949455261
2025-04-30 01:22:42.891997400,10.59899755859375,0.2268781261774045,0.0418704003095626,0.1346655680719182,0.0587010569870471,-0.95319635534758,0.2590418732038753,-2.58598617568432,right,0.0029045939445495,-0.2177155383369676,2.153802712236345,-9.329770154386756,0.0786085307070324,-0.0121758906170725,-0.0017901360988616,2.118232801683247,0.0025940090417861
2025-04-30 01:22:42.931997200,10.6389970703125,0.2288791286849942,0.0032047480344772,0.135095921009271,0.0371090434491634,-0.9529813344506298,0.2593499582877198,-2.5850158360604025,right,0.0050823092460632,-0.2179959657205925,2.1723323484003543,-9.32486250860095,0.079456978150242,-0.0084384316578507,-0.0042527318000793,2.1209178029835223,0.003519207239151
2025-04-30 01:22:42.971997200,10.6789970703125,0.2295429659752914,-0.0168283730745315,0.1352723230782132,0.0082799866795539,-0.9529856165815808,0.2591483342514165,-2.5853133100526144,right,-0.0013445615768432,-0.218211986589967,2.178417805793881,-9.322972164809704,0.0797628105623958,-0.0050906953401863,0.0009327679872512,2.122986133690178,0.0022956579923629
2025-04-30 01:22:43.011997200,10.7189970703125,0.2285377965929346,-0.0128625407814979,0.1353234169641288,-0.0148691982030868,-0.9530784124299312,0.2589349781911328,-2.585841463739028,right,-0.0036720037460327,-0.2186395595428407,2.1688396839790043,-9.324272141492369,0.0792590555502429,-0.0162239149212837,0.0013980865478515,2.1270795404836536,0.0020224899053573
2025-04-30 01:22:43.051997400,10.75899755859375,0.2275322773851947,-0.0088967075571417,0.1353744593889744,-0.0380183830857276,-0.9531708307294566,0.258721566290387,-2.5863699371987967,right,-0.0060003399848937,-0.2190665718323327,2.159257762771845,-9.325562765824792,0.078755270463587,-0.0273571349680423,0.001863807439804,2.1311672481887043,0.0017498880624771
2025-04-30 01:22:43.091997400,10.79899755859375,0.2262599088812954,-0.0061227278783917,0.135209262144789,-0.0399207137525081,-0.9532423989061236,0.2587250280839306,-2.586541314181268,right,-0.007023811340332,-0.2190794985267469,2.147384369626641,-9.32827553191483,0.0781586292396367,0.001602591946721,0.0002321153879165,2.1312910206988454,0.0055804103612899
2025-04-30 01:22:43.131997400,10.83899755859375,0.22466037012085,-0.020237885415554,0.1348537570320938,-0.044462863355875,-0.9533903895884592,0.2585711855587601,-2.5871288373492005,right,-0.0039080381393432,-0.2188137215674069,2.132586759597808,-9.3322502807647,0.0774733814958769,-0.0024346429854631,0.0034698843955993,2.128746743043512,0.0037726461887359
2025-04-30 01:22:43.171997200,10.8789970703125,0.222552959533671,-0.0476943403482437,0.1348427280427738,-0.0513075366616249,-0.9536160023910112,0.2580449636325259,-2.588436580173089,right,-0.0038589239120483,-0.2194716665091043,2.112605609451234,-9.335355845564605,0.0764641414406753,-0.0161869190633296,0.0050194561481475,2.13504467414394,0.0021518021821975
2025-04-30 01:22:43.211997200,10.9189970703125,0.2208783531592867,0.0207793936133384,0.1348653809871846,-0.0214264094829559,-0.9537801421594332,0.2576667769569888,-2.5893840669425408,right,-0.0052781105041503,-0.2200515293005528,2.0966979923538864,-9.33767055224776,0.0756479645086342,-0.0034443726763129,0.0168293565511703,2.1405944172255693,-0.025949016213417
2025-04-30 01:22:43.251997200,10.9589970703125,0.220285954882574,0.0768181830644607,0.1352511197970375,-0.0217880830168724,-0.9534624338753408,0.2588004059134093,-2.5869792719557627,right,0.0044658184051513,-0.2208363248562801,2.090798266790807,-9.337268985709548,0.0750926368030881,-0.0500789955258369,0.0045243948698043,2.148104500594735,0.0065115988254547
2025-04-30 01:22:43.291997400,10.99899755859375,0.2200327898041544,0.0501482114195823,0.1361827039903457,-0.0483186766505241,-0.9529550639336288,0.2603510456174935,-2.5835117010287854,right,0.0007770657539367,-0.2226001794533536,2.087604146924615,-9.334086264020204,0.0744871288748126,-0.0823314189910888,-0.0038664489984512,2.164978478506207,0.0187402963638305
2025-04-30 01:22:43.331997400,11.03899755859375,0.2180526991454903,0.0026692971587181,0.1372649252775656,-0.0732677951455116,-0.9526976322184276,0.261133311045707,-2.581771495353581,right,0.0015063881874084,-0.2252979943792731,2.067846576400846,-9.332464800298212,0.0730414343886,-0.0542093217372894,-0.0048199295997619,2.19077430628091,0.010147288441658
2025-04-30 01:22:43.371997400,11.07899755859375,0.2156773594589268,0.0194809436798095,0.1379746513115372,-0.0622182860970497,-0.952606487370821,0.2615014320172414,-2.5810453784653165,right,-5.55515289306e-05,-0.2273993559447959,2.0446832890868185,-9.332833049088716,0.0715607938612536,-0.048489786684513,-9.50247049331e-05,2.2108559941925106,-0.0087378621101379
2025-04-30 01:22:43.411997400,11.11899755859375,0.2140037248730635,0.0454055592417717,0.1390293849069623,-0.040238969027996,-0.9522884026312542,0.2624536097724376,-2.57893316855979,right,0.0015960931777954,-0.2299352891667104,2.0278635255806146,-9.33073344646096,0.0702555119770508,-0.0671042650938034,-0.0028727352619171,2.235077704518288,0.001883253455162
2025-04-30 01:22:43.451997200,11.1589970703125,0.213430334089152,0.0319377481937408,0.139833903900212,-0.0249258298426866,-0.9519614484078736,0.2633875001640501,-2.576816054117633,right,-0.003339409828186,-0.2316403081855042,2.0217028109937907,-9.328156289449334,0.0695907024566279,-0.0310226157307624,-0.0126043111085891,2.2513548855803904,0.0060135275125503
2025-04-30 01:22:43.491997200,11.1989970703125,0.2126800455546413,-0.0179836153984069,0.1400814720588873,-0.0228938497602939,-0.951912357549192,0.2635606752082085,-2.576463394013038,right,-0.0085534453392028,-0.2323475171566501,2.0143669151477512,-9.328111865785717,0.069107382530616,-0.0042398683726787,-2.8982758522e-05,2.2581043598406016,-0.0017778277397155
2025-04-30 01:22:43.531997400,11.23899755859375,0.2121794981840745,0.0028077624738216,0.1400202603173079,0.0154464915394783,-0.9520745976506544,0.2630516727979529,-2.5775933583240955,right,0.0089781284332275,-0.232439943472994,2.009653476759792,-9.328914998862146,0.0689349968614404,0.0277820155024528,-0.0016185492277145,2.2589864033721385,-0.0176401138305664
2025-04-30 01:22:43.571997400,11.27899755859375,0.2117805970172536,-0.0396786220371723,0.1404519754528916,-0.0319782868027687,-0.9521650244075464,0.2625677785699449,-2.57851619841556,right,0.0004969835281372,-0.2335314401192883,2.005412624319643,-9.327299964880943,0.0686534693413997,-0.0419631600379943,-0.0031543225049972,2.269401122141629,-0.0012944787740707
2025-04-30 01:22:43.611997400,11.31899755859375,0.2120002195673984,-0.0172708202153444,0.1408715487910777,0.0107993520796298,-0.9521923594674948,0.2622387282372738,-2.5790538175614426,right,0.0078188776969909,-0.2343972028514253,2.007046801392734,-9.32493498931527,0.0686719896789121,-0.0524300001561641,-0.0088831484317779,2.277660124181956,0.0016817152500152
2025-04-30 01:22:43.651997400,11.35899755859375,0.2122194539905407,0.0051369816064834,0.1412910954458119,0.0535769909620285,-0.9522195314982256,0.2619096349722621,-2.5795914748940394,right,0.0151401162147521,-0.2352631304987736,2.008674987116456,-9.322562999486925,0.0686904966133895,-0.0628968402743339,-0.0146113783121109,2.285918833961338,0.00465789437294
2025-04-30 01:22:43.691997200,11.3989970703125,0.2146322085461567,0.0020879118237644,0.1425311726495268,0.0790160968899726,-0.9520207340447012,0.2617350744822586,-2.579325702224982,right,-0.0085669755935668,-0.2371993813641255,2.030215641664713,-9.313347427374124,0.0695434357592459,-0.0351245775818824,-0.0103073865175247,2.3043796426728367,-0.0036477297544479
2025-04-30 01:22:43.731997200,11.4389970703125,0.2171425469935709,-0.0154514145106077,0.1427941021426548,0.0602892637252807,-0.9519646354263548,0.2614668181852254,-2.57953064888042,right,-0.0194517374038696,-0.2370761281549227,2.0536500010050838,-9.308498818299174,0.0707705940980643,0.0098442062735557,-0.0006889700889587,2.303204753674567,0.0032001137733459
2025-04-30 01:22:43.771997400,11.47899755859375,0.2177920323214301,-0.0571259558200836,0.142836960625847,0.0094073042273521,-0.952156548980112,0.2606281608907667,-2.581189680779062,right,-0.0090914964675903,-0.2371120136435318,2.059677444601059,-9.307082521760464,0.0711931255483814,0.0235036090016365,-0.0045861005783081,2.303546845110506,0.0008429139852523
2025-04-30 01:22:43.811997400,11.51899755859375,0.2176063558517595,-0.082107737660408,0.141790189188171,0.0196878612041473,-0.9526746905442228,0.2591872252050811,-2.584516344163436,right,0.0004846453666687,-0.2351997806002384,2.0588965233564376,-9.31174876000583,0.0716134424090425,0.0847119837999343,-0.0067201405763626,2.2853147305883468,0.0031462609767913
2025-04-30 01:22:43.851997400,11.55899755859375,0.2171075781018435,-0.1122583746910095,0.1406371738919264,0.0051232930272817,-0.9533750753802088,0.2571305444826513,-2.5891831211906813,right,-0.0078521370887756,-0.2332526041025756,2.0552064366668463,-9.317102395993471,0.0719803422593167,0.0738366022706031,-0.008830189704895,2.2667408168911933,0.00776869058609
2025-04-30 01:22:43.891997400,11.59899755859375,0.2157781194011078,-0.1147965863347053,0.1391649994115889,-0.0014916821382939,-0.9542202512604367,0.2547640204158533,-2.5946692875763677,right,-0.005480945110321,-0.2309200251911924,2.0439444534182547,-9.324965968975423,0.0720566758519668,0.1021127849817276,0.0007703304290771,2.244479446852952,0.0032475292682647
2025-04-30 01:22:43.931997200,11.6389970703125,0.2147578708877268,-0.0855018496513366,0.1377020096302107,0.0077747362665832,-0.9550033771649016,0.2525573216202564,-2.5997792535720574,right,-0.0005357265472412,-0.2284954671760949,2.0355833061777053,-9.332335620960592,0.0722596661113902,0.0746994167566299,0.0030699223279953,2.221327119324356,-0.0089735686779022
2025-04-30 01:22:43.971997200,11.6789970703125,0.2151308904765236,-0.0112751275300979,0.1369895159254397,0.0387716777622699,-0.9553557125558592,0.2514545597153648,-2.6022313575572853,right,0.0031276941299438,-0.2270817715610702,2.039732680942118,-9.33463454555273,0.072800941392131,0.0364480130374431,0.0062623471021652,2.207821594932675,-0.0186181366443634
2025-04-30 01:22:44.011997200,11.7189970703125,0.2169303565503704,0.0272092744708061,0.1367633931001205,0.0505652353167533,-0.9552972578590784,0.2515150019317629,-2.601982552184684,right,0.0061382055282592,-0.2261089666109341,2.056988059386611,-9.333041723403332,0.0737772094794985,0.0113830994814634,0.004229187965393,2.198525504929572,-0.0085257142782211
2025-04-30 01:22:44.051997400,11.75899755859375,0.2188398000077715,0.0354480259120464,0.1368866049563474,0.0374151729047298,-0.955062069723317,0.2520858599159649,-2.6005641207919217,right,0.0100237727165222,-0.2257509592095458,2.0749759898893534,-9.329864846932889,0.0746413915099632,-0.0158663019537925,0.0031188577413558,2.195104006048292,-0.0003947615623474
2025-04-30 01:22:44.091997400,11.79899755859375,0.2204301486685638,0.0371763594448566,0.1374537053836625,0.0279337577521801,-0.9547505656144852,0.2527932608160772,-2.598764996923462,right,0.0070521831512451,-0.2263815218245852,2.089507934719324,-9.325200362253188,0.0751902120984055,-0.0434132814407348,0.0039070695638656,2.201130280600488,0.0037890821695327
2025-04-30 01:22:44.131997400,11.83899755859375,0.2216416115071399,0.0667297840118408,0.1383347447165702,0.0001808516681194,-0.9543599431367245,0.2537165300306983,-2.596462978814218,right,-0.0016525983810424,-0.2277339576730916,2.100147256024927,-9.31974969563186,0.0754221795569633,-0.043375514447689,0.0026156157255172,2.2140527444072067,-0.0015301704406738
2025-04-30 01:22:44.171997200,11.8789970703125,0.222068725650953,0.0860988795757293,0.1391082624225298,-0.0036227032542228,-0.9538136300648392,0.2554104164337625,-2.5926760474300385,right,0.0048101544380187,-0.228951274197893,2.1035325145490464,-9.316216260808703,0.0751935350940302,-0.0544014684855937,0.0062967836856842,2.225680638358742,0.0088852196931838
2025-04-30 01:22:44.211997200,11.9189970703125,0.222214362720781,0.0282350927591323,0.1398240065466505,-0.0141675751656293,-0.9534940051292252,0.2562871809208914,-2.590627992802072,right,0.002138614654541,-0.2302615310147011,2.1042447544716296,-9.31305691999495,0.0749365305686579,-0.0477373488247394,0.0081850737333297,2.238192621668428,0.0127655714750289
2025-04-30 01:22:44.251997200,11.9589970703125,0.2223628125440201,-0.029628686606884,0.1405395533596513,-0.0247124452143907,-0.9531729944452612,0.2571635804831242,-2.588579093566057,right,-0.0005350112915039,-0.2315715012973221,2.1049787678346035,-9.309877120915054,0.0746794206932986,-0.0410732291638851,0.0100711584091186,2.250698175237328,0.0166465789079666
2025-04-30 01:22:44.291997400,11.99899755859375,0.2211980983047901,-0.0494246408343315,0.1410836445519052,-0.0316856354475021,-0.953294889929426,0.256614142368104,-2.58968035523984,right,-0.0004612207412719,-0.2331242050110517,2.0933647562779485,-9.308901553881167,0.0739832478537268,-0.0112024657428264,0.0076990872621536,2.2655158051408826,-0.0052436590194702
2025-04-30 01:22:44.331997400,12.03899755859375,0.2201117352446063,-0.0400137417018413,0.1412601469107029,-0.0057639833539724,-0.9534894475032528,0.255944022454022,-2.5911350031750016,right,0.0068777203559875,-0.233904679547817,2.0828639666602013,-9.30944165210724,0.0734584212992459,-0.0030119325965642,0.0075898021459579,2.2729618833631275,-0.0042066425085067
2025-04-30 01:22:44.371997400,12.07899755859375,0.2211788080505439,0.007428303360939,0.1412126065317058,0.0609680041670799,-0.9535950519804955,0.255395872961877,-2.5921707283358013,right,0.0046497583389282,-0.2335967227286925,2.0929501841276883,-9.307896176230908,0.0740834921479353,0.0250149928033351,0.0050593018531799,2.2700239302150904,-0.0144843310117721
2025-04-30 01:22:44.411997400,12.11899755859375,0.2245476539544153,0.0681290477514267,0.1411458974027839,0.0698152855038642,-0.9532943439358804,0.2560705525534157,-2.590428365675707,right,-0.0018337965011596,-0.2324075470678443,2.124894597660005,-9.303417569512128,0.0757333529894447,0.0139916967600584,0.0051569789648056,2.258677337422967,-0.0052138566970825
2025-04-30 01:22:44.451997200,12.1589970703125,0.2280376127493006,0.0451268181204795,0.1410512205444125,0.0460365340113639,-0.9528955164421962,0.2571037585004082,-2.587940663294749,right,-0.0082468390464782,-0.2310594106852222,2.1580365504138173,-9.29890330695808,0.0774108545389469,0.0233518108725547,0.001692458987236,2.245809964804351,0.0026090294122695
2025-04-30 01:22:44.491997200,12.1989970703125,0.2291091126282672,-0.0011600852012634,0.1404350119623643,-0.0026329606771469,-0.9528198874954172,0.2575120963905748,-2.587169179608419,right,-0.0088543891906738,-0.2294012435222278,2.168841875936091,-9.300199191987511,0.078101284401402,0.0238578356802463,0.0050681680440902,2.229978043291718,0.0062108635902404
2025-04-30 01:22:44.531997400,12.23899755859375,0.2282292486049065,-0.0529128573834896,0.1400283316297291,-0.0311069246381521,-0.9530559434050988,0.2569347986088203,-2.5885843840805816,right,-0.0070409774780273,-0.2288972486425153,2.16091210585013,-9.303197789281606,0.0778524248748868,0.0118423663079738,0.0042746067047119,2.225164651660621,0.0038695335388183
2025-04-30 01:22:44.571997400,12.27899755859375,0.226179070513156,-0.0356694050133228,0.1396846326253167,-0.0540252476930618,-0.9533825094858336,0.2561625889610396,-2.59050734517909,right,-0.0042720437049865,-0.2288840085002191,2.1418410562857986,-9.307637233033777,0.0770116217270578,0.0052248514257371,0.0059809684753417,2.2250382488019764,-0.0041000843048095
2025-04-30 01:22:44.611997400,12.31899755859375,0.2242330685214673,-0.0217379126697778,0.1396535601611116,-0.0333638563752174,-0.9535790480222328,0.2557245948709498,-2.591631174917916,right,0.0037097930908203,-0.2294354660268292,2.123451120853424,-9.310589653098583,0.0760849742366851,-0.0128010027110576,0.001752033829689,2.230304791028052,0.0038380026817321
2025-04-30 01:22:44.651997400,12.35899755859375,0.2239805064551364,0.0552861839532852,0.1395954449217605,-0.0010227039456367,-0.9534727476661146,0.2562025655736872,-2.590684630200194,right,0.0031665563583374,-0.2293049896530262,2.1211641789600253,-9.311409152787924,0.0759167740294969,0.0075477771461009,0.0014990121126174,2.229058736489713,0.0003565549850463
2025-04-30 01:22:44.691997200,12.3989970703125,0.224821714913261,0.0417386442422866,0.1394198431879029,-0.0068695358932018,-0.9532051306805704,0.2571835493950762,-2.58861417952703,right,-0.0103910565376281,-0.2285392073224286,2.129376126988232,-9.311282896059751,0.0762810524323202,0.0107085583731532,-0.0031210631132125,2.22174490634501,0.0089445859193801
2025-04-30 01:22:44.731997200,12.4389970703125,0.2241410705652423,0.0061597153544425,0.1389191488876804,-0.0309360176324844,-0.9531526131676408,0.2577235819096629,-2.5877172104404584,right,-0.0034331083297729,-0.2275938991932935,2.123503873953968,-9.31477366078496,0.0760275270355626,0.02002390101552,-0.0030570477247238,2.2127146276712417,0.0078723430633544
2025-04-30 01:22:44.771997400,12.47899755859375,0.2225729172504006,-0.0262513756752014,0.1385845982849863,-0.0290718041360378,-0.9533091716938372,0.2575206539713173,-2.58840364294189,right,0.0036451816558837,-0.2273686505307949,2.1090042239584026,-9.31857831376493,0.0753595020830912,0.0114106321707367,-0.0071596354246139,2.2105627103343606,0.0027877688407897
2025-04-30 01:22:44.811997400,12.51899755859375,0.2213301241223249,-0.011680650524795,0.1384309821797112,-0.0175464618951082,-0.9534871683455252,0.2570996125033604,-2.589453664880078,right,0.0005372762680053,-0.2274652207144325,2.097374722571671,-9.32098362134099,0.07482618442232,-0.0037653725594282,-0.0030563324689865,2.2114853781372306,-0.0083784908056259
2025-04-30 01:22:44.851997400,12.55899755859375,0.2208015439940868,0.0138955982401967,0.1387460542696083,-0.000327743589878,-0.9534501243260856,0.2571768940695008,-2.589255076699264,right,0.0027931332588195,-0.2282588249172072,2.0920624415077267,-9.320375718575717,0.0744488154301006,-0.0275183450430631,0.000883013010025,2.2190667731769382,-0.007427304983139
2025-04-30 01:22:44.891997400,12.59899755859375,0.220929990143498,0.0178670398890972,0.1391880721401843,0.0039493246003985,-0.9533046857440236,0.2575098842082827,-2.588418631561009,right,-0.0011965632438659,-0.2290921443822305,2.09285373801589,-9.318299496823547,0.0743346253663192,-0.0289880707859992,0.0003320127725601,2.227026061618328,-0.0008982717990875
2025-04-30 01:22:44.931997200,12.6389970703125,0.2210526330524285,0.0084688765928149,0.1396292330275215,-0.0105569353327155,-0.9531499908924594,0.2578783546681044,-2.5875090406054952,right,-0.0049525499343872,-0.2299197142848515,2.0935916969016195,-9.316241395249962,0.0742130007936947,-0.0376558303833007,-0.0003033429384231,2.234928943697363,0.0039062798023223
2025-04-30 01:22:44.971997200,12.6789970703125,0.2205565969747199,-0.008185782469809,0.1401088438475066,-0.0218828953802585,-0.9530895159583634,0.2579605361823666,-2.587247723404311,right,-0.0022412538528442,-0.2310482646524905,2.0884170707426963,-9.314811654707787,0.0737990444890608,-0.0245987176895141,0.0004009306430816,2.245703581820428,0.0087973922491073
2025-04-30 01:22:45.011997200,12.7189970703125,0.2196352610468974,-0.002503574360162,0.140322989195308,-0.0331790782511234,-0.953080880020928,0.2580313955499941,-2.58713513713928,right,-0.0023793578147888,-0.2317434144049054,2.0794934673137964,-9.315205622461438,0.0732539460022722,-0.0156442373991012,0.0083300173282623,2.252338928181678,0.0066170692443847
2025-04-30 01:22:45.051997400,12.75899755859375,0.2188328113358156,0.0283809583634138,0.1404610258682156,-0.021121609956026,-0.953015956658829,0.2583342034145458,-2.5865513801374527,right,-0.0014384984970092,-0.2322091364235128,2.071789907199144,-9.315846258452536,0.0727647945942077,-0.0090594124048948,0.0049695819616317,2.256783778761327,-0.0011036992073059
2025-04-30 01:22:45.091997400,12.79899755859375,0.2185284379966742,0.0301164165139198,0.1406272237194659,-0.0213266257196664,-0.9528002180615228,0.2591243103318771,-2.5848942380738964,right,-0.0026395916938781,-0.2325165770187819,2.0688038771256805,-9.315798912179469,0.0724598037303191,-0.0179586857557296,0.0057828873395919,2.259717786386609,0.005178615450859
2025-04-30 01:22:45.131997400,12.83899755859375,0.2178603650358519,-6.88917934894e-05,0.1406109349835461,-0.02528852596879,-0.9528118689118332,0.2591858243193151,-2.5848431134712184,right,-0.0002245306968688,-0.2326612721588642,2.062509014765173,-9.31685981940925,0.0721174299652534,-0.0057021416723728,0.0037769824266433,2.261098573220521,0.0038641244173049
2025-04-30 01:22:45.171997200,12.8789970703125,0.2171922489771891,-0.0302541982382535,0.1405946200333029,-0.0292504262179136,-0.9528234082233156,0.259247265350193,-2.5847921637820885,right,0.0021900534629821,-0.2328059928194398,2.056213275621831,-9.317916050463914,0.0717750419926153,0.006554402410984,0.0017711818218231,2.262479506184905,0.0025496184825897
2025-04-30 01:22:45.211997200,12.9189970703125,0.2160836997582121,-0.0424474291503429,0.1406065853966936,-0.0221059862524271,-0.9530229743875468,0.2586425325470048,-2.586163692236094,right,0.0028316378593444,-0.2332384206905903,2.0456727385155857,-9.31923297828138,0.0712820666448752,0.0068490314297378,0.0009229034185409,2.26660550007373,-0.0053563565015792
2025-04-30 01:22:45.251997200,12.9589970703125,0.2152597101819037,-0.0034801959991455,0.1406051630779817,-0.0073546953499317,-0.9531578690906288,0.2582477969289951,-2.587072701305917,right,0.0043447613716125,-0.2335287864985257,2.037852420153469,-9.32027225820124,0.0709122747069148,-0.0045538707636296,0.0010704100131988,2.269375841569901,-0.0115240216255187
2025-04-30 01:22:45.291997400,12.99899755859375,0.2150921806700284,0.0016871239058673,0.1408813665172147,-0.0072507276199758,-0.9531141091989016,0.2583078812729515,-2.5868845264767386,right,-0.0016232728958129,-0.2341441835463575,2.035992471500486,-9.31924759132862,0.0707323167063572,-0.0165016073733568,-0.000404879450798,2.27524663329944,-0.0024793148040771
2025-04-30 01:22:45.331997400,13.03899755859375,0.2148335360544233,0.00927060469985,0.1409686240306726,-0.0104006938636302,-0.9530470836830328,0.2585597527145939,-2.586363854330276,right,-0.0037378668785095,-0.2343604030095796,2.033477127678692,-9.319292599514126,0.0705418205670744,-0.0092231100425124,0.0001159608364105,2.277309118787199,0.003518208861351
2025-04-30 01:22:45.371997400,13.07899755859375,0.2148335360544233,-0.0079411249607801,0.1409686240306726,-0.0189001448452472,-0.9530470836830328,0.2585597527145939,-2.586363854330276,right,-0.0064192414283752,-0.2343604030095796,2.033477127678692,-9.319292599514126,0.0705418205670744,0.006937745027244,-0.0020709186792373,2.277309118787199,0.0059034973382949
2025-04-30 01:22:45.411997400,13.11899755859375,0.2134978224397372,-0.0114449746906757,0.1403060004743116,-0.0196591019630432,-0.9532170438756136,0.2584164898847949,-2.587000315829804,right,-0.0093719363212585,-0.2333720994389951,2.021503342898935,-9.324195569124818,0.0700896080402956,0.0352257564663887,-0.0029549896717071,2.267880926837027,0.0082255601882934
2025-04-30 01:22:45.451997200,13.1589970703125,0.2121630777418189,-0.0149488244205713,0.1396432835258683,-0.0204180590808391,-0.953386351951323,0.258273055325633,-2.587635271818137,right,-0.0123271942138671,-0.2323829780926385,2.009527512292564,-9.32907398881614,0.0696373486028942,0.0635137632489204,-0.003838837146759,2.25844279801473,0.0105486512184143
2025-04-30 01:22:45.491997200,13.1989970703125,0.2115548355063111,0.0196679625660181,0.1381142374520825,0.0014855861663818,-0.9535716911017916,0.2583679744225636,-2.587946903588892,right,-0.0068987607955932,-0.2293420272089185,2.0052856369391083,-9.33696620337069,0.0697973999844165,0.0957969427108764,-0.0019067972898483,2.229412518363446,0.0045101344585418
2025-04-30 01:22:45.531997400,13.23899755859375,0.211979364725678,0.021202078089118,0.1365397690155796,0.0176362227648496,-0.9536608034562288,0.2586930846636219,-2.58768230112613,right,0.0006219744682312,-0.2258815449602753,2.010860368331522,-9.343599942296745,0.0704689333524182,0.0876424759626388,-0.003212496638298,2.196352106413245,0.0003334879875183
2025-04-30 01:22:45.571997400,13.27899755859375,0.2124601366767818,0.0168160237371921,0.1351969371755097,0.0040190815925598,-0.9537264487841456,0.2589835112799392,-2.5874172056934968,right,0.0018337368965148,-0.2228950197141037,2.016726483885944,-9.349002678123115,0.0711007476738307,0.0617679134011268,-0.0046995729207992,2.167798504363,-0.005085289478302
2025-04-30 01:22:45.611997400,13.31899755859375,0.2123435447964963,-0.0059864707291126,0.1343531898177298,-0.0016050301492214,-0.9538119709774082,0.2590531468676371,-2.587527502873952,right,0.0051020979881286,-0.2211538815228828,2.016428816113621,-9.35291312956512,0.0712977518996657,0.0315044037997722,-0.0037858933210372,2.151142845377326,-0.0036170333623886
2025-04-30 01:22:45.651997400,13.35899755859375,0.2120694898221314,0.0032493723556399,0.1338328513848946,-0.0041556726209819,-0.9539157991693864,0.25893029945623,-2.587960116384044,right,0.0030753016471862,-0.2201630295709719,2.0143131391339004,-9.355544647112488,0.0713354569220771,0.0181284770369529,-0.0036026239395141,2.1416616080656645,-0.0129702389240264
2025-04-30 01:22:45.691997200,13.3989970703125,0.2120694898221314,0.0053865532390773,0.1338328513848946,0.009133169427514,-0.9539157991693864,0.25893029945623,-2.587960116384044,right,0.0040324926376342,-0.2201630295709719,2.0143131391339004,-9.355544647112488,0.0713354569220771,-0.0165022797882556,-0.0009718090295791,2.1416616080656645,-0.0059012621641159
2025-04-30 01:22:45.731997200,13.4389970703125,0.2127847356691987,0.0186171066015958,0.1342383654001144,0.0135379638522863,-0.9537783312700798,0.2591688069706257,-2.58727570311094,right,-0.0021838545799255,-0.2207718590675089,2.020728413003683,-9.352825451281666,0.0715450200712797,-0.022978451102972,-0.0020371228456497,2.147487537740171,-0.0068064182996749
2025-04-30 01:22:45.771997400,13.47899755859375,0.2133167547386594,0.0198092982172966,0.1345864983003205,-0.003072140738368,-0.9535864721933164,0.2596649973455218,-2.586091068383381,right,-0.0105528831481933,-0.2212716457186416,2.0254764843136077,-9.350698376125097,0.0716486367174529,-0.0215486772358417,0.0035703182220458,2.1522696574501694,0.0002307891845703
2025-04-30 01:22:45.811997400,13.51899755859375,0.2130200883988635,0.0099088782444596,0.1348294639374183,-0.0130825778469443,-0.9534862536609288,0.2599796922426507,-2.5853979736801493,right,-0.0067206025123596,-0.2218137783941061,2.022455382926762,-9.350157108855248,0.0713839525917554,-0.0146052185446023,-0.0016446709632873,2.157456120177358,-0.0022044777870178
2025-04-30 01:22:45.851997400,13.55899755859375,0.2131089666094293,0.0151705853641033,0.1349309804811324,0.0054258508607745,-0.9533796800056696,0.2603251398971607,-2.584642354370726,right,-0.0037792325019836,-0.2219468155615886,2.0232257827773688,-9.349697090128064,0.0713565530702979,-0.0080780442804098,-0.0028270334005355,2.1587287704616784,-0.0004026442766189
2025-04-30 01:22:45.891997400,13.59899755859375,0.213845180412296,-0.0006880164146423,0.1352057144186883,0.0225672982633113,-0.9532933869207064,0.2604224450583418,-2.584285275023241,right,-0.0029032230377197,-0.2222977145143643,2.0299476383782924,-9.34746421650946,0.0716337028456742,-0.0102400910109281,-0.0045198798179626,2.162085387413204,0.0037252157926559
2025-04-30 01:22:45.931997200,13.6389970703125,0.2149960613508436,-0.0010881597409024,0.1353450449741035,0.0345971137285232,-0.9532553798112784,0.2603365568685951,-2.584305042070268,right,0.000361680984497,-0.2222770310471404,2.0407136548034845,-9.345165291917324,0.0721865203088781,-0.0020804833620786,-0.0004094988107681,2.161887526753545,0.0050155073404312
