time,seconds_elapsed,roll,rotationRateZ,quaternionY,rotationRateY,quaternionZ,quaternionW,yaw,devicelocation,accelerationZ,pitch,gravityX,gravityZ,quaternionX,rotationRateX,accelerationX,gravityY,accelerationY
1746232187251915500,0.23091552734375,0.050656326693554216,-0.059496838599443436,0.020098641875497078,0.1300281137228012,6.4307721666205745e-18,0.9325751814626719,0.019570226853369854,right,-0.005076966248452663,-0.7372168242041496,0.36762174464538694,-7.250965984511375,-0.36041599019952125,-0.05561750754714012,-0.0004333723336458206,6.592323796603083,0.00495795626193285
1746232187291915500,0.27091552734375,0.05201243148645274,-0.03640327602624893,0.021197165389439488,0.12330084294080734,-0.0014742962133181868,0.9324421983926124,0.01695171144660033,right,-0.00426936149597168,-0.7378726178205475,0.37722964054401964,-7.246141925355792,-0.3606941435560749,-0.056021273136138916,0.0028173476457595825,6.597084142872691,0.004074394702911377
1746232187331915300,0.310915283203125,0.053367014912381,-0.01330970972776413,0.022295616446230595,0.11657357960939407,-0.0029485927502024873,0.9323059235483716,0.014332822157713695,right,-0.0034650564193725586,-0.738530973651632,0.3868130230559036,-7.241285717496275,-0.3609710376669547,-0.05642503872513771,0.006070569157600403,6.60185968671143,0.003189265727996826
1746232187371915300,0.350915283203125,0.05891440579733294,-0.01636623777449131,0.024845603908621835,0.07297776639461517,-0.003810170259184115,0.9324666284679175,0.014591945487964126,right,-0.012884438037872314,-0.7372784554896433,0.4274636709393933,-7.247277651387453,-0.3603808916150317,-0.017925474792718887,-0.0033712238073349,6.592771540370583,0.0035213828086853027
1746232187411915300,0.390915283203125,0.06079138418566991,-0.02109059877693653,0.025757047796540332,0.016835879534482956,-0.004233528471981783,0.9324842028254948,0.014401617626455315,right,-0.01056671142578125,-0.7370464113594063,0.44115879961904136,-7.247989014527201,-0.3602665615625504,0.005365090444684029,-0.008968263864517212,6.591086948284507,0.0035523176193237305
1746232187451915500,0.43091552734375,0.05914235741401658,-0.008851946331560612,0.025269353749230748,-0.017423000186681747,-0.0046243251862261685,0.9326985400589402,0.012891290568543278,right,0.009894132614135742,-0.735952953227523,0.42963180875871326,-7.255897011172771,-0.35974114079482494,-0.00841682218015194,0.003540612757205963,6.583142711281776,0.005808889865875244
1746232187491915500,0.47091552734375,0.05837825831623309,0.007001806981861591,0.02501004383902274,0.02110160142183304,-0.004729440838617579,0.932752136159029,0.012363231620820316,right,0.016085147857666016,-0.7357012069538507,0.42418413781207054,-7.257877371335029,-0.3596189033318142,-0.011985496617853642,0.008296750485897064,6.581312573245167,0.0031577348709106445
1746232187531915500,0.51091552734375,0.06003817215985285,-0.006410221569240093,0.02576537957192314,0.059492580592632294,-0.005040375680729383,0.932430408201834,0.012390691006924522,right,0.004044294357299805,-0.7373732241388927,0.4355701127665117,-7.246168228840827,-0.36039475756155975,-0.032846029847860336,0.005271837115287781,6.5934595226347446,0.005352139472961426
1746232187571915300,0.550915283203125,0.06443405659482455,-0.019166026264429092,0.0276856480506784,0.06328918784856796,-0.005637885475559479,0.9317288117631563,0.012932108990306534,right,-0.004736065864562988,-0.7409442711712919,0.46590007683951407,-7.220640988874435,-0.36205424794095203,-0.04204229265451431,0.0010501332581043243,6.619340398344397,0.0027701258659362793
1746232187611915300,0.590915283203125,0.0676361314981135,-0.02344539947807789,0.0292308077295812,0.07767719030380249,-0.006444967154585778,0.9312770179119697,0.012524992666209338,right,-0.004240274429321289,-0.7431808947568406,0.4880168873079121,-7.2043228912800545,-0.36308031390476575,-0.018355153501033783,0.004360336810350418,6.635507104769348,-0.00029098987579345703
1746232187651915300,0.630915283203125,0.0692539012887354,-0.012970704585313797,0.030158195986359593,0.06746651232242584,-0.007163940008320018,0.9313457798155371,0.011592104664535486,right,-0.0063187479972839355,-0.7426517818450952,0.4999140631875023,-7.207025720497965,-0.36281459996174303,0.027930699288845062,0.0033608824014663696,6.631686085176468,-0.004588723182678223
1746232187691915500,0.67091552734375,0.07106009407133983,-0.023176591843366623,0.031268823486201365,0.056616637855768204,-0.008083420918380768,0.9317643626256986,0.01022747173362995,right,-0.007505834102630615,-0.7401560988897576,0.5141039896467701,-7.222597383639216,-0.36162450853556893,0.06424860656261444,0.0030795037746429443,6.613635464701056,-0.00925976037979126
1746232187731915500,0.71091552734375,0.07212362297204664,-0.00656246580183506,0.03188234493328375,0.06331022828817368,-0.008522450029118393,0.9320026169099274,0.009643720007079987,right,-0.005735278129577637,-0.738729349094732,0.5224645888980478,-7.231450552180409,-0.36094619704433684,0.03820987045764923,0.005485948175191879,6.603297610560059,-0.007175147533416748
1746232187771915500,0.75091552734375,0.0751243146216811,0.026486104354262352,0.03315542946359645,0.053419407457113266,-0.008679065288697807,0.9322202412437801,0.010411932758318991,right,-0.009727954864501953,-0.7372687968140124,0.5448848027598112,-7.239459671112894,-0.36026517423135745,0.010813964530825615,0.005508951842784882,6.592701397743821,-0.006976783275604248
1746232187811915500,0.79091552734375,0.07841876856270916,0.04989898204803467,0.034276397366289124,0.0039159879088401794,-0.00812471331980236,0.9324720247491102,0.01280554639134574,right,-0.006596863269805908,-0.7356145045023035,0.5695854557089507,-7.248488196220993,-0.35952065999562316,0.0254340972751379,0.002284366637468338,6.580682458648085,-0.002231895923614502
1746232187851915300,0.830915283203125,0.07956189616864234,0.02849012240767479,0.03452208802414591,-0.00029029976576566696,-0.007514754896673215,0.9327267751001364,0.014490972766127147,right,-0.0018925070762634277,-0.7341212537846882,0.5786513902179896,-7.2576195971816775,-0.35884901326594537,0.026128822937607765,0.008826617151498795,6.569817950284481,0.006825864315032959
1746232187891915300,0.870915283203125,0.07992881608635494,-0.0076301805675029755,0.03469661694028577,0.01879945397377014,-0.007504492480672681,0.9330415000856075,0.014577451658587525,right,-0.0004221200942993164,-0.7323288343384903,0.5822536159610375,-7.269133509364724,-0.35801325650334853,0.04092392697930336,0.009889256209135056,6.556757393181323,0.010089278221130371
1746232187931915300,0.910915283203125,0.080212714091619,-0.043110378086566925,0.035174916920799965,0.02486392669379711,-0.008353343730676263,0.9334277140360882,0.012771804792867197,right,-0.003355860710144043,-0.7300968592118136,0.5854884331637993,-7.283537297770381,-0.3569393443740383,0.06080377846956253,0.001476675271987915,6.5404644300282,0.0018550753593444824
1746232187971915500,0.95091552734375,0.07975838733548384,-0.05245424807071686,0.035301145580894824,0.0009878426790237427,-0.009097864979441572,0.9336620827569184,0.010947588137744949,right,-0.00808805227279663,-0.7287811695263748,0.5828643682705238,-7.292374099698662,-0.35629516331474653,0.05727095901966095,-0.0018682107329368591,6.530844953289628,-0.0032647252082824707
1746232188011915500,0.99091552734375,0.07766131875331805,-0.055010609328746796,0.0348324067986014,-0.005392897874116898,-0.01002146820996267,0.9338550520860164,0.008130410600091238,right,-0.004022181034088135,-0.7278272381077338,0.5680535699665547,-7.299788175347447,-0.3558104817358714,0.005319636315107346,-0.0024529173970222473,6.523863423839211,-0.0005224347114562988
1746232188051915500,1.03091552734375,0.07465098491678815,-0.009577371180057526,0.03377997759959923,-0.03651773929595947,-0.010486386157078167,0.93356233710001,0.006059988498117488,right,-0.004097104072570801,-0.7297021734691269,0.5451629986466839,-7.289254506373405,-0.3566656378906793,-0.05394729971885681,0.003246564418077469,6.537579814502596,-0.01263362169265747
1746232188091915300,1.070915283203125,0.0733241562293428,-0.001254095695912838,0.03318450087128787,-0.04106159135699272,-0.01033144199292037,0.9334945329069417,0.005903930210502674,right,0.00032961368560791016,-0.7302024553125532,0.5352512609632686,-7.2867083290219306,-0.35690342839271744,-0.004504092037677765,0.0008988529443740845,6.541235998922586,-0.006713390350341797
1746232188131915300,1.110915283203125,0.07111756672329438,0.02359389141201973,0.03210302202580791,-0.07714640349149704,-0.009680815708406568,0.9341103879747549,0.006334794283936928,right,0.002833425998687744,-0.7269569139366393,0.52067704789415,-7.309010177201032,-0.355406257442661,0.11650829017162323,0.002971336245536804,6.517488628110289,0.004652857780456543
1746232188171915300,1.150915283203125,0.06817938377158476,-0.004313090816140175,0.03063682683705002,-0.07751791179180145,-0.008674077165990324,0.9353030002746302,0.0071430665096637045,right,0.0013338327407836914,-0.7204946665626628,0.5020584913376719,-7.35237527167499,-0.3524125293323586,0.14059774577617645,-0.0036112070083618164,6.470000316226482,0.021428823471069336
1746232188211915500,1.19091552734375,0.06459661120643698,0.00048465514555573463,0.029044732373834134,-0.10667172074317932,-0.008156299345043536,0.9358967725019588,0.006796719159653634,right,0.002679586410522461,-0.7174118164780228,0.47699872275255617,-7.373996151852607,-0.3509804065343697,0.0872063934803009,-0.0025086477398872375,6.44725072427988,0.02039402723312378
1746232188251915500,1.23091552734375,0.06030831313978297,-0.013305235654115677,0.02712356142113,-0.07631860673427582,-0.007573419106672964,0.9362684644483059,0.0063780491908288495,right,0.006731688976287842,-0.7156240079885188,0.4460665184700861,-7.387467043322324,-0.35015471626868655,0.046129483729600906,-0.003594588488340378,6.434029423657059,0.017266035079956055
1746232188291915500,1.27091552734375,0.0563636574138884,-0.04422520101070404,0.025547859460259757,-0.07548057287931442,-0.007606185930800121,0.9363215084073799,0.004831686172128654,right,-0.023095905780792236,-0.7155841986382847,0.41693654130399227,-7.389424607130885,-0.35013068684869997,-0.049021992832422256,-0.01493987999856472,6.433734824624657,0.022669553756713867
1746232188331915300,1.310915283203125,0.054711072376196324,0.0051673464477062225,0.02480571362165059,-0.05643536150455475,-0.007430651704354219,0.9361632615031334,0.0046173852903083215,right,-0.013605475425720215,-0.716602100607114,0.4043660327401012,-7.383560683533549,-0.3506106743786878,-0.010086774826049805,-0.019808439537882805,6.441265220129489,-0.004712879657745361
1746232188371915300,1.350915283203125,0.05420458484538938,0.07529130578041077,0.024162199911924233,-0.05398445203900337,-0.00621655969201645,0.9364090851880362,0.00698385169335364,right,-0.004599571228027344,-0.7152798093111037,0.4010873763956129,-7.392263045427203,-0.3500223737689906,0.08254022151231766,-0.012933813035488129,6.431482077261805,-0.006845235824584961
1746232188411915300,1.390915283203125,0.05447836411155544,0.043743379414081573,0.02369235862083726,0.0007310397922992706,-0.004518360419971977,0.937188035895511,0.010583750869935807,right,-0.001970529556274414,-0.7108499276511278,0.4046586224785074,-7.420529354968666,-0.34798992412600244,0.05928207188844681,0.002651199698448181,6.398623763754964,0.011783778667449951
1746232188451915500,1.43091552734375,0.05430243871195077,0.010478917509317398,0.023578350191816852,-0.007853610441088676,-0.004359893718876982,0.9374146659902379,0.010818982333954988,right,-0.0034562349319458008,-0.7095600077829425,0.40380080007277425,-7.4288354110211126,-0.3473886530909337,0.030589088797569275,-0.0040413811802864075,6.389032344067096,0.004588305950164795
1746232188491915500,1.47091552734375,0.05257975049735684,0.010925451293587685,0.022810640408056974,-0.046631813049316406,-0.004158777919279534,0.9374832511147968,0.010601685009830657,right,-0.0028476715087890625,-0.7092773830680533,0.39109753197468816,-7.431323136183619,-0.3472573329719908,0.0038878154009580612,-0.008186288177967072,6.386929234308004,-0.00992518663406372
1746232188531915500,1.51091552734375,0.050465726315955924,0.002383255399763584,0.021789194056119243,-0.03957493603229523,-0.0037236237173813008,0.9374283123414888,0.010759318513186419,right,0.0006337761878967285,-0.7097312951627918,0.3752403664229437,-7.429236977559327,-0.34747601170741704,-0.018709620460867882,-0.004774566739797592,6.390306601786613,-0.003608405590057373
1746232188571915300,1.550915283203125,0.04845577720531607,-0.0066332463175058365,0.020918124155084677,-0.040679533034563065,-0.003583286375508166,0.9373497373883809,0.01032865092667958,right,0.0029802322387695312,-0.7103029421702042,0.3601302563788369,-7.426326058548688,-0.3477429734271997,-0.021775653585791588,-0.005576681345701218,6.394557829490304,-0.0022150278091430664
1746232188611915300,1.590915283203125,0.04548581962909296,0.001510433852672577,0.01961059966862918,-0.0651257336139679,-0.0033117592102133845,0.937273284337199,0.009821130168534661,right,0.0014118552207946777,-0.7109106405484477,0.33789606660846616,-7.4234794369459145,-0.34802773932798414,-0.011625011451542377,-0.013952953740954399,6.399075014653802,-0.0032164454460144043
1746232188651915300,1.630915283203125,0.04185030495598909,0.052665915340185165,0.017715460296555387,-0.09525143355131149,-0.0021986592054999525,0.9370870375070556,0.010875547309310627,right,0.005316734313964844,-0.7121839079407737,0.3105645902317017,-7.4165125205427405,-0.34863917710439385,-0.06442781537771225,-0.009603934362530708,6.408531409785151,0.017031967639923096
1746232188691915500,1.67091552734375,0.04188327488015867,0.08554117381572723,0.017254276515319352,-0.05559927597641945,-0.0009705418330233057,0.9368082815925269,0.013546695998773763,right,0.007633209228515625,-0.7137926688968075,0.31037699523773044,-7.406191617536544,-0.349416103808183,-0.06776489317417145,-0.01381191611289978,6.420465008684992,0.011330366134643555
1746232188731915500,1.71091552734375,0.04345688745103224,0.09293786436319351,0.017140301775545944,-0.029416393488645554,0.0009540848667660168,0.9363660762061432,0.018304242374352384,right,0.007215142250061035,-0.7162443226002095,0.3213462791500613,-7.389946000656485,-0.3506049673149671,-0.056914232671260834,-0.019506162032485008,6.438619089534878,0.0032502412796020508
1746232188771915500,1.75091552734375,0.04610356254442363,0.09739357978105545,0.017226709319996925,-0.00783262588083744,0.0034366509808082192,0.9357469041578615,0.024690937665273693,right,0.007108569145202637,-0.7196034246444409,0.3399052510064095,-7.3674232032030815,-0.3522346020860139,-0.06408178061246872,-0.010277645662426949,6.463429705664515,0.008466124534606934
1746232188811915500,1.79091552734375,0.047961665589584715,0.07888557016849518,0.017544947620636447,0.002044367603957653,0.004515380392920759,0.9354822808602378,0.02773625051119448,right,0.006892204284667969,-0.7209807394019109,0.35316695670485493,-7.357879714310169,-0.35290894225048386,-0.043175168335437775,-0.010110549628734589,6.473581681844592,0.008378922939300537
1746232188851915300,1.830915283203125,0.05001733740545472,0.05414737015962601,0.01791619279910308,0.008069299161434174,0.005672019832941142,0.9352801655537372,0.031015384260831162,right,0.005241215229034424,-0.7219767204527111,0.367969023713097,-7.350694771242141,-0.35340893502646925,-0.018494362011551857,0.0029506832361221313,6.480915677994489,0.0173911452293396
1746232188891915300,1.870915283203125,0.05219716667970653,0.024785218760371208,0.01852523588848545,0.041002605110406876,0.0063302261121963525,0.9350973296773655,0.03327529634817823,right,0.0037890076637268066,-0.7228618615500263,0.38369196842592207,-7.344143449902534,-0.3538498344203061,-0.0031973980367183685,0.01561037078499794,6.487427251845598,0.014401495456695557
1746232188931915300,1.910915283203125,0.05354122689736948,0.004674004390835762,0.019090725285772974,0.027190886437892914,0.006250409776503557,0.935053573113823,0.03361882813951123,right,-0.0009565353393554688,-0.7230318158109743,0.39350357020311055,-7.342520232614874,-0.35393673861097136,0.00560303870588541,0.014645170420408249,6.488676959645748,0.011143505573272705
1746232188971915500,1.95091552734375,0.05427490086562632,-0.009856285527348518,0.01950993281724306,0.012075935490429401,0.0059088283495727974,0.9350101412384944,0.033173072858251204,right,-0.0025454163551330566,-0.7232459002255334,0.39881512061469254,-7.340842654791474,-0.35403468527705284,-0.00040729064494371414,0.009532328695058823,6.4902510770946735,0.0011817216873168945
1746232189011915500,1.99091552734375,0.054858260720362116,-0.0021421792916953564,0.01978342417922516,-0.0060430290177464485,0.005790694960493206,0.9349582248416745,0.03315009371749835,right,-0.008822381496429443,-0.7235077490774056,0.4030042063349858,-7.338911394467949,-0.35415853764339095,-0.008333399891853333,0.0027897395193576813,6.492175907677412,-0.0030892491340637207
1746232189051915500,2.03091552734375,0.0549042096824434,0.01646393910050392,0.019703064745790307,-0.0166288074105978,0.006053251621949768,0.9349626283589184,0.033727881732858705,right,-0.00541001558303833,-0.7234704366973302,0.40335470027308906,-7.33913468182981,-0.35414694944426195,0.006387948989868164,0.000697258859872818,6.491901766911148,-0.0076940059661865234
1746232189091915300,2.070915283203125,0.05502172210698171,0.015577465295791626,0.019601524310882523,0.001199476420879364,0.006454185850397777,0.9349891260459896,0.03462416806752495,right,-0.0016903281211853027,-0.7232979400983901,0.40427871978282925,-7.340205525931715,-0.3540755165964519,0.0014867312274873257,0.0012699849903583527,6.490633938932419,-0.005773186683654785
1746232189131915300,2.110915283203125,0.05653987657049532,0.028777703642845154,0.02004834710758357,0.016377007588744164,0.006873020560765909,0.9349467580558123,0.036099483482697856,right,-0.014519572257995605,-0.7234248145577156,0.41537528333663937,-7.33876058782041,-0.3541544878181194,-0.02709168568253517,-0.00568636879324913,6.491566251346469,0.0019959211349487305
1746232189171197200,2.150197265625,0.058960527237367395,0.020921310409903526,0.020714282841203673,0.020309263840317726,0.00756691749635435,0.9345690121793753,0.038572454560393155,right,-0.005287315230816603,-0.7253712659555673,0.43239323629606513,-7.325106156477331,-0.355097786892198,-0.06996259838342667,-0.004374050535261631,6.505861318680644,0.007283389568328857
1746232189211197200,2.190197265625,0.059992924597871394,0.009077964350581169,0.02103932544237827,0.018660977482795715,0.007666135433025617,0.9341361503041091,0.03926566133652581,right,0.0021485090255737305,-0.727736835343506,0.439031432201527,-7.309273212051391,-0.35621362938854156,-0.04229290410876274,-0.0007830150425434113,6.523201745060086,0.008105993270874023
1746232189251197200,2.230197265625,0.0610297221927998,-0.002765381708741188,0.02136431197570946,0.017012692987918854,0.007765412600663102,0.933701977109687,0.03996376961384417,right,0.009579598903656006,-0.7301019921376976,0.445667216954194,-7.293394090396165,-0.35732892037228187,-0.014623207971453667,0.0028082244098186493,6.540501839429139,0.008932709693908691
1746232189291197200,2.270197265625,0.06188973766154836,0.021366041153669357,0.02167001430914387,0.02001924440264702,0.007853222523466576,0.9336631125908157,0.04048697746616398,right,0.0058571696281433105,-0.7302565987149918,0.45187692178189753,-7.291998836645484,-0.3574100624358588,-0.0010314816609025002,0.0008177757263183594,6.541631720241904,0.0068261027336120605
1746232189331197200,2.310197265625,0.0641575242360082,0.04201134666800499,0.02236949611625452,0.011742684990167618,0.008424309016028864,0.9337436649905896,0.04255277573886648,right,0.001405179500579834,-0.7296170406584978,0.468680610936135,-7.295128951364755,-0.3571435795035705,0.0218522772192955,-0.00021842867136001587,6.53695788321197,0.001426398754119873
1746232189371197200,2.350197265625,0.06585949040707718,0.030974505469202995,0.02275756274865672,0.002774973399937153,0.009233225685153565,0.9338574495672672,0.0449029928658855,right,0.003448307514190674,-0.7288108246169194,0.48144266001675273,-7.29957716294527,-0.35680138995998023,0.01692717894911766,0.003371644765138626,6.5310618109107015,0.004016101360321045
1746232189411197200,2.390197265625,0.06666444382836718,-0.018434012308716774,0.023121534844404792,0.026906471699476242,0.009143203678249518,0.9339115784215553,0.04500269478661561,right,-0.0022245049476623535,-0.7284516490160085,0.48747456059213723,-7.301527712491154,-0.3566386099971818,0.03332474082708359,0.006114650517702103,6.52843380049467,-0.0007919669151306152
1746232189451197200,2.430197265625,0.06552472134709746,-0.06764639914035797,0.02307669337231626,-0.004356548190116882,0.008173082008618956,0.9342390315528338,0.04242018585466627,right,-0.008845746517181396,-0.7267431863940338,0.479882132701762,-7.313197107496857,-0.3558063843610241,0.046088479459285736,0.001208242028951645,6.515922109445929,0.007538020610809326
1746232189491197200,2.470197265625,0.06215228683235474,-0.07353303581476212,0.02222751226805264,-0.01397864893078804,0.006885041366374146,0.9343527740190981,0.03836555462569696,right,-0.007134437561035156,-0.7264032113490282,0.4553537310469895,-7.316984809342026,-0.3555890160038107,-0.006857443600893021,0.012132678180932999,6.513430292630195,0.006327986717224121
1746232189531197200,2.510197265625,0.06023337416683908,-0.049822501838207245,0.02185880938769085,-0.0014502611011266708,0.005772348698389602,0.9341592623105709,0.035300191357402054,right,-0.008768141269683838,-0.7276676136046277,0.4408161236612126,-7.309618079966306,-0.35613956218879866,-0.05090915039181709,0.0021659843623638153,6.522694380059838,0.00220644474029541
1746232189571197200,2.550197265625,0.05925326230672405,-0.022114347666502,0.02167463399296385,0.005995355546474457,0.005141437211111279,0.9338704339026481,0.03363743721983235,right,0.0020386576652526855,-0.7293781153392775,0.4329903619389981,-7.298899117553233,-0.3569172697244973,-0.008746620267629623,-0.0012671537697315216,6.535210747283696,-0.01320880651473999
1746232189611197200,2.590197265625,0.05902622788708789,0.03571387007832527,0.021492460974205287,-0.032633256167173386,0.005462267119791467,0.9341514767154442,0.03418101244503297,right,-0.0032834410667419434,-0.7278033928709392,0.43193982997275887,-7.309261521613598,-0.35618739775004066,0.06778691709041595,0.0009514577686786652,6.5236886517941945,-0.004958987236022949
1746232189651197200,2.630197265625,0.057646854815064104,0.011339252814650536,0.020799830596070448,-0.042941052466630936,0.005961723462035748,0.9346046855071458,0.03463652519482217,right,-0.003268420696258545,-0.7253226808663904,0.4227883360721171,-7.325984108355641,-0.35502975244199797,0.05415547266602516,0.002242147922515869,6.505504760327935,-0.011436820030212402
1746232189691197200,2.670197265625,0.057153887132288216,-0.006090832874178886,0.0205544195251226,0.013242188841104507,0.006132899274803713,0.9347616193978467,0.0347852790338149,right,0.0062906742095947266,-0.7244615959154876,0.4194966010503471,-7.3317813964575524,-0.3546275617405827,-0.01451648399233818,0.005452007055282593,6.499183740612864,0.005001246929168701
1746232189731197200,2.710197265625,0.058466725074891646,0.015260452404618263,0.02109165615815881,0.04580574110150337,0.006019510399834417,0.934468567660321,0.03509718485666771,right,0.0021032094955444336,-0.726034329178616,0.4285238840494305,-7.321010996118187,-0.35536947333840047,-0.07161368429660797,0.0002123117446899414,6.510725709846615,-0.011127233505249023
1746232189771197200,2.750197265625,0.061516934735597,0.030610017478466034,0.02219548368123498,0.03597467392683029,0.006069908590569016,0.9336071161815315,0.03653991647757378,right,-0.01684778928756714,-0.7306709239993551,0.44899172173440455,-7.289460842600464,-0.35755880487993985,-0.1479489505290985,-0.004864446818828583,6.544658374586701,-0.012528061866760254
1746232189811197200,2.790197265625,0.06380310353675857,0.037646278738975525,0.022706591942146772,0.004365988075733185,0.006798584724881468,0.9325896089462946,0.039193215034626916,right,-0.009948432445526123,-0.7361683369903893,0.46335448400992896,-7.252400401228666,-0.36015957340996124,-0.13887028396129608,-0.0002784021198749542,6.584708060902357,-0.0018638372421264648
1746232189851197200,2.830197265625,0.06452434616706523,0.004109486937522888,0.02273199794333337,-0.01966034062206745,0.007260452830007726,0.931917817116002,0.04060907152087424,right,-0.007466793060302734,-0.7398288410234547,0.4670277656951919,-7.227962125542759,-0.3618836248427012,-0.060303881764411926,0.004235014319419861,6.611265228438377,0.007668018341064453
1746232189891197200,2.870197265625,0.06353145286764598,0.010027224197983742,0.022214242292898357,-0.03531542420387268,0.007573056300913061,0.9318999406561033,0.04090054302932212,right,-0.005559027194976807,-0.7399838224957999,0.4597859048081562,-7.227399815484881,-0.36195539614578837,0.04094574600458145,0.005371205508708954,6.612388094988465,0.009038686752319336
1746232189931197200,2.910197265625,0.062317599825551614,-0.007209921255707741,0.021688063551832882,-0.020625047385692596,0.007799149592238751,0.932253417210918,0.04084057753110869,right,-0.003010392189025879,-0.7380969642120695,0.45178876857440914,-7.240391983526945,-0.36107116577662135,0.04879007488489151,0.00459800660610199,6.598711451813578,0.015797555446624756
1746232189971197200,2.950197265625,0.06094014908163876,0.013986367732286453,0.021133877661506314,-0.030605480074882507,0.007979106340877506,0.9327726299594259,0.04058576840765043,right,-0.0005691647529602051,-0.7352942897755258,0.44293965515382583,-7.259438629302382,-0.3597568566874448,0.08431501686573029,0.001149974763393402,6.578353723439574,0.006570100784301758
1746232190011197200,2.990197265625,0.060385930378269496,-0.004914365708827972,0.020905215397330906,0.005843326449394226,0.008149238465842376,0.9332476551117529,0.04063711315163141,right,0.007636666297912598,-0.7326718945344752,0.4399558535700664,-7.276877839881181,-0.3585323783866241,0.04625295475125313,0.0025419853627681732,6.559258562347292,-0.0002747774124145508
1746232190051197200,3.030197265625,0.06035606303237369,-0.02892594039440155,0.021107037070267697,0.021159972995519638,0.007586559406580027,0.933232168928392,0.03942413938353038,right,-0.00020366907119750977,-0.732787134722661,0.43969292831756174,-7.276136666125058,-0.3585732604758747,-0.04347008094191551,-0.0031878761947155,6.560098520302772,-0.005277752876281738
1746232190091197200,3.070197265625,0.060695197275536,-0.002349071204662323,0.021293661544671275,0.0196882002055645,0.007307448673606234,0.9327643046534888,0.03905472680753578,right,0.005483150482177734,-0.7353882303819388,0.4411239840339869,-7.258930679780244,-0.3597834456465183,-0.05413343384861946,-0.003306593745946884,6.579037029528617,-0.020698368549346924
1746232190131197200,3.110197265625,0.06074347000500877,0.02965123951435089,0.021140379098173585,-0.04138526692986488,0.0077125801826388955,0.9326260815456158,0.03997049833133148,right,-0.002722620964050293,-0.7361362338184327,0.4411754950255155,-7.253994976943731,-0.3601420348428835,-0.0013633258640766144,-0.0038977935910224915,6.584474836668372,-0.009206056594848633
1746232190171197200,3.150197265625,0.059782958902249446,0.026839012280106544,0.020453302584676588,-0.03237829729914665,0.00852462538400951,0.9326931560797159,0.041327789756852314,right,-0.0020785927772521973,-0.7357874146780247,0.4343449548857286,-7.2567077430337665,-0.3599896628486921,0.00047690921928733587,-0.001125384122133255,6.581939180710911,0.0012743473052978516
1746232190211197200,3.190197265625,0.059857765487734485,0.02630455791950226,0.020224291445385664,-0.01757022738456726,0.009200520460641156,0.9327034581923261,0.04280226474715977,right,-0.00828540325164795,-0.7356893161193202,0.43492640803549437,-7.257319737452268,-0.3599592637366309,-0.010199260897934437,-0.0019620954990386963,6.581226064005493,0.010473370552062988
1746232190251197200,3.230197265625,0.05962531861458893,0.007419167086482048,0.01990163358663476,-0.026228198781609535,0.00976614756477421,0.9326038334394634,0.04394603359551895,right,0.0009014606475830078,-0.7362274404518497,0.4330283923944458,-7.2538845023065806,-0.36022044077957727,-0.022648092359304428,0.0005481243133544922,6.585137684491277,0.011111557483673096
1746232190291197200,3.270197265625,0.0592021550300556,0.005919211078435183,0.019587125501765685,-0.014535325579345226,0.010093375253129613,0.9324442916094507,0.044518547775976317,right,0.0056899189949035645,-0.7371233284344467,0.42960952386166895,-7.248174892488121,-0.36064148795573897,-0.01566951908171177,0.0019881688058376312,6.591645166689157,0.0005906224250793457
1746232190331197200,3.310197265625,0.05871336496851497,0.006033333018422127,0.019319857883050004,-0.026409178972244263,0.010262849383456275,0.9323849409907742,0.044706349471433315,right,0.013391554355621338,-0.7374746197986359,0.42593072575107216,-7.246071782729029,-0.3608045205295653,0.004650551825761795,-0.00009048357605934143,6.59419543569386,-0.01032942533493042
1746232190371197200,3.350197265625,0.059151537310514535,0.028095243498682976,0.019338327216702166,0.024225208908319473,0.010689340416202713,0.9324521591902345,0.045774283694354774,right,0.026129961013793945,-0.7370458283110655,0.4292728392532095,-7.248706222885847,-0.36061734153965674,0.008133839815855026,0.006466023623943329,6.591082272109389,-0.0012378096580505371
1746232190411197200,3.390197265625,0.061666081506623574,0.03432244807481766,0.02013578500259618,0.02284226007759571,0.011208053297171732,0.9324242835362404,0.0478575491704463,right,-0.0007131695747375488,-0.7369989703163325,0.4475176671264693,-7.247911857637763,-0.36062986040288064,-0.00497828796505928,0.0012482665479183197,6.5907420803695915,0.004983663558959961
1746232190451197200,3.430197265625,0.0628640182143211,-0.0014290474355220795,0.020496742762865686,0.0008142013102769852,0.011473687409812462,0.9323234870422935,0.04890946761054126,right,-0.014731287956237793,-0.737459025037747,0.4560093454115092,-7.244343936023116,-0.3608616872431887,-0.010477088391780853,0.0014307871460914612,6.594082038447261,0.015092790126800537
1746232190491197200,3.470197265625,0.0621329066852833,-0.04386872798204422,0.020348655999683756,0.0060105412267148495,0.011046571763629175,0.9321603325728621,0.04774995198961228,right,-0.015230774879455566,-0.7384439845261632,0.4503092706063762,-7.238188920524716,-0.361304579019405,-0.023764563724398613,0.0063524916768074036,6.601228403070569,0.018740057945251465
1746232190531197200,3.510197265625,0.059756314209935726,-0.0790247768163681,0.01987567748362651,0.002247051103040576,0.009768832810049827,0.9319891434449761,0.04413310592005649,right,-0.015756607055664062,-0.7396315748306501,0.4326373107176274,-7.231408466604352,-0.3618089998963656,-0.024891387671232224,0.006339728832244873,6.609836656939983,0.0168343186378479
1746232190571197200,3.550197265625,0.056740400962479516,-0.09174264222383499,0.01932399133349861,0.00316871446557343,0.008054394857609844,0.9318362563363404,0.039324101045335284,right,-0.0159074068069458,-0.7407613526960842,0.41040231722965836,-7.225220133358239,-0.36227461246312975,-0.017420824617147446,0.0005604736506938934,6.618017040786147,0.010715603828430176
1746232190611197200,3.590197265625,0.05345875763016771,-0.06794117391109467,0.018588169674501952,-0.021119412034749985,0.0065740416729087444,0.9317570549796853,0.034894670373295085,right,-0.0035245418548583984,-0.7414615614439621,0.3864418881885707,-7.22189887998104,-0.3625467086169921,-0.0006953105330467224,-0.002819214016199112,6.623082507482171,0.00522458553314209
1746232190651197200,3.630197265625,0.050977409997204334,-0.018329337239265442,0.0178695524084295,-0.02496361918747425,0.005919239512335225,0.9318640469640778,0.032510202022714,right,0.006228804588317871,-0.7410361131925806,0.3686642029030248,-7.225649172425269,-0.36231907277368436,0.02674485743045807,-0.007092578336596489,6.620004999732971,-0.0046166181564331055
1746232190691197200,3.670197265625,0.05060086520958473,0.023663822561502457,0.017681500506771183,-0.0023323558270931244,0.006091775866384937,0.9321484889448141,0.03268474311247521,right,0.010095775127410889,-0.7394764595697821,0.3664651950214058,-7.236089902418851,-0.3615929396231551,0.0411374531686306,-0.006317850202322006,6.608712621346116,-0.007001101970672607
1746232190731197200,3.710197265625,0.052039451160872725,0.041366707533597946,0.018063022091144253,0.0109239611774683,0.006666675198554136,0.9324683443226003,0.03441496290421859,right,0.0017908811569213867,-0.7375994313903103,0.3775191250098869,-7.247930562338232,-0.3607382871063678,0.0446908175945282,-0.007201250642538071,6.595101444622874,-0.00009703636169433594
1746232190771197200,3.750197265625,0.0534308699412219,0.022434433922171593,0.018426026453117254,0.0063261487521231174,0.007233290176898761,0.9327345640216504,0.03611519840202351,right,-0.00256192684173584,-0.7360148170688106,0.3881612958597019,-7.257824764364957,-0.3600199993729451,0.028025878593325615,-0.004584889858961105,6.583592208614945,0.002007901668548584
1746232190811197200,3.790197265625,0.05398478159229695,-0.003899417817592621,0.01864848756982053,0.011733289808034897,0.007291481714359755,0.9329595095180807,0.03640994720528585,right,-0.0038231611251831055,-0.7347260013834337,0.3926389161977917,-7.266075290837883,-0.3594238620423626,0.03588484600186348,-0.0017893873155117035,6.5742194001138206,-0.00030499696731567383
1746232190851197200,3.830197265625,0.053710415534253084,-0.0209156796336174,0.01874269402783313,0.02213478460907936,0.006835349813437529,0.9332238374153281,0.0352780178392471,right,0.0017018318176269531,-0.7332867929021128,0.39115287889111783,-7.275623455905914,-0.3587410979714177,0.03831302374601364,-0.0008994154632091522,6.56374009167552,0.0003889799118041992
1746232190891197200,3.870197265625,0.05323494995044526,-0.02519536390900612,0.018785741676477313,0.0013350024819374084,0.006256279437416911,0.9333246593214544,0.033837280562676736,right,-0.008523881435394287,-0.7327745401098849,0.3878723959157243,-7.279165074035525,-0.35848706708370376,-0.0024655796587467194,-0.0009737052023410797,6.5600067503660915,0.009738683700561523
1746232190931197200,3.910197265625,0.05200478932628987,-0.027253327891230583,0.01843291891767905,-0.022821959108114243,0.005863078983344434,0.9331965206001102,0.032548080185309226,right,-0.003787398338317871,-0.7335763666897759,0.3786440008539706,-7.27438134689033,-0.3588453846580077,-0.02921104244887829,0.00047923624515533447,6.565849631175398,0.009014308452606201
1746232190971197200,3.950197265625,0.049930995149773075,-0.014709146693348885,0.017660811683852674,-0.0401165671646595,0.005696891073318809,0.93310052397694,0.03141492120554919,right,0.002916991710662842,-0.7342350881924318,0.3633416927060112,-7.270829791888594,-0.3591364116902104,-0.0014634821563959122,-0.0009118467569351196,6.570646802324056,0.0024647116661071777
1746232191011197200,3.990197265625,0.0480193455643484,0.002911137416958809,0.01681096927775997,-0.041493602097034454,0.005936233860779462,0.9331393757661246,0.031188546998328577,right,0.0017964839935302734,-0.7341143987277412,0.34947986568994815,-7.2723033715724945,-0.3590725735035249,0.009437810629606247,-0.003941468894481659,6.569767681401967,0.006880402565002441
1746232191051197200,4.030197265625,0.0465465403436543,0.007371241692453623,0.01606545723177727,-0.033820848912000656,0.006368114555773168,0.9332153905687,0.031536815320653167,right,0.004594206809997559,-0.733751488733198,0.3388797073509544,-7.275191494229436,-0.3589016369049204,0.013987291604280472,-0.005928359925746918,6.567125057938695,0.005379915237426758
1746232191091197200,4.070197265625,0.045592659496421654,0.012943452224135399,0.01555877386639791,-0.023572470992803574,0.006736568223277433,0.9333744269137155,0.03193491559986455,right,0.00403362512588501,-0.7328980179890404,0.33219522461835294,-7.281107440274954,-0.35850349368735307,0.027217678725719452,-0.007598346099257469,6.560906914076209,0.0007891654968261719
1746232191131197200,4.110197265625,0.04516236230392464,0.004396980628371239,0.015329358875782812,-0.005450289696455002,0.006946364333088162,0.9336160602951361,0.032180705613875364,right,0.0007569193840026855,-0.7315597969978326,0.3294582374025136,-7.290014384829997,-0.35787950697025783,0.03250209987163544,-0.007203325629234314,6.551147152084112,-0.00011068582534790039
1746232191171197200,4.150197265625,0.045138695321324085,-0.0046639591455459595,0.015341401099438831,0.005588509142398834,0.00693659728489403,0.9338062621287025,0.03212017453841042,right,-0.00011771917343139648,-0.7304965706531461,0.3295998012976721,-7.2969760405361646,-0.35738270657444143,0.00966828316450119,-0.0038638561964035034,6.543384701389074,0.0009056329727172852
1746232191211197200,4.190197265625,0.04552208562919456,-0.008755799382925034,0.015583022953395696,0.01727919466793537,0.006703032734682842,0.9337985542737729,0.03176762170477537,right,0.00007283687591552734,-0.7305298608681876,0.3323874592548236,-7.29663175714314,-0.35739683045095144,-0.007915809750556946,-0.004005866125226021,6.543627862495184,-0.0030863285064697266
1746232191251197200,4.230197265625,0.04595721851772908,-0.005124559625983238,0.015865594487019796,0.021252620965242386,0.0063780492714372635,0.9336329797541798,0.031264690053398325,right,-0.0007987022399902344,-0.7314475320807622,0.33528643209934234,-7.290484924951195,-0.35782261198643894,-0.02866247110068798,-0.003058992326259613,6.550327652394771,-0.0011958479881286621
1746232191291197200,4.270197265625,0.04659623059789959,-0.006076458841562271,0.016202895594815848,0.02637806534767151,0.006101471072057746,0.9333795003911551,0.030957885120404406,right,-0.0013022422790527344,-0.7328422603379978,0.3395191742982715,-7.281135497325659,-0.35847296886483737,-0.04001155495643616,-0.0009002238512039185,6.560500671362877,0.0009855031967163086
1746232191331197200,4.310197265625,0.047636396642552294,0.0008443845435976982,0.01668619233210366,0.0231460053473711,0.005852399062624131,0.9330921540618977,0.030870033696241424,right,-0.0030400753021240234,-0.7344009973871972,0.3466052235690877,-7.270555651122331,-0.3592024551888328,-0.036887165158987045,-0.0023559965193271637,6.571854424548149,0.002605736255645752
1746232191371197200,4.350197265625,0.048637552173501145,0.0053245313465595245,0.017094840104856693,0.01821441948413849,0.0057699655977521335,0.9328627567990745,0.031115950224579882,right,-0.002426743507385254,-0.7356283733950776,0.3534915855493396,-7.262142627564073,-0.35977984880995173,-0.02695075049996376,0.00011999905109405518,6.580782996413111,0.0036554932594299316
1746232191411197200,4.390197265625,0.049462135595864265,0.005452086683362722,0.017420140436747375,0.011578157544136047,0.005748062134192792,0.9327452933372726,0.03140577514053738,right,-0.0029656291007995605,-0.7362377877064898,0.35928131139930336,-7.257841715499758,-0.3600688953234112,-0.005346329882740974,0.00010146573185920715,6.585213087815046,0.00432199239730835
1746232191451197200,4.430197265625,0.04998100095430827,0.002031564712524414,0.017620990696441543,0.004654980264604092,0.005768699123427857,0.9327699342858282,0.031645171248421304,right,-0.002422511577606201,-0.736072142746623,0.36310163687244057,-7.258744217297434,-0.3599952111619981,0.013331178575754166,0.0007741563022136688,6.584008972722292,0.0026814937591552734
1746232191491197200,4.470197265625,0.04991562043471073,-0.004188913851976395,0.017634398602685824,0.002221822738647461,0.0057072949194146745,0.9329325723160575,0.03146036733735629,right,-0.0008812546730041504,-0.7351724733151112,0.36292248091325163,-7.264681206130981,-0.3595738861566831,0.02976638823747635,0.00018925219774246216,6.577467588254809,-0.00030416250228881836
1746232191531197200,4.510197265625,0.04983249616076617,-0.006095266435295343,0.01768330791151022,0.007675087545067072,0.005550828371705754,0.9331588405124255,0.031054227183732575,right,-0.001773238182067871,-0.7339206802046168,0.36272845617849375,-7.2729288099944585,-0.3589862612398778,0.029522813856601715,-0.0008709132671356201,6.568357230082154,-0.0009744167327880859
1746232191571197200,4.550197265625,0.05031170523398135,0.0063463919796049595,0.017940242523432345,0.01673072762787342,0.005411257853434596,0.9332868373338608,0.03091654086337942,right,-0.00261610746383667,-0.733184246131066,0.36645682905185967,-7.277583357802033,-0.35864280982277463,0.008596286177635193,-0.00008640065789222717,6.5629930727005,-0.0013906359672546387
1746232191611197200,4.590197265625,0.05152227700677538,0.0031909076496958733,0.0184535488987745,0.025189563632011414,0.0053269122194824275,0.933269099183263,0.03120205258249711,right,-0.00031262636184692383,-0.7332175786716034,0.37525530826374887,-7.2769158338040105,-0.3586642039263745,-0.006299871020019054,-0.000010330229997634888,6.56323564928472,-0.00016629695892333984
1746232191651197200,4.630197265625,0.052755664446910835,0.002609629649668932,0.01896288978107565,0.02408955991268158,0.005252914316916334,0.9331603473148097,0.03153493118384074,right,-0.0013151764869689941,-0.7337554812767625,0.384044069799222,-7.272921211209892,-0.35892150641660747,-0.022069640457630157,0.002580460160970688,6.567154284033179,0.005320310592651367
1746232191691197200,4.670197265625,0.053780214674416196,0.0003124217037111521,0.01937963737461234,0.017653800547122955,0.005173943286169242,0.9329433062766075,0.0317977929620677,right,-0.0030927658081054688,-0.7349081365280219,0.3910881796244532,-7.264960023072361,-0.3594642565292002,-0.03139900043606758,0.0016250759363174438,6.57554451123774,0.006201565265655518
1746232191731197200,4.710197265625,0.05418416855379926,-0.008408287540078163,0.01958689016527151,0.006469135172665119,0.005008742147179818,0.932773700086817,0.03163000686994054,right,-0.001846909523010254,-0.7358339851720738,0.3936929918279871,-7.258719667378068,-0.3598953366232741,-0.014081606641411781,0.0004728063941001892,6.582278203406929,0.004688441753387451
1746232191771197200,4.750197265625,0.05370731069361601,-0.009958036243915558,0.01947346500379949,-0.008829616010189056,0.004800623799017568,0.9327355651031646,0.03100788354981388,right,-0.003207087516784668,-0.7360805312296361,0.39014443250093606,-7.257285835182667,-0.3600030544518126,0.0035691428929567337,-0.0013517066836357117,6.584069762998819,0.0033056139945983887
1746232191811197200,4.790197265625,0.05268330826180475,-0.004117143806070089,0.019099279519609325,-0.01512927282601595,0.004735644881106718,0.9328195948374877,0.03046025610182331,right,-0.0007350444793701172,-0.7356745881316512,0.38285343524254856,-7.260349314406514,-0.3598060824224305,0.0155562162399292,-0.0016685053706169128,6.581119096499681,-0.0007089376449584961
1746232191851197200,4.830197265625,0.05186369253392264,0.00747116981074214,0.018718422829311455,-0.020398138090968132,0.004909384190863822,0.9329459268480444,0.03049559426040681,right,-0.0004170536994934082,-0.735013680361332,0.3771280433330685,-7.265003277692198,-0.3594962347991436,0.011351974681019783,-0.0020893774926662445,6.576312573000788,-0.00008308887481689453
1746232191891197200,4.870197265625,0.051656232786244746,0.012822546064853668,0.018536651350521818,-0.00209602527320385,0.005183253104060674,0.9330095077992655,0.03099160803588707,right,0.0027151107788085938,-0.7346630073331559,0.37573987691029903,-7.267384035348892,-0.359336791719472,0.003312705084681511,-0.001534830778837204,6.573761134952306,-0.002963244915008545
1746232191931197200,4.910197265625,0.05247774942581495,0.012530095875263214,0.018766807139224247,0.011169975623488426,0.0054240338829395175,0.9329646404529861,0.03183046246667704,right,-0.00022614002227783203,-0.7348579842624291,0.3816427808111533,-7.265792966765165,-0.359437727727954,-0.010576251894235611,-0.0008635558187961578,6.575179769578575,0.0012781620025634766
1746232191971197200,4.950197265625,0.05344495499679255,0.006165331229567528,0.019122974856027264,0.02040170505642891,0.005484372367296428,0.9329069302588742,0.03234110244908291,right,-0.0007507801055908203,-0.7351206528332446,0.38857784077133983,-7.2636951177030795,-0.35956770606397176,-0.0051707131788134575,-0.0003612339496612549,6.577090571635961,0.003239929676055908
1746232192011197200,4.990197265625,0.05433938165302121,-0.004010619595646858,0.01952655705910526,0.01995137706398964,0.005354051059099878,0.9328798220863166,0.032409851158657244,right,-0.0015451312065124512,-0.7352223197682689,0.39503819589186456,-7.262676880571246,-0.3596182161877723,0.0017400304786860943,0.0005941204726696014,6.577830576348305,0.0031732916831970215
1746232192051197200,5.030197265625,0.05489303794089476,-0.0026945334393531084,0.019824082149203493,0.011485697701573372,0.005164377476914122,0.9329189405320067,0.032208382416505074,right,-0.0028281807899475098,-0.7349769480807963,0.39914771356992423,-7.264068627190589,-0.3595032664581397,0.011340096592903137,0.0005442313849925995,6.576045446497202,0.0031057000160217285
1746232192091197200,5.070197265625,0.054820381781156946,0.001610073959454894,0.019832022084331657,-0.010927064344286919,0.005103028267926884,0.9330481513989903,0.03202488616320747,right,-0.004629194736480713,-0.7342628269107142,0.3988771530002355,-7.268784549796581,-0.3591682388236146,0.024046137928962708,-0.000706695020198822,6.570848462375998,0.0033092498779296875
1746232192131197200,5.110197265625,0.05415282073549237,-0.0019326244946569204,0.019532190797824277,-0.015346134081482887,0.0052322634945588045,0.9332036108120771,0.03201731027701579,right,-0.0006555318832397461,-0.7334316962016111,0.3943201472830027,-7.2745000048339366,-0.35877878247889033,0.021967917680740356,-0.00047537311911582947,6.564795738208294,0.0015938282012939453
1746232192171197200,5.150197265625,0.05287798533004076,-0.000217501656152308,0.01898186887964786,-0.030346687883138657,0.00537863608582943,0.933344347294972,0.031817609166615315,right,-0.00027877092361450195,-0.7327163574760693,0.385294142925553,-7.279684129473567,-0.3584398016457379,0.019704623147845268,-0.0023202188313007355,6.559582971996068,-0.001145482063293457
1746232192211197200,5.190197265625,0.05113681522154077,-0.009393889456987381,0.018261970673615537,-0.0339873768389225,0.005479008374831388,0.9334776985363886,0.03134355768383361,right,-0.0020505189895629883,-0.7320682060874918,0.3728356433687731,-7.284588852649927,-0.35812826482621457,0.011143439449369907,0.00002386048436164856,6.554856527996063,0.003067612648010254
1746232192251197200,5.230197265625,0.04949701294617694,-0.0150355976074934,0.01761591056370949,-0.03113080933690071,0.005464014476493294,0.9335037481984257,0.03068070986811895,right,-0.003785848617553711,-0.7320150600534203,0.36090708597023036,-7.285538116198778,-0.3580930230482893,-0.009754168801009655,-0.0016507729887962341,6.5544689899832,0.003629446029663086
1746232192291197200,5.270197265625,0.04768001766081319,-0.015757616609334946,0.01692082989606016,-0.02522846683859825,0.005369643931229332,0.9334354601756131,0.029795820765287664,right,0.0005983710289001465,-0.7324981554163367,0.34751777183674276,-7.283018242332339,-0.3583058817915623,-0.0075281402096152306,-0.0000670701265335083,6.557991903412342,0.0005970597267150879
1746232192331197200,5.310197265625,0.04612867404521669,-0.013805187307298183,0.01634464117229783,-0.01926332339644432,0.005249775280061236,0.9333965890900504,0.028952150706064432,right,0.0011195540428161621,-0.7328001038668642,0.3361275590986013,-7.281570381611585,-0.3584356333035396,-0.006773252040147781,0.00020224601030349731,6.560193212848901,0.0026342272758483887
1746232192371197200,5.350197265625,0.04502692889287892,-0.003265189938247204,0.015918907692846533,-0.015203900635242462,0.0052158403439744325,0.9334022575158187,0.028457075469472865,right,0.0030655860900878906,-0.7328256965932274,0.328097397378087,-7.281768534532189,-0.35844067346994424,0.002875121310353279,-0.0004523172974586487,6.560379675331712,0.0033222436904907227
1746232192411197200,5.390197265625,0.04440269778222394,0.005624810233712196,0.01562278721831696,-0.009307529777288437,0.005351994793773344,0.9334591141197253,0.028501050542483572,right,0.002913534641265869,-0.7325348192232535,0.3236365089790895,-7.283878074032068,-0.3583036412595156,0.009111439809203148,-0.0012293756008148193,6.558259029915928,0.0025843381881713867
1746232192451197200,5.430197265625,0.044223173553453836,0.006980604026466608,0.015469303670599965,-0.010620969347655773,0.005580371471824085,0.9335235554038545,0.028911525100715197,right,0.000453948974609375,-0.7321758061955996,0.3224329418756068,-7.286288057783246,-0.3581388253852541,0.01080344244837761,-0.0009290240705013275,6.5556415408939115,0.0026145577430725098
1746232192491197200,5.470197265625,0.04399454261812556,0.001977702137082815,0.015330738886243336,-0.002193656750023365,0.005719802688761799,0.9335924401522461,0.02911208435784329,right,0.00007557868957519531,-0.7317969100400744,0.32087625048551704,-7.288842418441176,-0.35796291715883966,0.003777625970542431,-0.0012514293193817139,6.552877336877584,0.003724515438079834
1746232192531197200,5.510197265625,0.04406878161976374,0.00032143050339072943,0.015343674841504066,0.006272357888519764,0.005762375160004293,0.9335881426305639,0.02923227855021733,right,0.0021814703941345215,-0.7318160278854118,0.3214118551995605,-7.288693365359306,-0.3579729613096504,-0.0016112597659230232,-0.00017910823225975037,6.553017037609219,0.004269421100616455
1746232192571197200,5.550197265625,0.0446795465223593,0.0033477740362286568,0.01560647126800431,0.019209641963243484,0.00570568039472701,0.9335590661870885,0.029348766171849346,right,-0.0007932186126708984,-0.7319501547175404,0.325824228281714,-7.287617260560393,-0.35803822524944146,0.002990029752254486,-0.001306384801864624,6.553995527252554,0.003927350044250488
1746232192611197200,5.590197265625,0.04553093716688019,0.0009134083520621061,0.0159716106704934,0.014579933136701584,0.005639620639044983,0.9335612787082207,0.02953226811861486,right,-0.002538323402404785,-0.7318972772643009,0.33204449103605,-7.287683311533928,-0.3580174109890039,0.001960650784894824,-0.0016277357935905457,6.553609742805361,0.006269693374633789
1746232192651197200,5.630197265625,0.046300793776921645,0.00798990111798048,0.016274293443507247,0.014159072190523148,0.005655089237219313,0.9335773226979189,0.029856900091914884,right,-0.0012420415878295898,-0.7317674561451275,0.3376942238934338,-7.28827543220818,-0.35796163032822487,0.006450545974075794,0.000629957765340805,6.552662232822179,0.003148376941680908
1746232192691197200,5.670197265625,0.04696268421847716,0.02015768550336361,0.01645306137845915,0.0010282527655363083,0.005892734333695976,0.9336381647835214,0.030608566292411335,right,0.0009366869926452637,-0.7313846489111925,0.3426359180793166,-7.290555652099847,-0.3577910225608889,0.008186498656868935,-0.00008677318692207336,6.549868802711368,0.0016688704490661621
1746232192731197200,5.710197265625,0.047439149609333695,0.023096159100532532,0.01658139143581573,-0.043034717440605164,0.006092065756610914,0.9337911198745349,0.031191765464457382,right,-0.014317214488983154,-0.7304956103123594,0.3463855894690379,-7.296205056163668,-0.3573823336149514,0.0539369210600853,-0.0153372623026371,6.543377687126398,-0.013315558433532715
1746232192771197200,5.750197265625,0.047013615400120695,0.00388270802795887,0.01626806784062258,0.003700088709592819,0.006509320704672089,0.9339603095138364,0.03189469585001037,right,0.0018395781517028809,-0.7295536549386034,0.3435702763199806,-7.3025056176126,-0.3569470485104966,0.005394186824560165,-0.004754699766635895,6.536494357353448,0.0012772083282470703
1746232192811197200,5.790197265625,0.04745234899835021,-0.001416920218616724,0.016398084773864504,0.012006711214780807,0.00671045641378431,0.9342863707397173,0.03243735074418306,right,0.0050577521324157715,-0.7276903786432166,0.3473512196308002,-7.314507021051645,-0.35608293413380043,0.07128770649433136,-0.006025377660989761,6.522861553320288,0.0027016401290893555
1746232192851197200,5.830197265625,0.046983914426888734,-0.004428960848599672,0.01625365778282617,-0.0012460006400942802,0.006730071159539395,0.934814328386114,0.03221338134092725,right,0.004825115203857422,-0.7247388443466845,0.34482750983946026,-7.333867555081844,-0.3547007687014193,0.078285351395607,-0.0013263151049613953,6.501219630354642,0.003374159336090088
1746232192891197200,5.870197265625,0.046918162070824526,-0.012767218053340912,0.016357137228283906,0.021578464657068253,0.006474481372504586,0.9351631812053254,0.0315839534950811,right,-0.0012378096580505371,-0.7227807412799911,0.34494171080365776,-7.346593181142211,-0.3537802377222092,0.03178464248776436,-0.0009305328130722046,6.486831039518117,0.009388625621795654
1746232192931197200,5.910197265625,0.04727308536986623,-0.01844918727874756,0.016695335946983574,0.024770749732851982,0.005996591039532157,0.9353251888673783,0.030669137482323694,right,-0.0007730722427368164,-0.7218620820073015,0.3478306371781975,-7.3524196953386065,-0.3533443181027708,0.021592039614915848,-0.0015119649469852448,6.480071628385782,0.005391299724578857
1746232192971197200,5.950197265625,0.04760253733347532,-0.022261038422584534,0.017062763201567757,0.028702279552817345,0.005409470610515553,0.9354722140439689,0.02951373820208672,right,0.0024973154067993164,-0.7210305851067805,0.35050913567245007,-7.357683899477124,-0.3529467324483289,0.03713984787464142,-0.0018217898905277252,6.4739487615913145,-0.0007793307304382324
1746232193011197200,5.990197265625,0.04780376020118559,-0.02829979732632637,0.0174197596396442,0.016743328422307968,0.004738659350205012,0.9357300582809621,0.02811301304623006,right,-0.004169046878814697,-0.7195758724046968,0.35243933655004944,-7.367012284314632,-0.35225481852288604,0.04144908860325813,-0.002057243138551712,6.463226876568794,0.005282282829284668
1746232193051197200,6.030197265625,0.04715513384746494,-0.0364360585808754,0.017459361816082326,0.015967147424817085,0.004005367524334424,0.9360154214169013,0.02625678227393841,right,-0.005372762680053711,-0.7180063156497479,0.348138570616208,-7.3773635824590915,-0.35150294880834254,0.03541892394423485,0.004118192940950394,6.451642821758985,0.010818243026733398
1746232193091197200,6.070197265625,0.045408494984364896,-0.06181669980287552,0.017165978023601446,-0.008070962503552437,0.0029714092773290533,0.9362889701956845,0.023352502818477217,right,-0.00520700216293335,-0.7165612073529187,0.33567532181907445,-7.387266552314162,-0.3507984765128472,0.04851584881544113,0.0036837048828601837,6.440963022312522,0.008902668952941895
1746232193131197200,6.110197265625,0.041485187201293225,-0.08571704477071762,0.016099494955857663,-0.047906070947647095,0.0016736475441035228,0.9366981228336394,0.019058958628219283,right,-0.005786001682281494,-0.7144373278780399,0.30725696352105586,-7.402177705720066,-0.3497638763261428,0.07650743424892426,0.0011553913354873657,6.425242306089401,0.005357503890991211
1746232193171197200,6.150197265625,0.03607644762407448,-0.08499608188867569,0.014430845014506638,-0.06561567634344101,0.0003897265103389563,0.9372953358720236,0.014232485925895766,right,-0.004271209239959717,-0.7112626045337948,0.26795060638599094,-7.4240791564047335,-0.3482370953555896,0.08934594690799713,-0.0010488331317901611,6.401690165588259,0.0005609989166259766
1746232193211197200,6.190197265625,0.030535995584043893,-0.06725186109542847,0.012576925603394871,-0.06350608170032501,-0.0005725666505852195,0.9379139634753174,0.010063459035658627,right,0.0018187165260314941,-0.7079140245907554,0.2274671682955697,-7.446834593570232,-0.3466394855232601,0.07929256558418274,-0.0017329100519418716,6.376777842649817,-0.0016037225723266602
1746232193251197200,6.230197265625,0.026786975288418998,-0.02769525721669197,0.01129169976384861,-0.03639987111091614,-0.0011578136189783752,0.9383668601318409,0.007393118966187245,right,0.0024585723876953125,-0.7054182081569039,0.19997293910514563,-7.463521524477005,-0.3454545152847288,0.04752948507666588,-0.005040450021624565,6.358163743072748,-0.005432188510894775
1746232193291197200,6.270197265625,0.02593454935972823,0.012107424437999725,0.010938227325010891,-0.001000136137008667,-0.001121266818317653,0.9385261956811067,0.0071443905334701244,right,0.0027040839195251465,-0.7045214379071526,0.1937585581023246,-7.46938603259623,-0.34503285606842643,-0.0019616372883319855,-0.006752368062734604,6.351465706738829,-0.0053244829177856445
1746232193331197200,6.310197265625,0.027521235729749172,0.03845122084021568,0.01143370167193109,0.030682850629091263,-0.0007321389887279954,0.9383853342502531,0.008568738544643224,right,0.0024989843368530273,-0.7052899469588908,0.2054754820441827,-7.464187294909357,-0.3454006917351893,-0.031592823565006256,-0.005943145602941513,6.357205711695552,-0.0037464499473571777
1746232193371197200,6.350197265625,0.03012315674309029,0.03476922586560249,0.012304172258088351,0.03603450208902359,-0.0002561294508639986,0.938161259018959,0.010561596277771675,right,-0.0011721253395080566,-0.7065003778876864,0.22466407530726865,-7.455930338695645,-0.3459797000091042,-0.024930283427238464,-0.003331400454044342,6.366239497500658,0.0050386786460876465
1746232193411197200,6.390197265625,0.03208562278015962,0.008301248773932457,0.013036930398798269,0.023136286064982414,-0.00009636486790185337,0.938075566525106,0.011633644759710461,right,-0.002672553062438965,-0.70692465039754,0.2392089709503576,-7.452775089535117,-0.34618530475083725,0.008651148527860641,-0.0016170497983694077,6.369403514489531,0.007705092430114746
1746232193451197200,6.430197265625,0.03248077625218779,-0.01265525072813034,0.013281829858209322,0.0073677897453308105,-0.00030114281208588694,0.9382576832866675,0.01132329256300601,right,-0.0017366409301757812,-0.7058561601729266,0.2423748328364454,-7.459477802044153,-0.34568203678259946,0.04205470159649849,-0.0008006151765584946,6.361432974001765,0.004848599433898926
1746232193491197200,6.470197265625,0.032115999049883985,-0.016429509967565536,0.013288798836203762,0.005956721492111683,-0.000679405937567127,0.938582073553011,0.010349044107365367,right,0.0007622241973876953,-0.7039889253275812,0.24003477251632138,-7.471425429469346,-0.34479957243131176,0.04629652574658394,0.000013515353202819824,6.347485697191953,0.000995039939880371
1746232193531197200,6.510197265625,0.032055131628233806,-0.008720504119992256,0.013423796711178363,0.011970920488238335,-0.001071773174160062,0.9389153335690789,0.009456201656780336,right,-0.00019925832748413086,-0.7020528428558912,0.23997341598421335,-7.48370915698111,-0.3438849233353613,0.041421204805374146,-0.003876741975545883,6.333001244765519,-0.0034423470497131348
1746232193571197200,6.550197265625,0.03227935919262777,0.005883721634745598,0.013580237718523297,0.004104803316295147,-0.0012175965170245593,0.9391688663232245,0.009201208399762949,right,-0.0011837482452392578,-0.7005663485504264,0.24195501825548707,-7.493055661997198,-0.34318518414335697,0.02394106797873974,-0.0034265555441379547,6.321863764679431,-0.0033187270164489746
1746232193611197200,6.590197265625,0.03303159972993406,0.015644486993551254,0.013833791051960927,0.01468681637197733,-0.0010629229445550713,0.9392469276868919,0.00979662218949898,right,0.00413745641708374,-0.7000827182520243,0.24769246592894195,-7.495926248997449,-0.34296175156049424,0.0009083971381187439,-0.000008195638656616211,6.318237390875816,-0.00044018030166625977
1746232193651197200,6.630197265625,0.03463033248920507,0.02171194925904274,0.014419458479374666,0.03216566517949104,-0.0008856252739699853,0.93923060140596,0.010758553314838179,right,0.003010094165802002,-0.7001148248086878,0.25966910025291146,-7.495317761710286,-0.3429828438352818,-0.006413613446056843,-0.00001631118357181549,6.318478213894367,0.001069188117980957
1746232193691197200,6.670197265625,0.03646353032763506,0.01871201954782009,0.015114248978038128,0.027707651257514954,-0.0007555964698324893,0.9391477028278806,0.011713173381689345,right,-0.0020641088485717773,-0.7005216146729587,0.2733153300232254,-7.492260127705335,-0.3431801568590982,-0.014269224368035793,0.0011878050863742828,6.321528249114752,0.005268096923828125
1746232193731197200,6.710197265625,0.03796479603225745,0.006740794517099857,0.01569351132418885,0.02724413387477398,-0.0006880157446048951,0.9390165680878673,0.012420531229146796,right,-0.0007366538047790527,-0.7012200397439302,0.2843952529694885,-7.487427300721406,-0.34351297547521614,-0.014599107205867767,0.0038604214787483215,6.326763227158785,0.007499277591705322
1746232193771197200,6.750197265625,0.03879427116621606,-0.006800622679293156,0.016092214013607435,0.012495174072682858,-0.0008691888458318735,0.938925435048277,0.012348756473937033,right,-0.004563331604003906,-0.7017125261408401,0.2904849116140976,-7.484075067684054,-0.3437432599717816,-0.0100058913230896,0.002626189962029457,6.3304527293264865,0.006205260753631592
1746232193811197200,6.790197265625,0.03865755256058435,-0.016969095915555954,0.01613285663938612,0.0016519371420145035,-0.001133230841045215,0.9389184068918794,0.011737242793140229,right,-0.0037194490432739258,-0.7017577588724647,0.2894506183966063,-7.483827814924717,-0.34375965484420684,0.005544118583202362,0.0031453948467969894,6.330791167500615,0.004461348056793213
1746232193851197200,6.830197265625,0.03788545102566428,-0.01542651653289795,0.01591834451007644,-0.015839233994483948,-0.0014010315440258255,0.9389482879889859,0.010881167099245007,right,-0.004259049892425537,-0.7016168188154371,0.2837060651289299,-7.48494074460268,-0.34368711246567607,0.0045197769068181515,0.001256365329027176,6.329735520967841,0.002284228801727295
1746232193891197200,6.870197265625,0.03694201242361169,-0.003564286045730114,0.015567455174778153,-0.01413776632398367,-0.001488327336984726,0.9389692322543532,0.01034824697352153,right,-0.0014270544052124023,-0.7015358184700273,0.2766632887442596,-7.485717574194073,-0.3436455767969351,-0.00045500975102186203,0.00035168975591659546,6.329128787246346,-0.00007009506225585938
1746232193931197200,6.910197265625,0.036483976136551174,0.008607015013694763,0.01533274499446119,-0.00812290608882904,-0.0013575194691872656,0.9389614562061519,0.010460568297870022,right,-0.0010104179382324219,-0.701601977314709,0.27321924923760815,-7.48542472872734,-0.3436778403648099,-0.001726779853925109,-0.0015693716704845428,6.3296244618088,-0.0028634071350097656
1746232193971197200,6.950197265625,0.036821532833488435,0.011504908092319965,0.015367838818371149,0.003937768749892712,-0.0010777000382226503,0.9389642553100652,0.011179549952667655,right,-0.0018261075019836426,-0.7015730478109234,0.2757527315042913,-7.485515329620242,-0.34366957822281013,-0.0006018391577526927,-0.0007512923330068588,6.329407604187726,-0.00016760826110839844
1746232194011197200,6.990197265625,0.03761284584718334,0.012187947519123554,0.015603283049835309,0.012361640110611916,-0.0008488166131107431,0.9389137110924753,0.01196218497543547,right,-0.001461625099182129,-0.7018340701229596,0.28161389688896016,-7.483643690529465,-0.34379777441907716,-0.01710270717740059,-0.00032442808151245117,6.331362829908728,-0.00008910894393920898
1746232194051197200,7.030197265625,0.03836641080045055,-0.007970581762492657,0.01589255461107284,0.013854668475687504,-0.0008321083067500026,0.9387173286747256,0.012297471277359494,right,-0.0024549365043640137,-0.7029427476816558,0.28698380815796554,-7.476410232144594,-0.3443204699530663,-0.03871786221861839,-0.0007422249764204025,6.339661871698499,0.000904083251953125
1746232194091197200,7.070197265625,0.0380526764320651,-0.04078231751918793,0.015976377042012862,0.016781644895672798,-0.001470591550275326,0.9383008470852465,0.01087306336574801,right,-0.003204822540283203,-0.7053687224655115,0.28405222995178775,-7.461109202638268,-0.34544763618719454,-0.08015352487564087,-0.00005639903247356415,6.357794325238466,-0.0014815926551818848
1746232194131197200,7.110197265625,0.03788949223950604,-0.018968459218740463,0.016111515870033694,0.014962305314838886,-0.002091619086090801,0.9377813808929154,0.009551442933358153,right,-0.004360377788543701,-0.7083724436064247,0.28211000984283163,-7.442038591465353,-0.3468458888493363,-0.0620812363922596,-0.003223925828933716,6.380192619529367,-0.0048097968101501465
1746232194171197200,7.150197265625,0.03764536546559762,0.007995326071977615,0.01598554345095792,-0.03347232565283775,-0.0020290794931236427,0.9377065500193639,0.009603662749250343,right,0.000516057014465332,-0.7088159686083337,0.280186677097436,-7.439279063624143,-0.3470544799761523,0.0334247387945652,0.0025864969938993454,6.383495168206095,0.014280378818511963
1746232194211197200,7.190197265625,0.03783172757044876,0.03294648230075836,0.015922577257003735,-0.003573877736926079,-0.0016066356219815727,0.9380383322890866,0.010533607365898161,right,-0.002255737781524658,-0.7068968831952136,0.2820359034270048,-7.451454654586315,-0.3461618598316688,0.0732608363032341,0.000985497608780861,6.369196593740582,0.005546867847442627
1746232194251197200,7.230197265625,0.0384728611277193,0.02306235209107399,0.01599104774564551,-0.012659110128879547,-0.0010191884293609117,0.9384816603457595,0.011967132114797375,right,-0.002279043197631836,-0.7043052712110341,0.28744715135339644,-7.467741187998652,-0.3449571746030695,0.052073363214731216,0.0022865403443574905,6.349850088235735,0.008724033832550049
1746232194291197200,7.270197265625,0.03896841667143268,0.015101947821676731,0.016057324647110596,0.008232779800891876,-0.0006139954078742913,0.9387167147157512,0.012982490055419408,right,-0.0012761950492858887,-0.7029196746051355,0.29149028926435855,-7.476382175093889,-0.34431490362345785,0.020929856225848198,0.001338820904493332,6.339489437741041,0.003913581371307373
1746232194331197200,7.310197265625,0.038985273906418434,0.006769970059394836,0.016003735570665426,-0.013741051778197289,-0.00043648338418399683,0.9387949109023135,0.013356887627367768,right,-0.0013410449028015137,-0.7024644554783561,0.2917287559290416,-7.479260360878706,-0.34410427148443007,0.008832347579300404,-0.0005425550043582916,6.336082259646058,0.0028561949729919434
1746232194371197200,7.350197265625,0.038140951363232076,-0.007677146233618259,0.015619106171489164,-0.0142778055742383,-0.0003127520698631754,0.9388662482170259,0.013302914483265036,right,-0.000006318092346191406,-0.7020881999349958,0.28550463898349554,-7.481885448685288,-0.3439273998362575,0.009006152860820293,-0.0004863608628511429,6.333266033181547,0.006728410720825195
1746232194411197200,7.390197265625,0.037128605554692794,-0.005417141132056713,0.01520085596756909,-0.02779068425297737,-0.00028276197980198263,0.9389472552939774,0.012987028882571725,right,-0.0002790689468383789,-0.7016618689945292,0.27803043064530936,-7.484868263888359,-0.3437249880006662,0.012837357819080353,-0.0038055162876844406,6.3300733746200795,0.007612943649291992
1746232194451197200,7.430197265625,0.03552121305031392,0.007317489944398403,0.014456672634090862,-0.052646204829216,-0.0000057989976749850795,0.9391515490372315,0.012965974509455401,right,-0.0026068687438964844,-0.700540764972358,0.2662508167307824,-7.492392814174294,-0.34319861681587815,0.03273678570985794,-0.008938642218708992,6.321672041499614,0.01254361867904663
1746232194491197200,7.470197265625,0.0334470674685424,0.015360933728516102,0.01340255342654252,-0.06804005801677704,0.0006049503503775851,0.9394044440470484,0.013481934366429025,right,0.0016758441925048828,-0.6991488558898562,0.251003965097107,-7.501715938314795,-0.3425482404729826,0.03494241461157799,-0.012984138913452625,6.311230726984143,0.012692272663116455
1746232194531197200,7.510197265625,0.031437388575932076,0.027534544467926025,0.01226570599890969,-0.0797223225235939,0.0015246165183732453,0.9397286991806294,0.014673508387534532,right,-0.00022846460342407227,-0.6973236949261542,0.23628910144828258,-7.513706235837936,-0.3416974670840544,0.04796909913420677,-0.022975251078605652,6.297520766061544,0.011948168277740479
1746232194571197200,7.550197265625,0.02860784613050583,0.02505679614841938,0.010705864392543405,-0.0997917652130127,0.002696035866750945,0.9401123962797953,0.016100451324247946,right,0.00138169527053833,-0.6951600190460047,0.21541708514289928,-7.52794752715826,-0.34068589238690744,0.05586354807019234,-0.026324203237891197,6.281240662389993,0.006382107734680176
1746232194611197200,7.590197265625,0.025865072275303942,0.03184531629085541,0.00921855347980032,-0.07213351875543594,0.003794522193603579,0.9407021170474831,0.017388679033066557,right,0.006853640079498291,-0.6917558479303847,0.19532071111882104,-7.54984196358025,-0.33908733672079916,0.10421545803546906,-0.021898893639445305,6.255567291951179,-0.0054718852043151855
1746232194651197200,7.630197265625,0.024445605910223506,0.04885413497686386,0.008277757310859845,-0.04862098768353462,0.00489892960730902,0.9414037920928205,0.019160205133189393,right,0.005998432636260986,-0.687617147328292,0.18523504164060578,-7.575929175516962,-0.33714476234436996,0.09314931184053421,-0.013719686307013035,6.2242567924082275,-0.00917816162109375
1746232194691197200,7.670197265625,0.024965828282861154,0.07608291506767273,0.008032705378794656,-0.01791236363351345,0.0062624734192405496,0.9418897074164176,0.022194771406531318,right,0.0010214447975158691,-0.6846633329766155,0.18963429951285943,-7.594177948912978,-0.3357680090026787,0.04939395934343338,-0.007282502017915249,6.201845054113864,-0.014094412326812744
1746232194731197200,7.710197265625,0.027580070703212573,0.10360996425151825,0.008499734448927501,-0.0004343949258327484,0.00801498570343389,0.9421068116790418,0.02682099992241177,right,-0.004147350788116455,-0.6832047898188474,0.2097358794350177,-7.6026909257143735,-0.3351095600283395,0.02337336167693138,-0.00440450944006443,6.190759011954069,-0.014228105545043945
1746232194771197200,7.750197265625,0.030843260296742656,0.10816030204296112,0.009160929331296306,0.00019955693278461695,0.009964024498417828,0.9422144737313444,0.03210109233660336,right,-0.006419718265533447,-0.6823329218340553,0.2347100886285305,-7.607357748481631,-0.3347368909473421,0.010122906416654587,-0.0007821116596460342,6.184125273028016,-0.0021715760231018066
1746232194811197200,7.790197265625,0.034256050004134314,0.07642735540866852,0.009950657895518335,0.016802046447992325,0.011697105604500845,0.9421790662833258,0.03699141887240772,right,-0.006815195083618164,-0.6822887897258905,0.26068034138837826,-7.606784917029738,-0.33475794904439476,-0.013621173799037933,0.0068413205444812775,6.183789172941446,0.009038209915161133
1746232194851197200,7.830197265625,0.03687108383250364,0.021372921764850616,0.010746226051755816,0.02219470590353012,0.012465679105138421,0.942072770037652,0.03956387631987302,right,-0.008464574813842773,-0.682751138845816,0.28046600549547,-7.603219918024539,-0.3350047843045183,-0.015154226683080196,0.008584059774875641,6.187307994717359,0.011132895946502686
1746232194891197200,7.870197265625,0.03781951494613826,-0.004765966907143593,0.011165305014961324,0.018123913556337357,0.012374174357010038,0.9420298672467022,0.03971259568406576,right,-0.006837069988250732,-0.6829711417889188,0.28762552186129614,-7.601589686474203,-0.3351150896810143,0.0014755399897694588,0.006960896775126457,6.188981480887532,0.00929415225982666
1746232194931197200,7.910197265625,0.037804332061229726,-0.022924626246094704,0.011298409475278874,0.011334676295518875,0.011965002293547338,0.9419728162288101,0.03884811895486355,right,0.002451181411743164,-0.6833441066476311,0.2874228571623564,-7.599287254750728,-0.33528576911633,-0.01198624912649393,0.007722239941358566,6.191818165618181,0.0075691938400268555
1746232194971197200,7.950197265625,0.038084652777927164,-0.009361149743199348,0.011547641772684265,0.020838908851146698,0.011570034824390193,0.941908029763964,0.03811971366243057,right,0.003507852554321289,-0.683747383616714,0.28945797971915455,-7.5967100977391,-0.33547313469149315,-0.004864112939685583,0.004767317324876785,6.194884567451477,0.008859515190124512
1746232195011197200,7.990197265625,0.038468315525807706,-0.022176241502165794,0.011827412185801876,0.004670821130275726,0.011216706077589034,0.9418700547545785,0.03751218382548096,right,0.004884123802185059,-0.683981433279516,0.2923167666837573,-7.595149424293637,-0.3355819690904842,-0.00915624387562275,-0.0034505445510149,6.196663852083683,0.020413100719451904
1746232195051197200,8.030197265625,0.03756523786802155,-0.06500127911567688,0.011774267214212309,0.016378458589315414,0.010319878115403882,0.9418728346080942,0.03528826844890135,right,0.012002229690551758,-0.6840680997413112,0.2854374554987997,-7.5948735299617045,-0.3356047920524329,0.02341354452073574,-0.001004096120595932,6.1973226082533595,0.010993599891662598
1746232195091197200,8.070197265625,0.035420854925335324,-0.12586720287799835,0.011584735988251644,0.04121024161577225,0.008446298356821265,0.9422013403331899,0.030505311122295986,right,0.016571044921875,-0.6823134463566165,0.2695351721636951,-7.606323729258775,-0.33474050704332303,0.06417913734912872,0.006811961531639099,6.183977388989925,0.014368295669555664
1746232195131197200,8.110197265625,0.03331541318405563,-0.172479510307312,0.011963852810441737,0.11261355876922607,0.005001911014184215,0.9425637103862197,0.022406279398643297,right,0.010815024375915527,-0.6803797316150929,0.25391775191826743,-7.618811454910039,-0.3337747490922572,0.05335298553109169,0.007515488192439079,6.169248021891713,-0.0010608434677124023
1746232195171197200,8.150197265625,0.03256678447881132,-0.1534605324268341,0.013058634037198279,0.09999926388263702,0.0010638888104905066,0.9427463398063237,0.01376678988683967,right,-0.012585818767547607,-0.6793902138227306,0.24841266996227204,-7.625097403311729,-0.3332532375811453,0.02532072737812996,0.0007689502090215683,6.161701844295859,-0.016450703144073486
1746232195211197200,8.190197265625,0.03223110782729058,-0.09848625957965851,0.013990847460585107,0.09083054959774017,-0.0019524530374854046,0.9428497076826892,0.007238373707787173,right,-0.011853456497192383,-0.6787738939591768,0.24597541461167854,-7.62897395248413,-0.3329186650563172,0.007018078118562698,0.0022977404296398163,6.156998781171441,-0.014865577220916748
1746232195251197200,8.230197265625,0.03397090143408018,-0.020373843610286713,0.015287902274366383,0.08233444392681122,-0.0035905660504252537,0.9428508627065509,0.0043759262672999465,right,-0.00823664665222168,-0.6786664216296481,0.25927034672629085,-7.629195486280322,-0.3328446477668381,-0.012622760608792305,0.008097995072603226,6.156178112438321,-0.005589485168457031
1746232195291197200,8.270197265625,0.03778827438914869,0.011228598654270172,0.017051889037240624,0.08546178787946701,-0.0041279053675342126,0.9427979492552166,0.004586365766850126,right,-0.01329582929611206,-0.6788013412486624,0.2883604850723408,-7.6273203400582075,-0.33290258612961215,-0.0017310483381152153,0.0033718179911375046,6.157208040007949,0.009905099868774414
1746232195331197200,8.310197265625,0.040188764367133506,-0.007481411099433899,0.018157829900386377,0.04048168286681175,-0.004453358094976202,0.9427883368849733,0.004742174606478346,right,-0.003125905990600586,-0.6787342530540946,0.30668555684126914,-7.627018726763128,-0.3328671765945475,0.013314391486346722,0.005495376884937286,6.156695998832583,0.014376997947692871
1746232195371197200,8.350197265625,0.04077326785829533,-0.04575170949101448,0.018680038328178005,0.027870040386915207,-0.005221965468602996,0.9429892527539145,0.0032915722413592373,right,-0.0017102956771850586,-0.6774726192860614,0.31145989510361105,-7.634593545931577,-0.33225760564213386,0.04596848040819168,0.002948302775621414,6.147060740002989,0.017193913459777832
1746232195411197200,8.390197265625,0.03985586604014759,-0.06277567893266678,0.018772029689525793,0.018826400861144066,-0.0065167776905904525,0.9433531394272134,0.0001782846708933559,right,0.0015887022018432617,-0.675275341554532,0.30499321984015404,-7.648353775736689,-0.3311949479458529,0.06277068704366684,0.00042100250720977783,6.130256904718279,0.006468772888183594
1746232195451197200,8.430197265625,0.03827037408397071,-0.056480273604393005,0.018582476361718857,-0.0039071254432201385,-0.007810995954813906,0.9437096945598348,-0.0031619557536492365,right,-0.0016608834266662598,-0.6731361986046049,0.29336749957939606,-7.661914099055529,-0.3301602483221861,0.04477992653846741,-0.0015325900167226791,6.1138686644971365,-0.0037328004837036133
1746232195491197200,8.470197265625,0.035678724908028196,-0.05810793489217758,0.01787951629587435,-0.031307488679885864,-0.008857695437756835,0.9438798267588774,-0.0063030686477921335,right,-0.003622889518737793,-0.672169034919984,0.27372034889385105,-7.668554852244258,-0.3296859945642421,0.01434464193880558,-0.0018387828022241592,6.106449912673234,-0.00521928071975708
1746232195531197200,8.510197265625,0.03249268062997717,-0.058409497141838074,0.016904870765107625,-0.012333149090409279,-0.00984597444928257,0.9439138507630644,-0.009511833059068905,right,0.0041356682777404785,-0.6720400518381973,0.24931224915049968,-7.670175146922468,-0.32961209340798053,0.003935921937227249,0.0048560481518507,6.105460317113995,-0.005509853363037109
1746232195571197200,8.550197265625,0.03081757498666297,-0.03918483108282089,0.016555995606538684,0.014466751366853714,-0.01083567641438404,0.9438881470118334,-0.012191699434614726,right,-0.0013471245765686035,-0.6721965553108028,0.23643409940954296,-7.669626865389943,-0.32967222141725283,-0.01048546377569437,0.0062791090458631516,6.106661509597301,0.0007700920104980469
1746232195611197200,8.590197265625,0.03093309614019723,-0.0024284161627292633,0.016798003033801752,0.018645571544766426,-0.01139607977060092,0.9437140737150104,-0.013325513182393202,right,-0.003706991672515869,-0.6732075254464008,0.23712904113745314,-7.663425088140368,-0.330139218454665,-0.03866327181458473,0.001598171889781952,6.114415776985884,0.005556285381317139
1746232195651197200,8.630197265625,0.031992074919633365,0.03005044162273407,0.017159442280624944,0.008805671706795692,-0.011185692216202482,0.9434177221218126,-0.012484789255378787,right,0.0026552677154541016,-0.674973450880587,0.24489854262778535,-7.652365349465608,-0.33097359435911666,-0.03698292002081871,-0.00115957111120224,6.127945705166459,0.005755960941314697
1746232195691197200,8.670197265625,0.03324354283059996,0.03087003156542778,0.01744507263644323,0.0057767233811318874,-0.010529861854802106,0.9432962440717565,-0.010644663488105733,right,0.009780347347259521,-0.6757018213491456,0.2543266249801032,-7.647589805626869,-0.3313262907116495,0.0006089881062507629,0.00014889612793922424,6.133520874950289,0.013969600200653076
1746232195731197200,8.710197265625,0.03401949509263937,-0.01208459958434105,0.017712024174738734,0.021953856572508812,-0.010369912523922909,0.9434211322939959,-0.010044821199838043,right,0.010869503021240234,-0.6749256869066165,0.2604225489687174,-7.652145569235086,-0.33096139814710074,0.03886353224515915,0.00455065630376339,6.127579794463515,0.0196341872215271
1746232195771197200,8.750197265625,0.03386972238070799,-0.07331791520118713,0.018035898567956777,0.0373259112238884,-0.011455805321738333,0.943759893526236,-0.012430703486528492,right,0.0009707808494567871,-0.6728056094346176,0.25971578893885017,-7.665150596758723,-0.3299405973765265,0.06283524632453918,-0.0006547402590513229,6.111333593061566,0.019026517868041992
1746232195811197200,8.790197265625,0.03220093305452836,-0.11052979528903961,0.018086950921876947,0.03647265210747719,-0.013574308848230732,0.9441585899220335,-0.017536523789319344,right,-0.001658022403717041,-0.6702837174907783,0.24741932980967685,-7.6809531460464,-0.3287145384611171,0.0734419971704483,-0.00501985102891922,6.091972474509477,0.007221579551696777
1746232195851197200,8.830197265625,0.030282379264551317,-0.09403004497289658,0.0180912520783307,0.03149374946951866,-0.015881927925931096,0.9445859098854545,-0.02312328816962534,right,-0.004830598831176758,-0.6675358609235728,0.23318852335074916,-7.698117046815156,-0.3273804974713253,0.07171634584665298,-0.011299156583845615,6.070832071325182,-0.002429664134979248
1746232195891197200,8.870197265625,0.028998772206466173,-0.0558260977268219,0.018144429416417304,0.04740597680211067,-0.017594052981216822,0.9450152132941261,-0.02722040110783682,right,0.0050179362297058105,-0.6647722048998526,0.22379258970236404,-7.715151183724403,-0.32604839803528257,0.08492431044578552,-0.0087037468329072,6.049524494880438,-0.007858812808990479
1746232195931197200,8.910197265625,0.02912735883681661,-0.028282439336180687,0.01854824157368604,0.028853219002485275,-0.01864056554799529,0.9455717414873467,-0.029424592263268247,right,-0.0051673054695129395,-0.6612238260687394,0.22540840913485735,-7.736530656361579,-0.32434963912978776,0.08994553238153458,-0.00963020883500576,6.022098727816343,-0.0019040107727050781
1746232195971197200,8.950197265625,0.02871503469141909,-0.021819544956088066,0.01854761104772184,0.0037686731666326523,-0.019176913406616383,0.9461516871867236,-0.030733552676296037,right,-0.0035445690155029297,-0.6575901654040086,0.22284522584965452,-7.7584449665278195,-0.32262266153253283,0.09782766550779343,-0.005798665806651115,5.993935294127464,0.001069486141204834
1746232196011197200,8.990197265625,0.027645034007651094,-0.026621781289577484,0.01825210878151533,-0.009929008781909943,-0.019668310848525064,0.9467744377222375,-0.03216965770057128,right,-0.004428386688232422,-0.6536980047890844,0.2151867835183628,-7.781940408405661,-0.3207776753346889,0.09206758439540863,-0.0032319165766239166,5.963680441117286,0.0034461617469787598
1746232196051197200,9.030197265625,0.026361096674541694,-0.023821404203772545,0.017867099824366624,0.0022901054471731186,-0.020166577427013253,0.9473136005322992,-0.03368259914432197,right,0.001745462417602539,-0.6503108102327727,0.20572635153271257,-7.802358927056193,-0.3191726428542665,0.07830287516117096,-0.0004348158836364746,5.937277002838254,0.0010953545570373535
1746232196091197200,9.070197265625,0.026045418064074927,-0.008273296989500523,0.01785336933307789,0.011871619150042534,-0.020558036841306235,0.9477253104547417,-0.03463431999285554,right,-0.000013887882232666016,-0.6476864205724198,0.20366839608959852,-7.817973260295391,-0.3179238316782587,0.055341292172670364,0.0009108707308769226,5.916773143991827,-0.0030394792556762695
1746232196131197200,9.110197265625,0.026702665744292264,0.01115842629224062,0.01813478220325237,0.014451822265982628,-0.020601632668474895,0.9480349530543184,-0.034520814793934665,right,-0.0017504692077636719,-0.6457085768426353,0.20911873391736296,-7.829520490226149,-0.31698055907749495,0.04255948215723038,-0.000738970935344696,5.901293835309147,-0.003276348114013672
1746232196171197200,9.150197265625,0.027829199230163776,0.02733084186911583,0.018483614037663403,0.009835842996835709,-0.020244391098303283,0.9482533956927143,-0.0334019317780157,right,-0.0028367042541503906,-0.6443371247679147,0.2181638083014637,-7.837362435898184,-0.31632906706533176,0.02307666838169098,-0.00045514851808547974,5.89054623132348,-0.0036186575889587402
1746232196211197200,9.190197265625,0.0294163387793656,0.02534564398229122,0.01900065706571848,0.0206138975918293,-0.019796052241313554,0.948344179768099,-0.0319322579067802,right,-0.0032514333724975586,-0.6437626624595577,0.23070200376464053,-7.8403873366773125,-0.3160545291448613,0.003510458394885063,0.0002823229879140854,5.886041321119666,-0.003494083881378174
1746232196251197200,9.230197265625,0.03115300698987433,0.0073925647884607315,0.019669128616737957,0.037377309054136276,-0.019603468871674044,0.9483058402679864,-0.03094527726664107,right,-0.003367304801940918,-0.6439602265952294,0.2442815615069121,-7.838812634706497,-0.3161406580187894,-0.011009899899363518,0.0004885829985141754,5.887590888649225,-0.0034590959548950195
1746232196291197200,9.270197265625,0.03236685651399264,-0.021475976333022118,0.02029272562441962,0.031824007630348206,-0.019929550652157593,0.9481221751280201,-0.0312166419581456,right,-0.006929516792297363,-0.6450260912724732,0.2535933057368733,-7.832233840838074,-0.31663136554721033,-0.03966979682445526,-0.001048581674695015,5.895946629062295,0.001771092414855957
1746232196331197200,9.310197265625,0.03310853407119736,-0.03478879854083061,0.020860078400615115,0.03992085158824921,-0.02067287775865602,0.9477793640371831,-0.03251444207746651,right,-0.00440216064453125,-0.647053826212175,0.25900594190275295,-7.8200787081420415,-0.3175717516965524,-0.05633656680583954,-0.001455923542380333,5.911824581673741,0.002726912498474121
1746232196371197200,9.350197265625,0.03373780449548497,-0.027749191969633102,0.021421792376257128,0.037043217569589615,-0.02153502539773976,0.947399189497407,-0.034097966498434135,right,-0.0019332170486450195,-0.6492936114102007,0.26347952538654207,-7.806661008164286,-0.31860976834699384,-0.051517657935619354,-0.0056892819702625275,5.929334519401192,0.0005793571472167969
1746232196411197200,9.390197265625,0.03441472438266847,-0.016171209514141083,0.021910834853341492,0.021157605573534966,-0.02212427644753425,0.9471055617957048,-0.03509480237100472,right,-0.003664374351501465,-0.6510173061698759,0.2684118854884989,-7.796254764962196,-0.3194081288663228,-0.03603816032409668,-0.008045686408877373,5.942789628779888,0.00218808650970459
1746232196451197200,9.430197265625,0.03465693687753079,-0.007271839305758476,0.022122265252059056,0.006140115670859814,-0.022436220160666702,0.9469071168192837,-0.03565847207543706,right,-0.004226505756378174,-0.6522008693955407,0.2700563282272778,-7.789154577568173,-0.3199597533335366,-0.025682788342237473,-0.005536822602152824,5.95201864489615,0.0042272210121154785
1746232196491197200,9.470197265625,0.034482649707163235,-0.017871182411909103,0.02212738345920653,0.004026690497994423,-0.022656018590284432,0.9467459709994164,-0.03617070217051407,right,-0.003525972366333008,-0.6531817872006562,0.2684973535485565,-7.783363134685159,-0.3204205188532399,-0.02865665778517723,-0.0043294839560985565,5.9596606840819115,0.006009876728057861
1746232196531197200,9.510197265625,0.03379709690409243,-0.027149364352226257,0.02203000881329014,0.006992139853537083,-0.023205772414575086,0.9465976426478973,-0.037554897003317884,right,0.0012074112892150879,-0.6540537804866335,0.26298569572130215,-7.7783485213935375,-0.3208259239250081,-0.009515976533293724,-0.004802761599421501,5.9664493213087315,-0.0020404458045959473
1746232196571197200,9.550197265625,0.03334581418241927,-0.02074955590069294,0.022042640998560983,0.009353416040539742,-0.02379359624965106,0.9465059225245743,-0.03894479376850261,right,0.0009026527404785156,-0.6545532146023993,0.25937603559046984,-7.775487286743521,-0.3210523560626907,-0.011839265003800392,-0.004639262333512306,5.9703358073532575,-0.0016754865646362305
1746232196611197200,9.590197265625,0.03359022330586886,-0.005663086660206318,0.022260874326381623,0.02328481897711754,-0.02412388863512652,0.946373369879146,-0.03955213952774051,right,0.004675149917602539,-0.6553153279208993,0.26112355511123314,-7.770874239990115,-0.32140340422199815,-0.019113633781671524,-0.003379741683602333,5.97626344383657,-0.0032333731651306152
1746232196651197200,9.630197265625,0.03495878992824934,0.010918897576630116,0.0228792858122745,0.03801777586340904,-0.02424883863998851,0.9462561367169293,-0.0393444351232642,right,0.0027736425399780273,-0.6559623650583722,0.27162304782103747,-7.766642886030674,-0.32169544106444337,-0.01387096755206585,-0.0034285038709640503,5.981292670175433,-0.0017622113227844238
1746232196691197200,9.670197265625,0.03719597605787167,0.016078326851129532,0.02381831165151523,0.050141580402851105,-0.024252139828569733,0.9461713528077814,-0.03858579384190598,right,0.0007084012031555176,-0.6563832417613826,0.28890414522867647,-7.763499327307939,-0.3218763416193108,-0.010476399213075638,-0.0009790807962417603,5.984563070148229,0.0015476346015930176
1746232196731197200,9.710197265625,0.03965738826963025,0.0033119255676865578,0.024888171209599397,0.052627041935920715,-0.02436357467838379,0.9460485719466643,-0.0379757215342628,right,-0.0030665993690490723,-0.6570046742002589,0.307864902818948,-7.759047608596086,-0.32214788405433065,-0.018905457109212875,0.003421459347009659,5.989389467391371,0.005290985107421875
1746232196771197200,9.750197265625,0.041535167665469365,-0.015291140414774418,0.025818539083481234,0.047045350074768066,-0.024782015217661515,0.945895733367109,-0.03820980420710322,right,-0.0041811466217041016,-0.6577856471560775,0.32223983045630156,-7.753779897326231,-0.32249133615637593,-0.018869955092668533,0.005332712084054947,5.995452128431201,0.004549264907836914
1746232196811197200,9.790197265625,0.04261141177579801,-0.026554971933364868,0.02649774315599958,0.034059375524520874,-0.02544729924499438,0.9457502602475606,-0.03923887465621682,right,-0.004883766174316406,-0.6585181859087348,0.33039741794876754,-7.749038255757093,-0.32281088957352033,-0.016056319698691368,0.005949236452579498,6.001135434764623,0.001789689064025879
1746232196851197200,9.830197265625,0.04293884138611564,-0.025722429156303406,0.026893097064220405,0.023181919008493423,-0.026196230198223962,0.9456022903642772,-0.04069973419193074,right,-0.004916250705718994,-0.659289020592663,0.3327359804315492,-7.744305966538191,-0.32315173067694,-0.02094811573624611,0.0023616813123226166,6.007112171086669,-0.0007981061935424805
1746232196891197200,9.870197265625,0.04304830784033336,-0.013718748465180397,0.027138128194944836,0.015419762581586838,-0.026768436780704466,0.9454358713329583,-0.04185933168060111,right,-0.0003921985626220703,-0.6602112202537381,0.33334516183845697,-7.738731381276249,-0.32357076173474686,-0.014510100707411766,-0.002944743260741234,6.014257951188087,-0.010639309883117676
1746232196931197200,9.910197265625,0.044153066796103056,0.017721207812428474,0.02761644870689216,0.037237636744976044,-0.026815880369183503,0.9453815045195737,-0.0415776359881909,right,0.0007928013801574707,-0.6604763272591876,0.3418240171745419,-7.736765049639343,-0.3236851765895364,-0.004230567254126072,-0.002911854535341263,6.016311376586556,-0.005401670932769775
1746232196971197200,9.950197265625,0.04656345487309527,0.008779851719737053,0.028617854035354544,0.05802509933710098,-0.026801540570802758,0.9453328679537525,-0.040719394435263644,right,-0.0008151531219482422,-0.6606384194336266,0.36042620711810885,-7.73494484847486,-0.3237415565367168,-0.013399011455476284,-0.001911807805299759,6.017566929605603,0.003112316131591797
1746232197011197200,9.990197265625,0.048797948332223444,-0.018804648891091347,0.029706362893751736,0.0558941625058651,-0.027250035228609425,0.945150343762402,-0.04088725586535679,right,-0.005062997341156006,-0.6615478285049159,0.3774418950552121,-7.728651301288604,-0.3241388498181483,-0.029232218861579895,0.0008862428367137909,6.024606326723099,0.004990637302398682
1746232197051197200,10.030197265625,0.050149682794886755,-0.026719659566879272,0.03052378940419457,0.04345274716615677,-0.02797797277263931,0.9448869265945017,-0.04193898615842376,right,-0.005508005619049072,-0.6629524690809292,0.38746403431054205,-7.719674798628687,-0.3247682866384149,-0.03291083872318268,0.00312255322933197,6.0354690815210335,0.0039934515953063965
1746232197091197200,10.070197265625,0.05080489530360304,-0.012897292152047157,0.03099650041223922,0.018274791538715363,-0.028546604517475822,0.9446356657779257,-0.042892236901771824,right,-0.0033181309700012207,-0.6643487521768257,0.3920936303399503,-7.710995233088731,-0.3254042043196646,-0.031370531767606735,0.002460148185491562,6.04625584847331,0.00020396709442138672
1746232197131197200,10.110197265625,0.05150639319382802,0.01522732712328434,0.03129134696637492,-0.0007239934056997299,-0.028543573640137942,0.9444079966603037,-0.04261932266711968,right,-0.0058536529541015625,-0.6656992479736543,0.39708204974438993,-7.702556490567326,-0.32603646953473236,-0.03752558305859566,0.0003569796681404114,6.056677289244532,0.0009475350379943848
1746232197171197200,10.150197265625,0.05217759709148536,0.043107639998197556,0.03132739136483673,-0.018428195267915726,-0.02782832891640744,0.944149219882503,-0.040841155321542,right,-0.0024834275245666504,-0.6673688067297254,0.4017239937987178,-7.69217947345972,-0.32684339648223093,-0.05383346602320671,0.0011537037789821625,6.069545538645983,0.001143813133239746
1746232197211197200,10.190197265625,0.053436844243692945,0.06417534500360489,0.031427341946588264,-0.0168741624802351,-0.026596256249868215,0.9437363523788194,-0.03774188402697926,right,-0.0012347698211669922,-0.6700192886352796,0.41054936101753264,-7.675576129183173,-0.3281262849157198,-0.09222821891307831,0.0001329183578491211,6.089940091899037,0.0007804632186889648
1746232197251197200,10.230197265625,0.055213616047653576,0.1030498519539833,0.03152854267470426,-0.02321903221309185,-0.024772711332160694,0.9428381523000229,-0.033136912924696754,right,-0.000008225440979003906,-0.6756451401109371,0.4222890082478523,-7.640504231280088,-0.3308302466994226,-0.20578137040138245,-0.00030757486820220947,6.133086575186252,0.003638625144958496
1746232197291197200,10.270197265625,0.05997590400389299,0.15534360706806183,0.0325091129870548,0.04943707585334778,-0.022057465412858218,0.9410324465309793,-0.025428705009203127,right,0.009904205799102783,-0.6865338882825912,0.45464035861324514,-7.571293332409859,-0.33602773428955274,-0.3452070951461792,-0.000528428703546524,6.216044259858131,0.007474243640899658
1746232197331197200,10.310197265625,0.0680993829229027,0.1519974023103714,0.03484195692310206,0.05397649109363556,-0.019511475544667627,0.9387597312620422,-0.016710002019919328,right,0.004772007465362549,-0.6996400109794719,0.5105420959141105,-7.485423559683561,-0.3422508727905715,-0.2678714692592621,-0.020632531493902206,6.314916722020507,-0.006548285484313965
1746232197371197200,10.350197265625,0.07343890412973526,0.09918426722288132,0.03608235893689683,-0.011888660490512848,-0.017116046613990812,0.9377218724424073,-0.009454312353749902,right,0.012725412845611572,-0.7055082446136621,0.5477747520476579,-7.445504806271195,-0.34508401431945795,-0.01642709970474243,-0.011053159832954407,6.358835943245888,0.008908569812774658
1746232197411197200,10.390197265625,0.07344587658619987,-0.009578078985214233,0.03577330978022998,-0.02961684577167034,-0.016145692030138083,0.9384683752013867,-0.007532250285917467,right,0.01643514633178711,-0.7012653817082829,0.54980150863491,-7.4723407907485955,-0.3431281414847004,0.19284379482269287,0.006707165390253067,6.327102834376692,0.03016185760498047
1746232197451197200,10.430197265625,0.07025759451700282,-0.0983876958489418,0.034998335452150704,-0.0013759657740592957,-0.01733999338566486,0.9401009784129007,-0.011555186200956597,right,0.0050141215324401855,-0.6918287449402588,0.5301426857778803,-7.53328128940165,-0.33865127369613907,0.2605617940425873,0.01590517908334732,6.2561179115712635,0.028042495250701904
1746232197491197200,10.470197265625,0.06646958940732525,-0.10798329859972,0.03433559799764021,0.00794849544763565,-0.019644818436142335,0.9415913188494982,-0.018087630020183373,right,-0.006434917449951172,-0.6830155476309988,0.5052455238759518,-7.589956531825662,-0.3344263712286011,0.1876414716243744,0.01338314637541771,6.18931933453977,0.009631812572479248
1746232197531197200,10.510197265625,0.06428830194321479,-0.045403361320495605,0.034075951855866565,0.028712008148431778,-0.021385575606019613,0.9422715942574453,-0.022676098619154057,right,-0.0066947340965271,-0.6788844679610939,0.49032691781595344,-7.616491487529873,-0.332424197974217,0.02444298565387726,0.015896867960691452,6.157842246258259,-0.0064994096755981445
1746232197571197200,10.550197265625,0.0664737392864039,0.01735498011112213,0.03514928867966938,0.0863603800535202,-0.021927402120369997,0.9415859590703922,-0.022942501418158016,right,-0.005733191967010498,-0.6827462490449552,0.505387745358236,-7.591617158514261,-0.3342151543854847,-0.1806473284959793,0.003660924732685089,6.187270585316419,-0.040289342403411865
1746232197611197200,10.590197265625,0.07226383811334541,0.06425691395998001,0.037329591855127,0.05621279776096344,-0.02148204380629954,0.9404400691872024,-0.019732683706569255,right,-0.01606220006942749,-0.6891421334113368,0.546466811254248,-7.548939461782574,-0.3372205793950191,-0.11397010087966919,-0.012319818139076233,6.235806360426545,-0.058498382568359375
1746232197651197200,10.630197265625,0.07393426819009126,0.06035035848617554,0.03763492232905557,-0.05954418331384659,-0.020383971618139242,0.9407473924589101,-0.01686057881044604,right,-0.008948266506195068,-0.6873128125563959,0.5599176828492433,-7.559379022732377,-0.3363964176762815,0.20059260725975037,0.007837090641260147,6.221950269031525,-0.02615445852279663
1746232197691197200,10.670197265625,0.07019868823089334,-0.04663693904876709,0.03600796830062352,-0.08374108374118805,-0.019932152311140743,0.9423843797528504,-0.017537229968176582,right,-0.010013580322265625,-0.6779036698524515,0.5357578587785363,-7.61948131699562,-0.3319909451282745,0.19936226308345795,0.025720003992319107,6.150353936329483,0.054250895977020264
1746232197731197200,10.710197265625,0.06568553967458886,-0.11178575456142426,0.034700641642246795,0.012870199978351593,-0.021443995899585542,0.9431781503051119,-0.022469018854095836,right,-0.0011747479438781738,-0.6732887575107901,0.5032223840178921,-7.650062917742133,-0.32977448771414397,0.020213425159454346,0.011356249451637268,6.1150382927984,0.04315841197967529
1746232197771197200,10.750197265625,0.06315496578236199,-0.1342642903327942,0.03456647837710496,0.05313131958246231,-0.02408013958579575,0.9426596700560216,-0.02886532224320727,right,0.008473575115203857,-0.6762445011441699,0.4827188904976472,-7.633239793235063,-0.33108645242561063,-0.10424277186393738,-0.012382164597511292,6.137672149410843,-0.00968623161315918
1746232197811197200,10.790197265625,0.06203010508946733,-0.07234124839305878,0.03493119581674991,0.0335480272769928,-0.02645300774691278,0.9420914106488336,-0.03421675604089635,right,-0.004115164279937744,-0.6793716797970332,0.4729401315441355,-7.614584192603826,-0.3324816773693829,-0.01731223613023758,-0.029063794761896133,6.161560389998555,-0.035117268562316895
1746232197851197200,10.830197265625,0.06078287737106006,-0.012591294944286346,0.03464398155513273,-0.018109336495399475,-0.027095309005756584,0.9422174688712426,-0.03603906318068218,right,-0.007938683032989502,-0.6785984228129969,0.46373190248757595,-7.619920877456664,-0.3321023120936506,0.0312681682407856,-0.009749054908752441,6.155659057000279,-0.001174628734588623
1746232197891197200,10.870197265625,0.06049096370472827,0.022849924862384796,0.03450447140624121,0.013306912034749985,-0.02703978753592694,0.9423879837947536,-0.03604787910973239,right,-0.006463170051574707,-0.6776040547885388,0.46187736066207286,-7.626162402194738,-0.331637405695191,-0.005703974515199661,-0.0048643238842487335,6.148064948609471,0.006912529468536377
1746232197931197200,10.910197265625,0.06238835787252872,0.04847405105829239,0.035070851697604634,0.005180863663554192,-0.02642828620880465,0.9421659782373007,-0.03404972999533537,right,-0.011610805988311768,-0.6788992766793078,0.47584944311957805,-7.61731800148189,-0.3322572881504746,-0.06678173691034317,-0.011573821306228638,6.157955643504858,0.006291508674621582
1746232197971197200,10.950197265625,0.06404689130818565,0.07143918424844742,0.03530562954290872,-0.02423044480383396,-0.02517591731090928,0.9416709125962751,-0.030725317501106162,right,-0.011203765869140625,-0.681946232966374,0.4872792206831276,-7.597758730009198,-0.33372989343555187,-0.09351615607738495,-0.012914400547742844,6.181181620791554,0.008813977241516113
1746232198011197200,10.990197265625,0.06537303720586633,0.07563289254903793,0.03521872343442942,-0.03566254675388336,-0.023435843635920453,0.9410093679910035,-0.026444528250782598,right,-0.0021852850914001465,-0.6860593949349542,0.49568943122979253,-7.571671518072486,-0.3357258346465534,-0.11062680929899216,-0.008899006992578506,6.212444189539552,0.01550912857055664
1746232198051197200,11.030197265625,0.06578020197366491,0.06898201256990433,0.03474077233621771,-0.064633809030056,-0.021685727979546005,0.9403633865553838,-0.022462676884690478,right,0.004244625568389893,-0.6901113821813354,0.49711350921615954,-7.546288655012845,-0.3376972841243638,-0.09241479635238647,-0.010864511132240295,6.243139187532663,0.014655649662017822
1746232198091197200,11.070197265625,0.06471685918616611,0.05558431148529053,0.033645979714880446,-0.0870114341378212,-0.01989507654401766,0.9399535551780825,-0.01895692475202774,right,0.011166393756866455,-0.692851381139747,0.48798082961384204,-7.529713952308893,-0.3390566085671282,-0.05193580314517021,-0.008494138717651367,6.263837692168354,0.011966884136199951
1746232198131197200,11.110197265625,0.0626676028185635,0.03298971429467201,0.03228166736604328,-0.07323679327964783,-0.01846114282566857,0.9397576605127705,-0.016603126998488232,right,0.01510399580001831,-0.694335263106056,0.47196686606518923,-7.521413156953454,-0.33981251674988017,-0.030605565756559372,-0.003258451819419861,6.275027194702625,0.011104226112365723
1746232198171197200,11.150197265625,0.061142003182560786,0.02302253618836403,0.03132636514120291,-0.04036969691514969,-0.017564278781381695,0.9395839166962247,-0.015211713817613803,right,0.011459946632385254,-0.6955719748761932,0.4600171562807634,-7.514373175314068,-0.3404295139511149,-0.03480206057429314,-0.003372345119714737,6.28434272005856,0.003408372402191162
1746232198211197200,11.190197265625,0.06105128506674254,0.042985327541828156,0.030995405862384393,-0.01549852266907692,-0.016783457771171413,0.9393233742627614,-0.013537072046721358,right,0.0057716965675354,-0.6971912680772707,0.4587139647277072,-7.504247502619028,-0.34121715145242887,-0.04661998152732849,-0.007369320839643478,6.296525325283408,0.000021457672119140625
1746232198251197200,11.230197265625,0.0628951791976117,0.07230124622583389,0.031284653124603476,0.000706186518073082,-0.015561207906129358,0.9389287786903822,-0.01019683774252895,right,0.004270672798156738,-0.69948818921454,0.4716399356657639,-7.488935367196798,-0.3423329378141007,-0.06738238781690598,-0.006682675331830978,6.313777488857507,0.003438293933868408
1746232198291197200,11.270197265625,0.06629357493147763,0.09044673293828964,0.03206605003784831,0.022233707830309868,-0.013973138159115314,0.9385138255797496,-0.005500755295747893,right,0.006563842296600342,-0.7017954526634568,0.49612117371056225,-7.4727341739803546,-0.3434652435637528,-0.04918387532234192,-0.0007465705275535583,6.331073491573333,0.0055114030838012695
1746232198331197200,11.310197265625,0.07048358899189255,0.08349055796861649,0.03321158574046079,0.0393739715218544,-0.012493526688326899,0.9382500435606971,-0.0007677625952475054,right,0.007275104522705078,-0.7031138378521022,0.5268392968509346,-7.462257203629613,-0.34413336804440425,-0.02786281146109104,0.0027505457401275635,6.340941974636912,0.012020885944366455
1746232198371197200,11.350197265625,0.07463381839304897,0.06370515376329422,0.03446359260141314,0.03955201059579849,-0.01134634566092516,0.9380511151882854,0.0032336345113247746,right,0.0032439231872558594,-0.7040003721677247,0.5573853878926486,-7.454397722300887,-0.3445921526267854,-0.02594411000609398,0.004657965153455734,6.347571037387848,0.01397782564163208
1746232198411197200,11.390197265625,0.07794949727440179,0.037959106266498566,0.03553835688540568,0.03206755965948105,-0.010641792698159614,0.937875013718949,0.005984917628541889,right,0.00018149614334106445,-0.7047735980067116,0.5817163307465613,-7.447613761249184,-0.34498466716564885,-0.0191279835999012,0.004997242242097855,6.353349620789289,0.012614130973815918
1746232198451197200,11.430197265625,0.07994551256027446,0.009948654100298882,0.036262441710877884,0.024394527077674866,-0.01042475695852242,0.9377860831813568,0.007196231602717481,right,-0.001349806785583496,-0.7051185447473108,0.59640565809533,-7.4442527603834865,-0.34515763635120755,0.0022689029574394226,0.004001200199127197,6.355925608757138,0.006976902484893799
1746232198491197200,11.470197265625,0.08089320311850558,-0.015500063076615334,0.03673958569986036,0.025087393820285797,-0.010656983769635663,0.937849586524308,0.007029971950387343,right,-0.0025643110275268555,-0.704644558557056,0.6037035600185394,-7.446685540488362,-0.34492738668108097,0.02221478521823883,0.0026076287031173706,6.352385159671306,0.0037543177604675293
1746232198531197200,11.510197265625,0.08097340189516061,-0.029541272670030594,0.03700414076487105,0.025054482743144035,-0.011248823429393697,0.9380008634104972,0.005758793396606992,right,-0.0004310011863708496,-0.7037172606122893,0.6047769979363307,-7.452505624943972,-0.344468681554905,0.02817113883793354,0.001967012882232666,6.345454483625292,-0.0017145872116088867
1746232198571197200,11.550197265625,0.08049512105862436,-0.04030841216444969,0.03709925371893158,0.012617815285921097,-0.012009416233922997,0.9381129955638562,0.003934291517228143,right,-0.006077229976654053,-0.7030553039624509,0.6015501448443159,-7.456978970965743,-0.34412721304103094,0.007277797907590866,0.0005242936313152313,6.340504167741536,-0.001107931137084961
1746232198611197200,11.590197265625,0.0793557425996266,-0.04154108837246895,0.03691765127394202,0.0018341010436415672,-0.012786968909292457,0.9380691748350799,0.0018707980130737065,right,-0.00656658411026001,-0.7033583021060417,0.592901120573096,-7.455743876212835,-0.3442382013730777,-0.01370304450392723,0.00035353749990463257,6.342770359107852,-0.0031844377517700195
1746232198651197200,11.630197265625,0.07776309557813153,-0.03811757639050484,0.03652348222220908,-0.008170505054295063,-0.013500502336859087,0.9379612510335994,-0.00020700795421082265,right,-0.003096342086791992,-0.7040757630142603,0.5806723381189629,-7.4521402987629175,-0.344547001203259,-0.014037410728633404,-0.002079017460346222,6.348135101011395,-0.005171000957489014
1746232198691197200,11.670197265625,0.07618393517159815,-0.024190377444028854,0.036046703463273065,-0.013358954340219498,-0.013972848490972781,0.9378484047171596,-0.0017655711107826993,right,-0.003783702850341797,-0.704834378335418,0.5685367869062349,-7.448243875846266,-0.34488533955451517,-0.025052394717931747,-0.004021439701318741,6.353803209775686,-0.0014553070068359375
1746232198731197200,11.710197265625,0.0751354325670102,-0.01754041388630867,0.03566647256509482,-0.015317962504923344,-0.01413932322462877,0.9376342981828897,-0.0024571084669392936,right,-0.004709839820861816,-0.7061553002359223,0.5600964734822511,-7.44045979784131,-0.34549967325310105,-0.040778789669275284,-0.006026852875947952,6.363665263098478,-0.0006158351898193359
1746232198771197200,11.750197265625,0.07402156104290572,-0.027578365057706833,0.03530073839454889,-0.0023820949718356133,-0.014437360434158952,0.9372941825117367,-0.003429037410001672,right,-0.0018100142478942871,-0.7081948961939826,0.5508474009586498,-7.428119956228136,-0.3464464524793596,-0.059661924839019775,-0.006122972816228867,6.378870431014895,-0.0025121569633483887
1746232198811197200,11.790197265625,0.07294400217700595,-0.023004911839962006,0.035031856411588964,-0.004842016380280256,-0.014956089514857012,0.9369266642765393,-0.004857089255285006,right,-0.002880990505218506,-0.7103613225973695,0.5418344387458637,-7.4149091769993305,-0.34744440915799557,-0.027102995663881302,-0.007010113447904587,6.394992129254341,-0.013905346393585205
1746232198851197200,11.830197265625,0.07183081908281584,-0.018973954021930695,0.03467783977885052,-0.010522492229938507,-0.015203316843925325,0.9370037679001841,-0.005810640173052373,right,0.004364311695098877,-0.7099880066761047,0.5337512681964784,-7.417888485071063,-0.347261271308533,0.0351652055978775,0.0016332007944583893,6.392216234800219,0.012173235416412354
1746232198891197200,11.870197265625,0.07151600542807222,0.014325439929962158,0.03456167143233803,0.0019622808322310448,-0.015187459001378176,0.9372795479488086,-0.005947691596124126,right,0.00009107589721679688,-0.7084242899722488,0.5321295487461611,-7.428017080375552,-0.34652852363131414,0.05197669193148613,0.0008184760808944702,6.380578988498449,0.004806160926818848
1746232198931197200,11.910197265625,0.07247446837386404,0.047200169414281845,0.03473889387382359,-0.010331173427402973,-0.014536302548154278,0.9377332339751051,-0.004297741476116216,right,-0.011731743812561035,-0.7057773053951144,0.5404698723943904,-7.4443229030102485,-0.34530912676710845,0.08463942259550095,-0.0025989189743995667,6.3608443604588505,0.0002605319023132324
1746232198971197200,11.950197265625,0.07253039500899844,0.03300917148590088,0.034446188481504394,-0.04356025159358978,-0.013578388158694681,0.9382877217507629,-0.002346836944420886,right,-0.010307073593139648,-0.7026341173965417,0.5423323783306404,-7.464196647259593,-0.3438682355367724,0.07154814153909683,-0.0024322867393493652,6.337352425712346,0.0014818310737609863
1746232199011197200,11.990197265625,0.07154133854531891,0.04802514240145683,0.0336677449606115,-0.049399830400943756,-0.012448549192732687,0.9388428714888252,-0.00041049358283769125,right,0.0010785460472106934,-0.6995707453088817,0.5363347818836569,-7.484058116549253,-0.34247002675794774,0.058962322771549225,0.0029474012553691864,6.314396497538685,0.0036705732345581055
1746232199051197200,12.030197265625,0.0712615109521094,0.05450785532593727,0.03312029319330599,-0.0378875806927681,-0.011181335048535279,0.939247010261901,0.0021058564403161574,right,0.000895380973815918,-0.6973212532018422,0.5352505303109064,-7.498357275536656,-0.34145751574370403,0.024563167244195938,0.006489798426628113,6.297502061361074,0.019607186317443848
1746232199091197200,12.070197265625,0.07218369073531185,0.0459156334400177,0.03317846832865546,-0.010775983333587646,-0.010284466455200082,0.9393501564612222,0.004327864448282646,right,0.006624817848205566,-0.6966972736078714,0.5424484424583613,-7.5017784821569915,-0.341196338603613,0.01099596731364727,0.005223788321018219,6.29281010415256,0.007429003715515137
1746232199131197200,12.110197265625,0.07304606610093456,0.0204765684902668,0.03332853308465766,-0.0080485250800848,-0.009756363775860569,0.9392249437401071,0.005791555421376844,right,0.006831169128417969,-0.6973899511322664,0.5485993297709152,-7.496958514654636,-0.3415416580399634,-0.0397588387131691,0.005974713712930679,6.298018778711557,0.008701443672180176
1746232199171197200,12.150197265625,0.07386760522313601,0.0006749294698238373,0.033582250059493765,0.010592782869935036,-0.009632486294519623,0.9387849487024946,0.00644982675259524,right,-0.0015265941619873047,-0.6999015077590459,0.5535890643496066,-7.48070705255568,-0.3427277955694915,-0.06949365884065628,0.0013744719326496124,6.316878377482294,0.0033153891563415527
1746232199211197200,12.190197265625,0.07349781691174902,-0.008355414494872093,0.03338607845639373,-0.03375905007123947,-0.00959905802835684,0.9383899465398151,0.006474807854054308,right,-0.01039189100265503,-0.7022411937456337,0.5497359691180288,-7.4661507039368145,-0.3438278937045265,-0.044571295380592346,-0.0015036948025226593,6.334411111563444,0.006152451038360596
1746232199251197200,12.230197265625,0.07109332286488579,-0.01700296252965927,0.03233862430101537,-0.06252078711986542,-0.009429857041037342,0.9383187088666582,0.005977540618694794,right,-0.0080491304397583,-0.7028719904366149,0.5314981555074453,-7.463464241331815,-0.3441270772376177,0.003910858184099197,-0.000055067241191864014,6.339132294866443,0.006575286388397217
1746232199291197200,12.270197265625,0.06801116735886277,-0.014722388237714767,0.031101209766538556,-0.04482649266719818,-0.009452976318285565,0.9384371351472711,0.004782663427980791,right,-0.0037789344787597656,-0.702434810138518,0.5086803936954587,-7.467831204369664,-0.3439175620711851,0.018137048929929733,0.005264461040496826,6.335860725849867,0.0041168928146362305
1746232199331197200,12.310197265625,0.06657508752114863,0.01001758873462677,0.030427897994635047,-0.025617025792598724,-0.0091859273783502,0.9385659316737864,0.004804290937923774,right,-0.008201658725738525,-0.7018143085798547,0.4982169038807973,-7.472475230783224,-0.34363343439056554,-0.0024167075753211975,0.0002592839300632477,6.331214945870638,0.008877396583557129
1746232199371197200,12.350197265625,0.06618658705321842,-0.015264924615621567,0.030237186410549594,-0.0016559753566980362,-0.009116685391783973,0.9384704148480953,0.00482968263328758,right,-0.005224704742431641,-0.7024052427855114,0.4950662943627685,-7.4689341971755026,-0.3439128805297862,-0.01461656205356121,-0.0014751479029655457,6.335639192053676,0.008732259273529053
1746232199411197200,12.390197265625,0.06508960750982874,-0.054898083209991455,0.02998884649870796,0.0008324792142957449,-0.009665843232103868,0.9384232151389377,0.0032682482109082493,right,-0.0011047124862670898,-0.7027331992167409,0.4867375515544787,-7.4673986581712954,-0.34404839897066064,0.0071853287518024445,-0.0014900751411914825,6.338093599468469,0.008413136005401611
1746232199451197200,12.430197265625,0.062041760584571025,-0.07731077820062637,0.02919126989182882,-0.02329915389418602,-0.0108586895053779,0.9384988953380061,-0.00040018056476806893,right,0.0023146867752075195,-0.7024458803544749,0.46408871656861156,-7.470664966490864,-0.3438749455253568,0.018009155988693237,-0.0012795552611351013,6.335943727958202,0.004647314548492432
1746232199491197200,12.470197265625,0.05882445825719982,-0.030589424073696136,0.0282710174037457,-0.0174037367105484,-0.011886739839631377,0.9387174039926837,-0.0038018125914536186,right,0.010735929012298584,-0.7013303706107464,0.440466214244999,-7.479169759985804,-0.3433208637712605,0.04365895688533783,0.00235183909535408,6.327589741110802,0.00028628110885620117
1746232199531197200,12.510197265625,0.05788880538817892,0.025502637028694153,0.027904931832839232,-0.03598888963460922,-0.011871222733349424,0.9391171501341705,-0.004174892910793444,right,0.007155954837799072,-0.6990627888663284,0.43429717022124675,-7.493883929514885,-0.342256583423085,0.07715101540088654,-0.003966331481933594,6.3105848302960394,-0.005681633949279785
1746232199571197200,12.550197265625,0.05680706055959778,0.05649759620428085,0.027102606701221662,-0.07581707090139389,-0.010779816375575018,0.9398171298442155,-0.002355509014163992,right,0.0034029483795166016,-0.6951096239056361,0.4276034812688827,-7.519197234469652,-0.34043075517713395,0.12337903678417206,-0.006655361503362656,6.280861307683587,-0.0019576549530029297
1746232199611197200,12.590197265625,0.05532013973616677,0.07653294503688812,0.02588993335759944,-0.08703263103961945,-0.008968027520709871,0.9407460134812468,0.0008148027537065005,right,0.0027997493743896484,-0.689841521622577,0.41824627219568933,-7.552757558766007,-0.33800333779195113,0.1167442798614502,-0.005171123892068863,6.241098037093877,0.012235879898071289
1746232199651197200,12.630197265625,0.05441613520061422,0.068247951567173,0.024910901845190396,-0.06168566644191742,-0.00717915001787723,0.9413283683607896,0.004200570364240401,right,0.0006018280982971191,-0.6865362749547647,0.41253808714933693,-7.573688703113794,-0.33649485563509157,0.05025696009397507,-0.003763429820537567,6.216062380036711,0.0098533034324646
1746232199691197200,12.670197265625,0.05455787563874894,0.03403356298804283,0.024518212709375032,-0.020646534860134125,-0.005888465559555692,0.9414960647782432,0.006966261055348227,right,0.0005636215209960938,-0.6855818958776251,0.41393491180259734,-7.579550288623571,-0.3360793581630099,-0.0005139261484146118,-0.003087833523750305,6.208820738345384,0.01088029146194458
1746232199731197200,12.710197265625,0.05455954442808137,-0.015419859439134598,0.024381329521550324,0.015415985137224197,-0.005529145714764189,0.9413590560352553,0.007753903316392694,right,0.0017408132553100586,-0.6864103980980244,0.4136668719835579,-7.574410587647557,-0.33647894559090696,-0.0390058271586895,-0.0010950155556201935,6.2151072712689635,0.0086137056350708
1746232199771197200,12.750197265625,0.054473079023370334,-0.05218510702252388,0.02463767799583963,0.03467174619436264,-0.006404794975461419,0.9410232969520289,0.005918280839560666,right,-0.0008779168128967285,-0.6883781099411743,0.41234530452359464,-7.562220383638143,-0.3373826518513874,-0.05435400456190109,-0.0023745112121105194,6.230021931806206,0.004361391067504883
1746232199811197200,12.790197265625,0.054098166438095216,-0.05081647261977196,0.024903433950701305,0.029597362503409386,-0.007637111982273165,0.9406412517279742,0.003226482014713102,right,-0.000691533088684082,-0.6906119841342746,0.40875655931662763,-7.548458984789252,-0.33840142111604854,-0.04421226680278778,-0.004167776554822922,6.246924551290273,0.0014338493347167969
1746232199851197200,12.830197265625,0.05388038960380467,-0.00999242439866066,0.02497815192683342,0.02166718989610672,-0.008125413645051247,0.9404338898878255,0.0021431250914741434,right,0.0034290552139282227,-0.6918275303547596,0.40670342617910354,-7.540960153466463,-0.33896039114951015,-0.014525456354022026,-0.004699841141700745,6.256108559221029,-0.00189894437789917
1746232199891197200,12.870197265625,0.05350239468044783,0.011964038014411926,0.0248083706012019,-0.032196301966905594,-0.008093660981619755,0.9403734282066775,0.0020848057159784964,right,-0.0098305344581604,-0.6922106013411093,0.4037247756944969,-7.538719681063294,-0.3391413149250142,0.0028436705470085144,-0.009856563061475754,6.259001358053088,0.0002619624137878418
1746232199931197200,12.910197265625,0.0520944128949177,0.022437628358602524,0.024020286055439155,-0.05062009021639824,-0.0074957232213797775,0.9404550065138669,0.0028390777538802024,right,-0.007838666439056396,-0.6918481689579744,0.39322811426259574,-7.541545259878039,-0.33898558888381,0.022245146334171295,-0.005726534873247147,6.256264626565575,0.002158522605895996
1746232199971197200,12.950197265625,0.051157520375274296,0.012715743854641914,0.023426870044949203,-0.025332506746053696,-0.006884483252775829,0.940648455269913,0.0037734800073989778,right,-0.005056917667388916,-0.6907911600160569,0.38650023077968504,-7.548510422715545,-0.3385029734519862,0.016417697072029114,-0.0039734505116939545,6.248278888508677,0.005213439464569092
1746232200011197200,12.990197265625,0.050858716039050754,0.019529050216078758,0.023176543853797422,-0.0075749922543764114,-0.006508455735343791,0.9407807681389445,0.004445815240603951,right,-0.0018314123153686523,-0.6900424851051721,0.38448238815125074,-7.553295318904518,-0.3381596874873811,0.011937188915908337,-0.0048238299787044525,6.242618378528952,0.0022054314613342285
1746232200051197200,13.030197265625,0.05143008715553233,0.019330715760588646,0.02327290766873975,0.0017745699733495712,-0.006117195245239262,0.940826796171561,0.0054751748259251045,right,0.00244981050491333,-0.689750534919255,0.3888917655587196,-7.554894570794701,-0.33803248175743367,0.010192876681685448,-0.0045727938413619995,6.240410054829717,-0.0010076165199279785
1746232200091197200,13.070197265625,0.05186654122961911,0.03002804145216942,0.023249823364799013,-0.022147245705127716,-0.005523453587650124,0.9410082300519034,0.006864799998280973,right,0.00042557716369628906,-0.6886699968666723,0.3925384514980018,-7.561454075440764,-0.33753903578738914,0.0335376113653183,-0.00716148316860199,6.232232009071112,0.00007653236389160156
1746232200131197200,13.110197265625,0.05181887168973159,0.01563713327050209,0.023059512885921264,-0.011472898535430431,-0.005020209192949399,0.9411630839262886,0.007892705431367152,right,0.005436897277832031,-0.6877706419250617,0.39246816274076696,-7.567066654625535,-0.3371279122552684,0.019619949162006378,-0.00025080516934394836,6.225419990968704,0.009000539779663086
1746232200171197200,13.150197265625,0.05189196143178697,0.003705853596329689,0.023057788220391097,-0.002535169944167137,-0.004910213423949489,0.9412816762794485,0.008133289456255036,right,0.0015436410903930664,-0.6870649854307459,0.3932489743875339,-7.571423680791258,-0.33679843354783207,0.015521000139415264,-0.0019018463790416718,6.220071615678072,0.01049727201461792
