time,seconds_elapsed,roll,rotationRateZ,quaternionY,rotationRateY,quaternionZ,quaternionW,yaw,devicelocation,accelerationZ,pitch,gravityX,gravityZ,quaternionX,rotationRateX,accelerationX,gravityY,accelerationY
1746232046654989600,0.210989501953125,-0.9763140184857653,-0.02896835282444954,-0.4556944004005763,0.007204262539744377,4.0186535532086854e-17,0.8777307338478025,-0.1402350009697249,right,-0.29893529415130615,-0.26299181102750985,-7.844868866005539,-5.303656443461776,-0.1480924862219105,-0.009747756645083427,0.8142115473747253,2.5494413217067717,0.2882004380226135
1746232046694989600,0.250989501953125,0.019819698179414445,-0.024334870278835297,-0.048216315933212156,0.012675751000642776,0.1906997090002203,0.9393275045895305,0.40648296975789994,right,-0.0039095282554626465,-0.5779768620391325,0.1627830809337087,-8.212139166864752,-0.28102065554205785,-0.018785174936056137,-0.004883328452706337,5.357672695809603,0.0028709769248962402
1746232046734989300,0.2909892578125,0.019701247746852016,-0.00565784377977252,-0.0481930014999768,0.013444575481116772,0.19031428718270804,0.9393504887189364,0.4056541327005004,right,-0.0030121803283691406,-0.578360022407505,0.1617698853031732,-8.210105030688643,-0.2812090871996249,0.0024919910356402397,-0.006647896952927113,5.360819177141785,0.0019210577011108398
1746232046774989300,0.3309892578125,0.01641913314206614,-0.004876852035522461,-0.04930939276297921,0.024304673075675964,0.18975272574143112,0.9396393861044995,0.4033995981651422,right,0.00007921457290649414,-0.5772443301944481,0.13492067601801827,-8.216566920179128,-0.2804286774820538,0.032387007027864456,-0.0021085841581225395,5.351654458433389,0.00022238492965698242
1746232046814989600,0.370989501953125,0.013142394166440552,-0.004095860291272402,-0.050425679840371676,0.03516477346420288,0.18919074257733692,0.9399261719879197,0.40115108894109064,right,0.0031641125679016113,-0.5761224235498996,0.10807528439145535,-8.222963343217968,-0.27964761975842894,0.0622820183634758,0.0024303169921040535,5.342431287536025,-0.0014704465866088867
1746232046854989600,0.410989501953125,0.013511328814294692,-0.01914229616522789,-0.04991666906377604,0.0402473546564579,0.18853982868941088,0.9402716864484548,0.3997764899358774,right,0.002285778522491455,-0.5746310192781413,0.11121654155924916,-8.230880692213773,-0.2790164560853078,0.05877058953046799,0.009050080552697182,5.330161004027724,0.0026084184646606445
1746232046894989600,0.450989501953125,0.014441740726505775,-0.03302151337265968,-0.04928760271833019,0.01830122619867325,0.18787811902789042,0.9404475499734216,0.3986237850300637,right,-0.0009323358535766602,-0.5743102986975794,0.11889928721473551,-8.232482866713404,-0.27898193003552685,0.04577422887086868,0.009524788707494736,5.32752071865201,-0.0006726980209350586
1746232046934989600,0.490989501953125,0.014998687694316398,-0.03327973559498787,-0.04879458935274707,-0.015383284538984299,0.1872994634054494,0.9406744387921339,0.397505967131171,right,-0.0043697357177734375,-0.5735251684174592,0.12354702168903313,-8.23659497820735,-0.2786926645063998,0.03765106201171875,0.008329096250236034,5.321054737508296,-0.004204869270324707
1746232046974989300,0.5309892578125,0.014960183922803232,-0.03513464331626892,-0.04858521557696125,-0.03791259229183197,0.18693090927445472,0.9409082665041048,0.3966367870523295,right,-0.00543743371963501,-0.572411784420899,0.12331842796439305,-8.242518523037432,-0.2781869511450733,0.018459806218743324,0.005985574796795845,5.3118794974058865,-0.004258871078491211
1746232047014989300,0.5709892578125,0.014019853718055893,-0.014912951737642288,-0.04889304222505922,-0.07511800527572632,0.1870309793500265,0.9410637970334325,0.3964923065530048,right,-0.006879925727844238,-0.5712124873533123,0.11565691689318046,-8.24899444105327,-0.27753879206210713,0.03366277366876602,0.002461428754031658,5.301989387032389,-0.006988584995269775
1746232047054989600,0.610989501953125,0.013080460957995348,0.0053087398409843445,-0.04920083153665715,-0.11232341825962067,0.18713092141470167,0.941218838268779,0.3963492373670274,right,-0.00832432508468628,-0.5700131088436434,0.1079909123099409,-8.255452238890529,-0.27689049026840495,0.04886574670672417,-0.001062285155057907,5.292091093352437,-0.00971752405166626
1746232047094989600,0.650989501953125,0.009818936306172973,-0.00795255322009325,-0.050509845155017434,-0.09596371650695801,0.18788875258948579,0.9415102902157816,0.39680752692846155,right,-0.0001698136329650879,-0.5669777124872192,0.08122238531187176,-8.27178553405404,-0.27514550984235525,0.05500147491693497,-0.004247208125889301,5.267006336456537,-0.00965738296508789
1746232047134989600,0.690989501953125,0.006735769649651153,-0.006318328902125359,-0.051711668757302695,-0.08156095445156097,0.1883610934277052,0.9417839003133902,0.39675306239210506,right,0.001993536949157715,-0.5644321057337197,0.05580887595221866,-8.285377421554923,-0.27365893575206524,0.044556550681591034,-0.006911042146384716,5.2459313997238874,-0.0035033822059631348
1746232047174989600,0.730989501953125,0.003916847490616576,-0.003849726403132081,-0.052802886840394594,-0.049998939037323,0.1886772115925631,0.9420210533994894,0.3964797477651118,right,0.0006989836692810059,-0.5623366351975039,0.03249583458671113,-8.296476323196291,-0.27241379976232094,0.03114425763487816,-0.009705414064228535,5.228557655596733,-0.0009143352508544922
1746232047214989300,0.7709892578125,0.0017264310249148764,-0.00047201383858919144,-0.05363734992599944,-0.01259922981262207,0.18883042867518193,0.9422055477623698,0.3960829398228492,right,0.0023671388626098633,-0.5608234024198677,0.014336676844552858,-8.304429912549256,-0.27150494036935,0.026948243379592896,-0.00838980171829462,5.215996864709258,-0.000568389892578125
1746232047254989300,0.8109892578125,0.0012835846128330405,0.0001099415821954608,-0.05374687869024583,0.01671525649726391,0.1887454730486305,0.9423016174973192,0.39574238320753424,right,0.001744389533996582,-0.5602642097388402,0.010662831186997936,-8.30735076843202,-0.27120884802290435,0.017320159822702408,-0.007420383393764496,5.211352253773808,-0.0013331770896911621
1746232047294989300,0.8509892578125,0.0008410932724128129,0.0006918970611877739,-0.05385642784174466,0.04602974280714989,0.1886605261938537,0.9423975542412,0.3954022961626374,right,0.0011213421821594238,-0.5597049482529645,0.006989349143157597,-8.310268117183446,-0.2709127503426725,0.007692073471844196,-0.006451012566685677,5.20670588927269,-0.0020978450775146484
1746232047334989600,0.890989501953125,0.002571760367798147,0.01157456822693348,-0.053075597294047684,0.05353456735610962,0.18836428656624948,0.9423839187412089,0.3953013053405244,right,-0.006117403507232666,-0.5602162570583126,0.021364788807986767,-8.307579901012778,-0.27131952603918996,-0.017801828682422638,-0.004543537739664316,5.2109541943669315,0.0008423328399658203
1746232047374989600,0.930989501953125,0.004022276866830045,0.010187196545302868,-0.052451903688800115,0.05669225752353668,0.18821517026369847,0.942349479844934,0.3954293112005713,right,-0.0043906569480896,-0.5606644650647594,0.033405645191296934,-8.305203819531203,-0.27166384394673326,-0.010830670595169067,-0.00026655523106455803,5.214677014282345,-0.000003039836883544922
1746232047414989600,0.970989501953125,0.006069488750855778,0.008173178881406784,-0.051510098030081344,0.05497055873274803,0.1880229458255552,0.9423882254652964,0.39561054889502556,right,-0.005637168884277344,-0.5606452604905183,0.05040868370938115,-8.305217848056554,-0.2718426509165629,0.002261730842292309,0.0015130224637687206,5.214517439806461,-0.0015022754669189453
1746232047454989300,1.0109892578125,0.00795940765119762,0.0003587314859032631,-0.05060826959793253,0.03276999294757843,0.18783867129974977,0.9424660169253669,0.39574556551991275,right,-0.008834779262542725,-0.5603331609805048,0.0661177231944399,-8.306734682360291,-0.27186978168986875,0.00204080855473876,0.0027790586464107037,5.211925085225701,0.0005131959915161133
1746232047494989300,1.0509892578125,0.008695652941758277,-0.009263155050575733,-0.05021049032649713,0.015011340379714966,0.18760318790922179,0.942527581384001,0.39545121294726093,right,-0.008975982666015625,-0.5602193512313355,0.07223865376014728,-8.30727711867392,-0.27189269874531186,-0.005337451118975878,0.003941514994949102,5.210979913330078,-0.00034123659133911133
1746232047534989300,1.0909892578125,0.009432012068382562,-0.018885042518377304,-0.04981267247351204,-0.0027473103255033493,0.18736774339739237,0.9425889614094919,0.3951570126595319,right,-0.009117722511291504,-0.5601058173973731,0.07836135159125551,-8.307813125246764,-0.2719155932205629,-0.012715711258351803,0.0051038190722465515,5.210036495000124,-0.0011959075927734375
1746232047574989600,1.130989501953125,0.008195502649974784,-0.020611073821783066,-0.05034322686176191,-0.025750737637281418,0.18702728332705754,0.9425296936969471,0.39413444070854453,right,-0.005965590476989746,-0.5610227651162838,0.0680494264759589,-8.303122921603917,-0.2722573901082756,-0.0367480106651783,0.0035941791720688343,5.21765281522274,-0.0028285980224609375
1746232047614989600,1.170989501953125,0.007051151972713992,-0.00794177781790495,-0.051012402004632196,-0.043530553579330444,0.18708815480309887,0.942303434606311,0.39402657309268696,right,-0.009802520275115967,-0.5625524056598968,0.058491356501844706,-8.295204988086223,-0.272873552627928,-0.05570810288190842,0.0018434692174196243,5.230347461622953,-0.005029857158660889
1746232047654989600,1.210989501953125,0.005905534772987353,0.004727518185973167,-0.05168153133638004,-0.06131036579608917,0.1871488944766427,0.942076338690558,0.39391661730938315,right,-0.013642549514770508,-0.5640819945583251,0.04894088987887371,-8.287256659430264,-0.2734894984145823,-0.07466819882392883,0.00009195925667881966,5.243029833063483,-0.007229864597320557
1746232047694989600,1.250989501953125,0.003456707939705214,0.03460683673620224,-0.05324024154664955,-0.10071863234043121,0.18797208044294447,0.9415498733555171,0.39510740641092434,right,-0.006536602973937988,-0.5666495286782367,0.028600078390340785,-8.273862924849986,-0.2744373488700262,-0.08739442378282547,-0.0007018933538347483,5.264291232278943,-0.004127860069274902
1746232047734989300,1.2909892578125,0.0006448880335056967,0.03575184568762779,-0.055187590788953786,-0.06404947489500046,0.18950445818750059,0.9408417004177414,0.39771008623004384,right,0.005314052104949951,-0.5694632020756414,0.005325811261552735,-8.259065753212571,-0.27542542549893406,-0.05689999833703041,-0.0046452684327960014,5.287549942791462,0.006679236888885498
1746232047774989300,1.3309892578125,-0.0008038344984013485,0.006203057244420052,-0.05607842429497008,-0.04206649586558342,0.18992264736196887,0.9405548068603005,0.3982580033933997,right,0.007953941822052002,-0.5708749779636769,-0.006633277130927308,-8.251591471809148,-0.2759367968157565,-0.034894511103630066,-0.0052058580331504345,5.299204724749923,0.010026514530181885
1746232047814989600,1.370989501953125,-0.00236688256800483,-0.03242071717977524,-0.056787063078929265,-0.009706389158964157,0.18963816703463035,0.9404430787693064,0.39726266422039536,right,0.005602121353149414,-0.5720481221271894,-0.01951617211648263,-8.245348778027296,-0.27636826425086636,-0.01703478954732418,-0.00626068189740181,5.308881484633684,0.008229672908782959
1746232047854989600,1.410989501953125,-0.003397605804714912,-0.05034720525145531,-0.057060979354590216,0.008736738935112953,0.18883524045463324,0.9405092904771929,0.3952900294787951,right,0.002935171127319336,-0.5727055828896598,-0.028002968730428256,-8.241832294338941,-0.27663610635349734,-0.013667719438672066,-0.0069089652970433235,5.314301171594858,0.006132006645202637
1746232047894989600,1.450989501953125,-0.004430381391803995,-0.06827369332313538,-0.057334888400679934,0.027179867029190063,0.188032173300364,0.9405747983510327,0.39331578170425,right,0.0002678036689758301,-0.573361438550158,-0.0364994670377695,-8.238311718997359,-0.27690375430332204,-0.010300650261342525,-0.00755623634904623,5.3197056609869,0.004035890102386475
1746232047934989600,1.490989501953125,-0.004403319998667979,-0.04634162783622742,-0.056973035944298735,0.045193202793598175,0.18632024048167103,0.940694241064828,0.38977016455528496,right,-0.0028844475746154785,-0.5748941432080995,-0.03624058092285413,-8.230150039851665,-0.2777286556597715,-0.03139666095376015,-0.0055685462430119514,5.332326657629013,-0.002693653106689453
1746232047974989300,1.5309892578125,-0.003802252270060778,-0.014123082160949707,-0.056704175148164095,0.04013291746377945,0.18569404018756952,0.9405670531072063,0.38871437773377226,right,-0.003181159496307373,-0.576632474747597,-0.031258406312821896,-8.220888290509581,-0.27863232566758267,-0.048198871314525604,-0.003396162763237953,5.346625232094526,-0.006650030612945557
1746232048014989300,1.5709892578125,-0.00233561024467977,0.023722685873508453,-0.0562642182397565,0.024699591100215912,0.18561200458670668,0.9402758032140829,0.38909645718829516,right,-0.004175424575805664,-0.5787574532817608,-0.019174699451762717,-8.209545643240213,-0.2797570349142742,-0.045494794845581055,-0.001479109050706029,5.364082562851905,-0.002443373203277588
1746232048054989600,1.610989501953125,-0.0006572866623279212,0.03707684576511383,-0.05575388853419669,0.03373992070555687,0.18590389990274456,0.9400430367418123,0.39028750184537714,right,-0.0018709301948547363,-0.5799639935468243,-0.005392145933699794,-8.203087845402955,-0.2804467812369485,-0.028487803414463997,0.0003612747532315552,5.373983779141307,-0.0012115240097045898
1746232048094989600,1.650989501953125,0.0011029766069879207,0.04314030706882477,-0.05518079039104617,0.014274759218096733,0.18653326144061774,0.939928698869967,0.3921476196175969,right,-0.0036275386810302734,-0.5798925797906989,0.009047873695963061,-8.203468953675031,-0.2805255205369558,0.008498230949044228,0.0010959170758724213,5.373398088207841,0.001518547534942627
1746232048134989600,1.690989501953125,0.0028629190349969973,0.049203772097826004,-0.05460767215780647,-0.005190400406718254,0.18716243096214605,0.9398136270571507,0.3940073421418806,right,-0.005385339260101318,-0.5798184221493274,0.023486626100435386,-8.203838371509313,-0.28060405815742734,0.045484259724617004,0.0018306616693735123,5.372789600920677,0.004251003265380859
1746232048174989600,1.730989501953125,0.004027749342740555,0.05531003698706627,-0.05424576986637609,0.004287565127015114,0.18814604846720565,0.9398377653772878,0.39635456560393184,right,-0.0038181543350219727,-0.5782972392945939,0.03307556842013728,-8.211969070994854,-0.2799347994788128,0.03926814720034599,0.006419195327907801,5.360303628835082,0.0006912350654602051
1746232048214989300,1.7709892578125,0.006395836078894273,0.04242945462465286,-0.05353943107215551,0.008398951031267643,0.18921735638424467,0.9396360777998162,0.39933308720075933,right,-0.005938827991485596,-0.5781854474794268,0.05252594529141206,-8.212466499122977,-0.28002546050374566,-0.020877517759799957,-0.0025957664474844933,5.3593859294682735,-0.00406646728515625
1746232048254989300,1.8109892578125,0.007153302414908946,0.00591408833861351,-0.05344067001804419,0.005151382647454739,0.18959100922746905,0.9394010903996496,0.40042389189014604,right,-0.0028797388076782227,-0.5792747542716566,0.05870479832312558,-8.206581532737612,-0.28057951817301363,-0.06744524836540222,-0.000378923024982214,5.368328529858589,0.002787649631500244
1746232048294989300,1.8509892578125,0.005738063522560684,-0.10185610502958298,-0.0542317189911015,-0.014929559081792831,0.18855518259695636,0.9389157920884832,0.3980970808103743,right,-0.004271090030670166,-0.5840334680989977,0.04694335481952876,-8.181018052414059,-0.2827420607473895,-0.13792935013771057,0.0006239544600248337,5.4073214005976915,0.010706663131713867
1746232048334989600,1.890989501953125,0.0011443269652055455,-0.0814719945192337,-0.056007306211320704,-0.007874167524278164,0.18643024312934833,0.9386886823575714,0.3924585709993503,right,0.010705828666687012,-0.5884793916823237,0.009333945216148276,-8.157026351451874,-0.28455330477577134,-0.084415502846241,0.004519956652075052,5.443640668213368,-0.00009113550186157227
1746232048374989600,1.930989501953125,-0.00349320545144525,-0.06108789145946503,-0.057782263988408154,-0.0008187764324247837,0.18430325905310507,0.9384512597629346,0.3867787362799328,right,0.02566075325012207,-0.5929036298593495,-0.02841008594330633,-8.132818377390503,-0.28636143518611806,-0.030901655554771423,0.00842969585210085,5.479675858190656,-0.010860025882720947
1746232048414989600,1.970989501953125,-0.0037102423681029985,-0.01944895088672638,-0.05757352838199031,0.024574942886829376,0.18299347690787912,0.9385593737463654,0.3839786834795367,right,-0.002053976058959961,-0.5938968751028114,-0.03015499794845236,-8.127364788159728,-0.28688845757124254,0.0037598307244479656,-0.0033348919823765755,5.4877510280966755,0.00009971857070922852
1746232048454989300,2.0109892578125,-0.0025432527181964994,-0.0008676741272211075,-0.057042123536834445,0.0293316338211298,0.18294651951318255,0.9386001942309445,0.38422334613580483,right,-0.0039157867431640625,-0.5936899120542153,-0.020673317678796592,-8.128530324807762,-0.2868910606513693,-0.001535769086331129,-0.0039509497582912445,5.4860687740981575,-0.000647425651550293
1746232048494989300,2.0509892578125,-0.001376509642839944,0.017713602632284164,-0.056510704883265886,0.03408832475543022,0.18289949811303718,0.9386407700685329,0.3844676581947646,right,-0.00577855110168457,-0.593482700883277,-0.011190963838994502,-8.129685340061783,-0.28689356932198534,-0.006831367965787649,-0.004567082040011883,5.484384766533971,-0.0013943910598754883
1746232048534989300,2.0909892578125,0.0005478935819481872,0.012537417933344841,-0.05579763567941044,0.03948526456952095,0.18299414659900773,0.938508314135661,0.3853035824207822,right,-0.000017881393432617188,-0.5942484878296758,0.004451537475817895,-8.125489641937612,-0.287405525891501,-0.022284070029854774,0.0003589283733163029,5.490608755615353,-0.003969252109527588
1746232048574989600,2.130989501953125,0.0014060616636377733,0.01070635300129652,-0.05542395110362022,0.023446429520845413,0.18297083117439783,0.9385151110421474,0.3855157728683962,right,-0.0023589730262756348,-0.5942324049713118,0.011424694963055662,-8.12557147500217,-0.2874705839120724,-0.017850782722234726,0.00037862116005271673,5.490477822712063,-0.002357006072998047
1746232048614989600,2.170989501953125,0.0022641298170550024,0.008875289000570774,-0.05505026872077595,0.007407594472169876,0.18294739153049278,0.9385217661857891,0.3857277007083783,right,-0.004700660705566406,-0.5942161772381955,0.018397186015424085,-8.125647462847828,-0.287535608684881,-0.013417493551969528,0.0003983575152233243,5.490346305286884,-0.0007446408271789551
1746232048654989600,2.210989501953125,0.002914511555545821,-0.0022544749081134796,-0.054821126702544604,0.007687460631132126,0.18284781169434355,0.9384252256283195,0.38576217961040105,right,-0.002758502960205078,-0.5949901522301069,0.0236695609023096,-8.121381622096896,-0.287957281087311,-0.00872257724404335,-0.00007018400356173515,5.496633422732353,-0.001196146011352539
1746232048694989600,2.250989501953125,0.003603898334510345,0.00893358513712883,-0.054671372246402596,0.00189274363219738,0.18313887026850786,0.9382881734002417,0.3866270674626958,right,-0.0026317834854125977,-0.5955239942700081,0.02925774999791756,-8.118428032988309,-0.28824711385781543,-0.014521634206175804,0.00041538849472999573,5.500968237066268,0.002104461193084717
1746232048734989300,2.2909892578125,0.004093188196436285,0.007436281070113182,-0.054608878860045784,0.003703988390043378,0.18341445875612492,0.9381442771682302,0.3874021626429173,right,-0.0003370046615600586,-0.5961234728595031,0.03321650669421069,-8.115113793873787,-0.2885519318232967,-0.014923743903636932,0.0010663203429430723,5.50583438179791,0.005731344223022461
1746232048774989300,2.3309892578125,0.0047216598521965065,0.00935533456504345,-0.05445765487113757,0.00849915947765112,0.18363629643520185,0.9380303883502655,0.3880977498910982,right,0.0013668537139892578,-0.596590602439934,0.03830447063312167,-8.112518516683577,-0.28880967106246486,-0.00589632336050272,0.0031306541059166193,5.509624421730638,0.00624847412109375
1746232048814989600,2.370989501953125,0.0053499714151528715,0.014242604374885559,-0.0542180480935147,0.004205865319818258,0.1837847235266148,0.9380278898358322,0.3885961451306033,right,-0.0027312636375427246,-0.5964081307624673,0.04340702935296576,-8.113497590848803,-0.28876830193712294,0.01226895023137331,0.001477136742323637,5.508143827784061,0.0016390085220336914
1746232048854989600,2.410989501953125,0.005763700164478765,0.024271082133054733,-0.054094515227865105,-0.013466283679008484,0.18415212832892022,0.9380447766483426,0.3894689896405423,right,-0.0028942227363586426,-0.5958105345179227,0.04678277569664642,-8.11676915986538,-0.28850252488241335,0.02601690962910652,0.0019008936360478401,5.503294049665332,-0.0003489255905151367
1746232048894989600,2.450989501953125,0.005820770871891862,0.026766398921608925,-0.054166358842943824,-0.01911378838121891,0.1848705555779947,0.9380855373453395,0.39094083357135645,right,-0.0007902383804321289,-0.5945914534461577,0.04728502156378235,-8.123469534286857,-0.2878963694175576,0.02913840301334858,0.000459074042737484,5.493395171463489,0.001031041145324707
1746232048934989600,2.490989501953125,0.005327751119335226,0.0036812834441661835,-0.05439998939929043,-0.02410999685525894,0.18521159457598765,0.9381360276648937,0.3914668860346836,right,-0.0010196566581726074,-0.5938060441938553,0.04330296162371523,-8.127803764098882,-0.28746820772539705,0.020477136597037315,0.0007736408151686192,5.487012776950001,0.004388988018035889
1746232048974989300,2.5309892578125,0.00483448246498872,-0.019403832033276558,-0.0546336083401696,-0.029106203466653824,0.18555259967545468,0.9381862218953841,0.39199320583810254,right,-0.0012499690055847168,-0.5930208277166786,0.039314581540715876,-8.132129810604452,-0.2870399183759582,0.011815869249403477,0.0010888646356761456,5.480629213392734,0.007747173309326172
1746232049014989300,2.5709892578125,0.00339189911237687,-0.02557516098022461,-0.055040295064491575,0.011187189258635044,0.1849740628442876,0.938345291911608,0.3903005755828773,right,0.0031380057334899902,-0.5927285943783025,0.027588700257556047,-8.133779915899037,-0.2868156315657492,-0.00030649127438664436,-0.0034265255089849234,5.4782525473892685,0.0024923086166381836
1746232049054989600,2.610989501953125,0.0034092335045646863,-0.00721907801926136,-0.05498335099727007,0.015785295516252518,0.18480087156830624,0.9383745272222211,0.3899388151729928,right,0.003725111484527588,-0.5927617396705653,0.02772907684262609,-8.133597545069456,-0.28684271690308216,0.006621138658374548,-0.004703812766820192,5.478522011980414,0.0020653605461120605
1746232049094989600,2.650989501953125,0.0034264997309118046,0.01113700307905674,-0.054926414456779746,0.020383402705192566,0.18462762885025175,0.9384037324259105,0.389576931778182,right,0.0043122172355651855,-0.5927948836943892,0.027868891738692763,-8.133415758761764,-0.28686978937989843,0.013548769056797028,-0.005980996415019035,5.478791476571559,0.0016385316848754883
1746232049134989600,2.690989501953125,0.005286156451183207,0.03813263028860092,-0.054123775338903696,0.028440207242965698,0.18500814559592857,0.9385130326803144,0.39087764413200865,right,0.0010097026824951172,-0.5915428826975178,0.043030419159494335,-8.140202642422913,-0.2864188918314913,0.03486139327287674,-0.0016664126887917519,5.468604429078102,0.004845678806304932
1746232049174989600,2.730989501953125,0.007196868565094654,0.036936357617378235,-0.05334245390039126,0.023446176201105118,0.18581093098917317,0.9386587599390122,0.3930390784387234,right,0.0017061233520507812,-0.589473201854671,0.058665247197449207,-8.151406173482536,-0.2855670284900213,0.06164608895778656,-0.0014635296538472176,5.451744479691982,0.0079612135887146
1746232049214989300,2.7709892578125,0.00909947859233953,0.03574008494615555,-0.05256105275225471,0.018452143296599388,0.1866132771160539,0.9388026416777074,0.395192629951398,right,0.002397775650024414,-0.5874002606734079,0.07427675372532103,-8.162562942790984,-0.2847146523265083,0.08843078464269638,-0.0012582489289343357,5.434834845945239,0.011081814765930176
1746232049254989300,2.8109892578125,0.011509335468709674,0.015157876536250114,-0.05131523255481175,0.028390631079673767,0.18689280943909345,0.939169214820817,0.39632659739701204,right,-0.0043340325355529785,-0.584495104801086,0.09412844597306103,-8.178113563144207,-0.28354713419711364,0.03571382910013199,-0.004847068339586258,5.411097412005066,0.003650486469268799
1746232049294989300,2.8509892578125,0.012130865738945657,0.019781922921538353,-0.05100284976433002,0.022416919469833374,0.18692647178478458,0.939241265304733,0.39654952413955363,right,-0.0016722679138183594,-0.583947278927389,0.09924731422360054,-8.18101629884839,-0.2833424511772724,0.040113549679517746,-0.0012275269255042076,5.406616467198729,0.0015336871147155762
1746232049334989600,2.890989501953125,0.012752110380615142,0.02440597116947174,-0.05069044877954593,0.01644320972263813,0.1869601943443228,0.9393132129045025,0.3967722004629606,right,0.0009890198707580566,-0.5833993967476032,0.10436747024892828,-8.183913773855567,-0.2831377402434507,0.0445132739841938,0.0023918598890304565,5.402133184304833,-0.0005828142166137695
1746232049374989600,2.930989501953125,0.014418216934810862,0.05083207041025162,-0.049904296462171205,0.012937829829752445,0.18782742366368055,0.9396013551569531,0.3989053805994549,right,0.003049194812774658,-0.5802115517035421,0.11825028525409288,-8.200906409710646,-0.2817440001824017,0.09213776141405106,-0.0021932870149612427,5.3760144081860775,-0.0005052089691162109
1746232049414989600,2.970989501953125,0.015424694049915668,0.0017776675522327423,-0.049329429901599706,0.024389058351516724,0.18781707589822705,0.9397950965844989,0.3990941400573269,right,-0.0016966462135314941,-0.5788725126478665,0.12661515882168894,-8.207973863878845,-0.28120527068242135,0.029745958745479584,-0.002291932702064514,5.365027150225639,0.0048184990882873535
1746232049454989300,3.0109892578125,0.015409844691875623,-0.041223034262657166,-0.04915135363035161,0.013754744082689285,0.18698682944750014,0.939872115301444,0.39736415482064147,right,-0.004726409912109375,-0.5794809809298331,0.12644295319309456,-8.204709893646836,-0.2815321375953895,-0.01823556423187256,-0.0034215375781059265,5.370021305251122,0.0008094906806945801
1746232049494989300,3.0509892578125,0.013869011018243924,-0.03743947297334671,-0.049611692918358534,-0.01014266163110733,0.18575172491587696,0.9398828405206343,0.3943840606032029,right,-0.0031961798667907715,-0.581121824899959,0.11367836509551853,-8.196073582726717,-0.28223253922636826,-0.019189924001693726,-0.0014986656606197357,5.383478168195486,-0.007384359836578369
1746232049534989300,3.0909892578125,0.012831341072906132,-0.018641307950019836,-0.04986759737932563,-0.006498171016573906,0.185014790702257,0.9399841526562723,0.3925257608489422,right,-0.001817166805267334,-0.5814445607566936,0.10515118623883463,-8.194449780917168,-0.282334121277653,-0.0007925685495138168,-0.0031575500033795834,5.386123129746317,-0.005955398082733154
1746232049574989600,3.130989501953125,0.011792658332410536,0.0001568533480167389,-0.05012351499796863,-0.0028536799363791943,0.18427778869158618,0.9400848726137845,0.3906667483530995,right,-0.00043827295303344727,-0.5817656598723124,0.09661929467441513,-8.192824810063838,-0.2824355038423413,0.017604785040020943,-0.004815998487174511,5.388754062771797,-0.004525125026702881
1746232049614989600,3.170989501953125,0.012165682071214748,-0.005892970599234104,-0.049886856571526965,0.0053577180951833725,0.1841403843970027,0.9401616415933998,0.39046377253436415,right,-0.004181623458862305,-0.581417411585716,0.09969822719572112,-8.194663715928792,-0.28231136241112353,-0.002804168500006199,-0.0034148148261010647,5.385900426906347,0.0008017420768737793
1746232049654989600,3.210989501953125,0.011985123774858808,-0.0006101070903241634,-0.04990125032403534,-0.00230824900791049,0.1840579322364102,0.9402323112215031,0.39021009077753105,right,-0.002443552017211914,-0.5810474264401264,0.09824249369576572,-8.196673886707424,-0.2821272577400232,0.015995416790246964,-0.0027378732338547707,5.3828679273426525,-0.0017277002334594727
1746232049694989600,3.250989501953125,0.011684504227379407,-0.0038999170064926147,-0.049948941621925466,-0.002437325892969966,0.18404515657548742,0.9403450027568289,0.39004412464495264,right,-0.0011630058288574219,-0.5802977282446556,0.0958255322145298,-8.200736313840746,-0.28175149968310553,0.01777663826942444,-0.0017365450039505959,5.3767210951507085,-0.0003638267517089844
1746232049734989300,3.2909892578125,0.011858581658108085,0.0008878335356712341,-0.049773349900290045,0.005711309611797333,0.18395990451761252,0.9404682477101941,0.38986728228890666,right,-0.002555549144744873,-0.5795625307450835,0.09729994301549158,-8.204669561636447,-0.28142649024544747,0.013853604905307293,-0.0016830097883939743,5.370689998292923,-0.000001430511474609375
1746232049774989300,3.3309892578125,0.012648150266351178,-0.0002940952545031905,-0.049393790920322846,0.02580726519227028,0.18392696069848413,0.9405173388299403,0.3900134687797137,right,0.00030100345611572266,-0.5792547789512118,0.1037989587791264,-8.206242510041594,-0.28135086593845876,0.0007174303755164146,0.0007189055904746056,5.3681648637294765,0.0009099841117858887
1746232049814989600,3.370989501953125,0.01409398800834009,0.00698575284332037,-0.048755693202745615,0.03729168325662613,0.18380360543723004,0.9405119274165251,0.3901951697806239,right,-0.00045496225357055664,-0.579427931310636,0.11565064241602085,-8.205154130282997,-0.28156069754190655,-0.006729661952704191,0.0006339661777019501,5.369585836443305,0.0009207725524902344
1746232049854989600,3.410989501953125,0.016101339875407197,0.007206524722278118,-0.04789709466970471,0.04881589859724045,0.18368765773221182,0.9404780466867,0.3905726914077175,right,-0.0016766190528869629,-0.5797703356888232,0.13209141654199918,-8.203066802614927,-0.28189685465078,-0.009392140433192253,0.0034276852384209633,5.372395048645139,0.002350449562072754
1746232049894989600,3.450989501953125,0.017922326071250997,0.001009239349514246,-0.04708318721044322,0.040126197040081024,0.18347163565527835,0.9404709576986066,0.3906790395268146,right,-0.004348039627075195,-0.580061157708015,0.14700085291485301,-8.201250108581782,-0.2821980991659984,-0.0016270619817078114,0.004162566736340523,5.374781066998839,0.0022829174995422363
1746232049934989600,3.490989501953125,0.019113565005298455,-0.008448902517557144,-0.04647548495055002,0.024156006053090096,0.18318606935729093,0.940538915958266,0.39042118480040067,right,-0.005799591541290283,-0.579943051719296,0.15678252534465864,-8.201704282090068,-0.28225784652056474,0.010993998497724533,0.004511956125497818,5.373811929705739,0.0037419795989990234
1746232049974989300,3.5309892578125,0.01948257473452706,-0.016930503770709038,-0.04615796556943657,0.010370086878538132,0.18282837417030412,0.940680201581397,0.3897368276265905,right,-0.005389213562011719,-0.5794396942687675,0.1598616953279823,-8.2043492436409,-0.2820709968613207,0.010251451283693314,0.005346747115254402,5.369682282555103,0.0025449395179748535
1746232050014989300,3.5709892578125,0.01921958211703222,-0.017463456839323044,-0.046111216242791964,-0.0031283600255846977,0.18240948367991844,0.9408100511569503,0.3887451719666211,right,-0.00463712215423584,-0.5791139070314998,0.15773763411240652,-8.20613963418901,-0.28191678603306,0.0036995308473706245,0.0028689801692962646,5.3670086794316765,-0.0016676783561706543
1746232050054989600,3.610989501953125,0.01853259595935251,-0.008242863230407238,-0.04632458455242618,-0.014975485391914845,0.18216672844242332,0.9408712962796635,0.38801799732989395,right,-0.0037299394607543945,-0.5790358488832805,0.15210784806450828,-8.206664534845947,-0.28183430181633884,0.002755653578788042,0.0016127834096550941,5.3663680434405805,-0.005636870861053467
1746232050094989600,3.650989501953125,0.017900894528277242,0.003601214848458767,-0.04660097502125578,-0.013755913823843002,0.18217778520373243,0.9408680986166009,0.38785397105523817,right,-0.0021744370460510254,-0.5790607144758031,0.14692126660631039,-8.20662595640123,-0.28179225857695317,-0.0019568651914596558,0.0015639904886484146,5.36657204158008,-0.005420267581939697
1746232050134989600,3.690989501953125,0.01752354326701397,0.008044087328016758,-0.04682510211872619,-0.01241963729262352,0.18236458548563975,0.9408241065667645,0.38814234766152006,right,-0.0036791563034057617,-0.5791246164902036,0.14381846915222704,-8.206337787109613,-0.2817811623466934,-0.006544668227434158,-0.0012964317575097084,5.36709635771513,-0.001978576183319092
1746232050174989600,3.730989501953125,0.017483522984693058,0.017972895875573158,-0.04695784564776716,-0.005399420857429504,0.18262281313661707,0.9407202581341758,0.38870427945086766,right,-0.001708388328552246,-0.5794952091146832,0.14345526186302304,-8.204353919816016,-0.28193848061495735,-0.01709936186671257,-0.0003689369186758995,5.370137625107168,-0.0011305809020996094
1746232050214989300,3.7709892578125,0.018088191326260886,0.02487822249531746,-0.04692405631580446,-0.00016650045290589333,0.1830841710367951,0.9405062824900015,0.38992328144021815,right,0.000006318092346191406,-0.5803322844579073,0.14833479579919948,-8.199768345591425,-0.28235842548536805,-0.02653653919696808,0.0009519215673208237,5.377004588267207,0.0028396248817443848
1746232050254989300,3.8109892578125,0.01897982089013128,0.024161241948604584,-0.04679462714727547,0.00831061415374279,0.18352390324341764,0.9402487793166788,0.3912052771847598,right,0.0014886260032653809,-0.5814847029608828,0.15552817790200932,-8.193432128307222,-0.2829513727363221,-0.02979014441370964,0.001542024314403534,5.386452215570211,0.004244744777679443
1746232050294989300,3.8509892578125,0.020232902264597792,0.024274006485939026,-0.046480390332799916,0.014112302102148533,0.18389009127193373,0.940016398365523,0.39243539326905336,right,-0.0014724135398864746,-0.5825478186232792,0.16567914943508802,-8.187500984692573,-0.2835369390226069,-0.022244608029723167,0.0003103669732809067,5.395161007204652,0.005207657814025879
1746232050334989600,3.890989501953125,0.021548007130517726,0.022886905819177628,-0.04609962554347763,0.01890694350004196,0.18425717208135872,0.9398405495384936,0.3936603570446136,right,-0.00036388635635375977,-0.5832163972849956,0.17636866655796765,-8.183667690140009,-0.2839434415916283,-0.011267858557403088,0.0009702406823635101,5.400635054701566,0.0054215192794799805
1746232050374989600,3.930989501953125,0.022791477363337788,0.02117808163166046,-0.04569628636585739,0.016105476766824722,0.1845604361209839,0.9397250056406858,0.3947057842461868,right,-0.00012350082397460938,-0.5835569687294819,0.1865027417551726,-8.181602574303746,-0.2841939284984507,0.001978945918381214,-0.00023524276912212372,5.403422639593482,0.0035901665687561035
1746232050414989600,3.970989501953125,0.023581444061816507,0.014747457578778267,-0.0454451024986292,0.0029096901416778564,0.18488261498084105,0.9396734336216314,0.39562269480709195,right,-0.0005877017974853516,-0.5834492357498896,0.192979609619081,-8.182035120502114,-0.2841954396500015,0.006925704423338175,0.00001899711787700653,5.402541180583834,0.002706170082092285
1746232050454989300,4.0109892578125,0.02418396765777505,0.013693938963115215,-0.04523018666453149,0.004742897115647793,0.1851599324875524,0.9396730250699938,0.39636688847490453,right,-0.0009908080101013184,-0.583057638892331,0.19796059463573618,-8.184031847277284,-0.2840505797749703,0.010781826451420784,-0.001011233776807785,5.399335662540793,0.0015523433685302734
1746232050494989300,4.0509892578125,0.02472991983150986,0.012293758802115917,-0.045044770967090454,0.008038893342018127,0.18539607686868703,0.9396561164518953,0.39701834453880447,right,0.00010025501251220703,-0.5828346373560352,0.20245841751163823,-8.185125487732886,-0.28398184355658074,0.00019073765724897385,-0.0007114093750715256,5.3975096161574125,0.001843273639678955
1746232050534989300,4.0909892578125,0.025458455242541336,0.010851476341485977,-0.04482128699399209,0.014327643439173698,0.18556577315803588,0.9395688951052722,0.397624580851286,right,0.0011256933212280273,-0.583174093272698,0.2083748567475006,-8.183143958526848,-0.2841950129488764,-0.010803704150021076,-0.0015865415334701538,5.400289017742872,0.001143336296081543
1746232050574989600,4.130989501953125,0.026385078447449733,0.006882640533149242,-0.04449331387294494,0.018828267231583595,0.1856215432436556,0.939483162048474,0.3980584535362689,right,-0.00004673004150390625,-0.5836471343989152,0.21589003641689195,-8.180392613992094,-0.2844931997536757,-0.010580023750662804,-0.001049654558300972,5.404160306218266,0.0016550421714782715
1746232050614989600,4.170989501953125,0.027419068105051857,0.0035272794775664806,-0.04408720369850334,0.02411145530641079,0.18557338555847078,0.9394186504982377,0.39830349625194406,right,-0.001984238624572754,-0.5841100023803871,0.22427977043110875,-8.177664065811037,-0.28480078523821584,-0.010721036233007908,-0.00030422210693359375,5.407947423541546,0.003439486026763916
1746232050654989600,4.210989501953125,0.02831369072922835,-0.002754442859441042,-0.04371224020909146,0.02190714329481125,0.18540016521922636,0.9393665132651889,0.39824720447314776,right,-0.002122640609741211,-0.5846609786639565,0.23151121952198445,-8.174480175077914,-0.28514332996656044,-0.011637000367045403,-0.00014284439384937286,5.412454087311029,0.0026155710220336914
1746232050694989600,4.250989501953125,0.029113888876892143,0.001689244993031025,-0.04337245430332506,0.01548694632947445,0.1852728404889788,0.9393317752902355,0.3982470984285307,right,-0.0030556321144104004,-0.5850337976528578,0.23799358554491773,-8.172274773988127,-0.28539228524731214,-0.006240579299628735,0.00006140582263469696,5.415502368965744,0.0014333724975585938
1746232050734989300,4.2909892578125,0.029711788216972044,0.005012377165257931,-0.04312864795592133,0.009925542399287224,0.18522648977331352,0.9393026453097946,0.39834775748706763,right,-0.002842843532562256,-0.5852676547490145,0.24284212155463172,-8.170864907190204,-0.2855551275654732,-0.00293985684402287,-0.0002491772174835205,5.41741434006691,0.00041812658309936523
1746232050774989300,4.3309892578125,0.030174711304445184,0.008343867026269436,-0.04295638492557225,0.003877050708979368,0.1852982313320922,0.9392809571349402,0.3986435153497506,right,-0.0027655363082885742,-0.5852976692090585,0.24661964906565845,-8.17058901285827,-0.2856057284572735,-0.002739334711804986,-0.0009235497564077377,5.417659839260578,0.0017531514167785645
1746232050814989600,4.370989501953125,0.030492790432373983,0.008569573983550072,-0.042886361483365686,0.0034575702156871557,0.18542506266782632,0.9392170614554929,0.3990293479774366,right,-0.0014200806617736816,-0.5855477298432623,0.2491772245939821,-8.16915576518476,-0.28574413623956163,-0.008788513951003551,-0.0005360487848520279,5.419703912308812,0.0010223984718322754
1746232050854989600,4.410989501953125,0.030806664937060173,0.007286112289875746,-0.04284875895788869,-0.0026329176034778357,0.18558394191673724,0.9391184677904519,0.3994969622097801,right,-0.0024982690811157227,-0.5859901253875662,0.25166743397451935,-8.166680314981937,-0.2859705810599775,-0.011868545785546303,-0.002411123365163803,5.423318595674633,0.0019714832305908203
1746232050894989600,4.450989501953125,0.030844541185699983,0.005553004331886768,-0.042944988398432526,-0.003208786016330123,0.18575571734050284,0.9390025592596878,0.3999168193046738,right,-0.0016649961471557617,-0.586545271403764,0.25188387147048485,-8.163660090377926,-0.2862252474295874,-0.011022793129086494,-0.0021449998021125793,5.427853901016712,0.0021486878395080566
1746232050934989600,4.490989501953125,0.030757513355957177,0.0036581812892109156,-0.04306431549393156,-0.003514588577672839,0.18585571894890124,0.938912878140156,0.40013991737033006,right,-0.00029391050338745117,-0.5870236378310495,0.2510935248103924,-8.161085855975747,-0.28643652447755025,-0.008223074488341808,-0.0025298092514276505,5.431760260805487,0.00017774105072021484
1746232050974989300,4.5309892578125,0.030651812526190265,-0.001585816266015172,-0.043161663483953096,0.004124117083847523,0.18587927309735294,0.9388473797631373,0.4001897658785318,right,0.00033342838287353516,-0.5874407346175273,0.2501614315920509,-8.158847137138247,-0.2866210737842935,-0.009249173104763031,-0.0009778756648302078,5.435165685334801,0.0005061626434326172
1746232051014989300,4.5709892578125,0.03098180349981223,0.007764359936118126,-0.04309423248722295,0.006720522418618202,0.1858990031121023,0.9387499464350085,0.40038004935363775,right,-0.002302706241607666,-0.5880591267016837,0.25274960318803785,-8.155403134164214,-0.28693736695989885,-0.018367065116763115,-0.0024876073002815247,5.440211862808465,0.0013398528099060059
1746232051054989600,4.610989501953125,0.03150852875001088,0.011387975886464119,-0.04298734629752159,0.009706869721412659,0.18601869731732693,0.9386128112715556,0.40085343217984903,right,-0.0003871917724609375,-0.5888019176425053,0.25691784704970194,-8.151227309784293,-0.2873241136742424,-0.01826079934835434,-0.0015265382826328278,5.446271016716957,0.0026016831398010254
1746232051094989600,4.650989501953125,0.032229835216678326,0.010344802401959896,-0.042793228788467925,0.011863584630191326,0.1861354334616709,0.9384800223668577,0.40137797018473764,right,0.0007357001304626465,-0.5895087500542484,0.2626731957060285,-8.147190017092228,-0.2877110172744365,-0.01497860811650753,-0.0009748972952365875,5.452034402549266,0.002656877040863037
1746232051134989600,4.690989501953125,0.03294730284280739,0.009967511519789696,-0.04259522814233395,0.010963723063468933,0.18625140363215717,0.9383547964092233,0.4018963519287781,right,0.0010399818420410156,-0.5901637373844552,0.2684007795725949,-8.143428618732095,-0.28807346193430267,-0.013239888474345207,-0.00019189529120922089,5.457372256445884,0.0028719305992126465
1746232051174989600,4.730989501953125,0.033579449878432206,0.01157063152641058,-0.04243392021800971,0.00905314926058054,0.18638036069045041,0.9382327511481964,0.4024141073248676,right,0.0009518265724182129,-0.5907832838239,0.2734350108801387,-8.139877063730358,-0.2884113857632505,-0.01178798172622919,0.0009790081530809402,5.462419018441438,0.004175841808319092
1746232051214989300,4.7709892578125,0.034252287173084796,0.007475048769265413,-0.042225347848971174,0.007184088230133057,0.1864879643547142,0.9381464832523722,0.4028822342790801,right,-0.001925647258758545,-0.5911862171436394,0.2788363584670238,-8.13749046085477,-0.28865282696739214,-0.003683563321828842,-0.00009282492101192474,5.465700524330138,0.003687560558319092
1746232051254989300,4.8109892578125,0.03468633192986723,0.003857366507872939,-0.04207290972654709,0.005529993213713169,0.1865762878635635,0.9381192370162489,0.40320749076645096,right,-0.0016643404960632324,-0.5912290770742343,0.28236024001054466,-8.13713448702395,-0.28870651861726226,0.001868708524852991,-0.00014132633805274963,5.466049483898281,0.003158748149871826
1746232051294989300,4.8509892578125,0.03502343543044113,0.005071226507425308,-0.04195147026237324,0.0017955368384718895,0.1866702007279631,0.9381076932350758,0.40350623621014453,right,-0.002337038516998291,-0.5911635345880264,0.2851158223289996,-8.137396937352419,-0.28870101986570795,0.00004859035834670067,-0.0011521168053150177,5.4655158154129975,0.0035631656646728516
1746232051334989600,4.890989501953125,0.035350072753518466,0.00571679649874568,-0.04185259573463946,0.005047186743468046,0.1867663875756476,0.9380722034795002,0.40381925596465923,right,-0.0005143880844116211,-0.5912564597986191,0.2877558337100781,-8.13679604884982,-0.28876844916294664,-0.0034417109563946724,-0.00046653300523757935,5.466272186738252,0.0035957694053649902
1746232051374989600,4.930989501953125,0.035937070785759695,0.0038276370614767075,-0.041637043955107325,0.00858309306204319,0.1868118896622672,0.9380319815509767,0.40411130878547025,right,-0.00008672475814819336,-0.5914350188928853,0.29249700035518034,-8.135649801424146,-0.2889007444112364,-0.003210538998246193,-0.0013058912009000778,5.467725892677903,0.0027825236320495605
1746232051414989600,4.970989501953125,0.03658810562562146,0.004668155685067177,-0.041369940148340445,0.008684500120580196,0.18682631795541993,0.9380173589815206,0.4043461178757019,right,-0.0007941126823425293,-0.591478755012345,0.2977847680323757,-8.135218424269556,-0.2889771599014447,-0.0011466867290437222,-0.0020218174904584885,5.468081866508722,0.0032736659049987793
1746232051454989300,5.0109892578125,0.0374131694027054,0.0061223371885716915,-0.04103534996519422,0.01826580986380577,0.18686649960319113,0.9379982641234039,0.40468840968399816,right,0.0005759596824645996,-0.5915082355603661,0.3044907136781141,-8.134809258946776,-0.2890609717766379,0.0005799309583380818,-0.0014390647411346436,5.468322105005383,0.0037325620651245117
1746232051494989300,5.0509892578125,0.0385307975552289,0.006927815731614828,-0.04055065152237544,0.02380526438355446,0.1868772460218571,0.9380050369813834,0.40504573708551245,right,0.000018298625946044922,-0.5913850608265792,0.3136081591786817,-8.13513717572689,-0.28910047533039784,0.0045396313071250916,-0.00020095333456993103,5.467319065442681,0.004243791103363037
1746232051534989300,5.0909892578125,0.039723063447416114,0.005102165043354034,-0.039995545963052444,0.023211678490042686,0.1868272841028509,0.9380496930967518,0.4052817658530726,right,-0.003201305866241455,-0.591081723974437,0.3233730357373133,-8.136413771533965,-0.2890651909056529,0.009144194424152374,-0.00034781917929649353,5.464849460458755,0.0046950578689575195
1746232051574989600,5.130989501953125,0.040632105216098356,0.003633857937529683,-0.03954273794844068,0.016265425831079483,0.18679378522427936,0.9381238052670813,0.4054483285302059,right,-0.0015118718147277832,-0.5905722904809476,0.33088227885626253,-8.138897405043243,-0.2889084536478985,0.0182134211063385,-0.0009094290435314178,5.46070052408576,0.0019306540489196777
1746232051614989600,5.170989501953125,0.04117612346578025,0.00030998652800917625,-0.03921679994245858,0.008181057870388031,0.1868045823740393,0.9382476686135178,0.40556559728677544,right,-0.002277672290802002,-0.5896887802814473,0.33550840428695083,-8.143533248150348,-0.2885435546982352,0.02424011565744877,-0.0005999915301799774,5.45350155249238,0.0006275773048400879
1746232051654989600,5.210989501953125,0.04130948158065433,-0.00013718614354729652,-0.03905995119501178,0.00035916082561016083,0.18682062728962318,0.9383830979430815,0.4055624291020756,right,-0.0007450580596923828,-0.5887436729180802,0.3368071388605982,-8.148634955203534,-0.28811380067342335,0.022958125919103622,-0.0007980279624462128,5.445796384942532,0.00003987550735473633
1746232051694989600,5.250989501953125,0.041232257740978606,-0.0016928372206166387,-0.03901454860238143,0.000802594528067857,0.1868514748515783,0.9384941788204916,0.4055391792554627,right,-0.00027632713317871094,-0.5879551237206725,0.3363547554505989,-8.15294872674942,-0.2877379797820338,0.013261735439300537,-0.0002960376441478729,5.43936372154653,0.000014603137969970703
1746232051734989300,5.2909892578125,0.04124514718969272,-0.0016758294077590108,-0.038955337129724016,0.004751862026751041,0.18681300176510865,0.9385574376262829,0.40542995158543704,right,-0.00010281801223754883,-0.5875778959518833,0.3365444328038022,-8.154994553363323,-0.28756473475168914,0.00458067562431097,-0.00011016800999641418,5.436285044753551,0.000005304813385009766
1746232051774989300,5.3309892578125,0.041478744363717,-0.0012791319750249386,-0.03883531080235363,0.005454251542687416,0.1867482163246923,0.938569246313793,0.40536281244288014,right,-0.00174713134765625,-0.5875702259516131,0.3384511432079598,-8.154957143962383,-0.28758428669724373,-0.0009402516297996044,-0.0005777105689048767,5.436222500911355,0.0007383227348327637
1746232051814989600,5.370989501953125,0.04177372678954517,-0.0000813192455098033,-0.0387138346170623,0.0061966171488165855,0.18669855927682535,0.9385509578238673,0.40536168728232425,right,-0.0024560093879699707,-0.587742628277015,0.34081754354573784,-8.15392020213008,-0.2876925467850581,-0.004284857306629419,-0.0004527866840362549,5.43762944509983,0.0020231008529663086
1746232051854989600,5.410989501953125,0.04202263054618413,-0.0006853262311778963,-0.03861055515860648,0.0043542999774217606,0.1866300952547164,0.9385310548762101,0.40530968842481735,right,-0.004000604152679443,-0.5879542495456427,0.3427987074255943,-8.15268510737717,-0.2878158248649091,-0.003699625376611948,-0.00046594440937042236,5.439356122761964,0.002028942108154297
1746232051894989600,5.450989501953125,0.04225021118657032,-0.001958778128027916,-0.038522308912091116,0.0031857453286647797,0.1865793437196632,0.9385070842727972,0.4052893381621573,right,-0.0027769804000854492,-0.5881705777178559,0.34460440514069046,-8.151431307923794,-0.2879386986966063,-0.0021956334821879864,-0.0007806457579135895,5.441121378868818,0.001925349235534668
1746232051934989600,5.490989501953125,0.0422622442813986,0.00030787382274866104,-0.03851629411809748,0.00004110019654035568,0.186560615691801,0.9385042728949287,0.4052567507067427,right,-0.002319633960723877,-0.5882141433433031,0.3446924852829426,-8.151190484905243,-0.287960835172934,-0.0015633455477654934,-0.0006258003413677216,5.441476768177748,0.0010688304901123047
1746232051974989300,5.5309892578125,0.04219374510133321,-0.0017802519723773003,-0.038541001484724814,-0.0013221012195572257,0.18655389381224521,0.9385093860330128,0.4052196626412122,right,-0.0011050701141357422,-0.5881930632862826,0.3441389795860275,-8.151328432071208,-0.28794528775723316,0.0008353202138096094,-0.0013048909604549408,5.44130491874218,-0.0004076361656188965
1746232052014989300,5.5709892578125,0.0421258320008874,-0.003988312557339668,-0.03854568092574043,0.004973605740815401,0.18651447666799412,0.9385339008073496,0.40510577557400435,right,0.0006225109100341797,-0.5880842784941452,0.34361031606942416,-8.15194334909916,-0.2878902384677524,0.0031188225839287043,-0.000684443861246109,5.440417614513636,-0.0029389262199401855
1746232052054989600,5.610989501953125,0.04208919185728062,-0.008236327208578587,-0.03853151146576559,0.004558459389954805,0.18637688772759817,0.938545021496668,0.40481065619949147,right,-0.002306342124938965,-0.5881963898343295,0.3432859429532662,-8.15134655224979,-0.28794498238934807,-0.0125349760055542,-0.0011930204927921295,5.441331806749105,0.0003916621208190918
1746232052094989600,5.650989501953125,0.04221124356452272,-0.0003994470462203026,-0.03852313171788035,0.006182978395372629,0.18623925201075694,0.9384572174320744,0.40461900410795615,right,-0.0012975335121154785,-0.5889681144264858,0.3441035429464653,-8.147106430462003,-0.28832121626749,-0.02391231805086136,-0.0003812946379184723,5.44762652297914,-0.000279843807220459
1746232052134989600,5.690989501953125,0.042637974506141624,0.0024448097683489323,-0.038433253396650074,0.0079210689291358,0.1861864100545938,0.9383203494668519,0.40471832213476994,right,-0.000492095947265625,-0.5899364358777099,0.34735509208831933,-8.14168498993516,-0.2888121871856424,-0.022141583263874054,-0.00014475733041763306,5.455519906577468,-0.00010633468627929688
1746232052174989600,5.730989501953125,0.043121702849117566,0.005791675299406052,-0.038340864422526634,0.007528995163738728,0.18622689896919967,0.9381738761668801,0.40502927216006424,right,-0.000051021575927734375,-0.5908395241822376,0.3510809076784178,-8.13659029714465,-0.28927378750425764,-0.024611420929431915,0.0010329820215702057,5.462877283602952,0.0025779008865356445
1746232052214989300,5.7709892578125,0.04364712038537599,0.006605264265090227,-0.03826047224596467,0.007393107283860445,0.18629083783975117,0.9379926453446525,0.405420493895132,right,0.00001919269561767578,-0.5919411654101894,0.35509313899446276,-8.130387350851297,-0.28983053269272246,-0.028213998302817345,0.0023169368505477905,5.471845602956414,0.002975285053253174
1746232052254989300,5.8109892578125,0.044092696383019034,0.009245939552783966,-0.038240259756773864,0.0037947192322462797,0.18641310631475597,0.93778975000598,0.40591819612107677,right,-0.0007948875427246094,-0.5931130457348601,0.3584329144090414,-8.12381674028933,-0.29041056803672877,-0.026714477688074112,0.0021356306970119476,5.481379154977202,0.004704475402832031
1746232052294989300,5.8509892578125,0.044438641343246536,0.01123100146651268,-0.03824174096809737,-0.0017166745383292437,0.18658172499673176,0.9376253077692397,0.40645783372729816,right,-0.0013337135314941406,-0.5939692505572596,0.3610346944052726,-8.119000864440203,-0.2908328192397482,-0.014289154671132565,0.0007373541593551636,5.48833964163959,0.00537031888961792
1746232052334989600,5.890989501953125,0.044492885303137164,0.00766259990632534,-0.03833143103373535,-0.003722683060914278,0.18678078039533522,0.937517422905219,0.40693798326744024,right,-0.0006036162376403809,-0.594423250461495,0.3613642186205834,-8.116490927445888,-0.2910409260136764,-0.0038793087005615234,0.00003789365291595459,5.492028559285402,0.004670202732086182
1746232052374989600,5.930989501953125,0.044452017804477745,0.008234330452978611,-0.03840850247788717,-0.008886748924851418,0.18697878129838091,0.9374806076744239,0.40734639523121796,right,-0.0010673999786376953,-0.5944080410712925,0.361036228775233,-8.116589127123355,-0.2910221672785946,0.005756951868534088,-0.001191604882478714,5.491905225166678,0.004979610443115234
1746232052414989600,5.970989501953125,0.044355276326284186,0.00795935932546854,-0.03846769176299439,-0.0025501949712634087,0.1871882315295069,0.9375018756992761,0.40772764998048694,right,0.0016901493072509766,-0.5939914884948759,0.36035241122953593,-8.118908509981631,-0.29081108425243113,0.015576898120343685,-0.0008085966110229492,5.488520258903503,0.0040351152420043945
1746232052454989300,6.0109892578125,0.04453434012967772,0.0032141124829649925,-0.03835713459458307,0.0037144687958061695,0.1873035459186797,0.9375704694524964,0.40797565864048957,right,0.0007491111755371094,-0.5933647690702231,0.36195929843690244,-8.122278863197565,-0.2905301280150555,0.014715827070176601,-0.0014110207557678223,5.483425566112995,0.002977609634399414
1746232052494989300,6.0509892578125,0.044856707220417624,0.0021590893156826496,-0.03816771189481617,0.009452734142541885,0.1873099825583865,0.9376385336546273,0.40804760940325846,right,-0.00003331899642944336,-0.5928775459601519,0.36469738163128496,-8.124829716724157,-0.29033117761179245,0.00828167051076889,-0.0013045147061347961,5.479463676744699,0.0013430118560791016
1746232052534989300,6.0909892578125,0.0453146675915402,-0.0012801829725503922,-0.0379385890637865,0.011619950644671917,0.18723846974822578,0.9376652591258585,0.4080270849344653,right,-0.001779794692993164,-0.5927632398101004,0.3684465780969709,-8.125287397363781,-0.2903210139708834,-0.0023756343871355057,-0.0004683397710323334,5.478534286940097,0.0014266371726989746
1746232052574989600,6.130989501953125,0.0456878595004286,-0.005117627792060375,-0.037764724829652714,0.009924001060426235,0.18710137707044688,0.9376534652810672,0.4078706616995257,right,-0.002778172492980957,-0.5930011305550283,0.37141927376482636,-8.123847135427594,-0.29047011036044446,-0.006072835996747017,-0.0003681853413581848,5.48046905439496,0.000047087669372558594
1746232052614989600,6.170989501953125,0.045725221956166455,-0.004754016175866127,-0.03773698107356865,0.0009602224454283714,0.18697640791297987,0.9376425512200177,0.40763615013913945,right,-0.0023289918899536133,-0.5932393878489,0.37166312899067994,-8.122528454044462,-0.29058940807455524,-0.005691777914762497,-0.00046879425644874573,5.482406159937382,0.0003566741943359375
1746232052654989600,6.210989501953125,0.045600581516212234,0.0003116801381111145,-0.037810758474307836,-0.006201584357768297,0.18695302294026733,0.937611115921255,0.40756916249888486,right,-0.0017376542091369629,-0.5934901071690386,0.3705880471050739,-8.121201589354872,-0.2906962279595097,-0.00857467856258154,-0.000577341765165329,5.484444972288609,0.000897824764251709
1746232052694989600,6.250989501953125,0.045344354213427196,0.005988465156406164,-0.03799567741128134,-0.00956198200583458,0.1870539677625553,0.9375338655632424,0.4077393974610052,right,-0.0009973645210266113,-0.5938905509910258,0.36840759779345245,-8.119101402205228,-0.29085623292892504,-0.01141615491360426,-0.000980474054813385,5.487699590170383,0.0005424618721008301
1746232052734989300,6.2909892578125,0.045083490747458994,0.013110214844346046,-0.03823981230357174,-0.014548179693520069,0.18731151914229932,0.9374139441722673,0.408248866882618,right,-0.0008030533790588379,-0.5943677397296239,0.3661715458370745,-8.11658035929501,-0.29104512783865294,-0.015545140951871872,-0.0008460693061351776,5.491577308386564,0.0013893842697143555
1746232052774989300,6.3309892578125,0.04511188214826706,0.01570463553071022,-0.038406727629621155,-0.00973503664135933,0.18766510876072653,0.937251470747787,0.4090648325719107,right,0.00001049041748046875,-0.5949807419867765,0.36625012749861924,-8.11320591442585,-0.2913186148584349,-0.018169840797781944,-0.0006414875388145447,5.496556850364804,0.0035427212715148926
1746232052814989600,6.370989501953125,0.04511603302858478,0.012003352865576744,-0.03857388836304742,-0.01093159057199955,0.1879718672428273,0.9370926670765068,0.40977682787894515,right,-0.001647353172302246,-0.5956316603695027,0.3661223364004865,-8.109628640460967,-0.29160944204744227,-0.015169285237789154,-0.0015676282346248627,5.50184209729135,0.004490971565246582
1746232052854989600,6.410989501953125,0.04501752194585393,0.00675028283149004,-0.03874915602206561,-0.008137956261634827,0.18823691377362758,0.9369729194790706,0.41035084251956666,right,-0.00023090839385986328,-0.5960832435743125,0.3652116147637367,-8.10718183183074,-0.2918000390183581,-0.006873311474919319,-0.0014809593558311462,5.5055076340615745,0.004568696022033691
1746232052894989600,6.450989501953125,0.044903255323207415,0.0005142050795257092,-0.03885237181525213,-0.001453988254070282,0.18836526601055079,0.9369284917152058,0.41060055886626273,right,0.00152665376663208,-0.5962147933658646,0.36425270660370584,-8.106499694785475,-0.2918459093236122,0.00518388208001852,-0.0030065588653087616,5.506574971032142,0.002313673496246338
1746232052934989600,6.490989501953125,0.0447898793965892,-0.008082687854766846,-0.03885862428857181,0.00876274798065424,0.18828406470999204,0.9369676412722037,0.41037940304821785,right,0.0020302534103393555,-0.5960697354095741,0.3633693844305351,-8.107338483697175,-0.2917717698320249,0.008878083899617195,-0.00250069797039032,5.505397743946314,0.0017949938774108887
1746232052974989300,6.5309892578125,0.0451198602349422,-0.0015417402610182762,-0.038670683263225716,0.009883114136755466,0.18817862774227664,0.9370060738573321,0.4102452881760099,right,-0.0008423328399658203,-0.595932743767032,0.36607864338923246,-8.107971520903707,-0.2917414219320397,0.0016531418077647686,-0.0017707496881484985,5.50428598331213,0.0022115111351013184
1746232053014989300,6.5709892578125,0.04571396946125293,0.0008640834130346775,-0.038406371926274746,0.017020436003804207,0.1881112678833486,0.9370030467934207,0.41029263831055496,right,-0.0007425546646118164,-0.5960035311561204,0.3708777872992679,-8.107363618138432,-0.29182946852653613,-0.0022086251992732286,-0.001424584537744522,5.504860568329692,0.002833068370819092
1746232053054989600,6.610989501953125,0.04644167510103277,-0.00002135115209966898,-0.03808141436498567,0.015393695794045925,0.18802303980247906,0.9369996851530137,0.4103389670503105,right,-0.0016188621520996094,-0.5960950965353936,0.37675405892152336,-8.106587957590818,-0.29193977483088507,-0.001306650461629033,-0.0008624941110610962,5.505604080173373,0.003222048282623291
1746232053094989600,6.650989501953125,0.046906007620495675,-0.0003790323680732399,-0.037861746916257974,0.010015346109867096,0.18792784802260493,0.937005507933475,0.41028538330401737,right,-0.001145482063293457,-0.596151601120737,0.3805035841807723,-8.106101635378598,-0.29201083744128464,0.0006300408858805895,-0.0005134120583534241,5.506062345334887,0.003417491912841797
1746232053134989600,6.690989501953125,0.047171524945657926,0.0014888278674334288,-0.03773815682058104,0.0040738992393016815,0.1878778149162173,0.9370070965146007,0.41026466563384906,right,-0.0013669133186340332,-0.5961896437825063,0.382646003036946,-8.105790669733285,-0.2920539430807937,0.0005029328167438507,-0.0005690865218639374,5.5063709728926415,0.0038685202598571777
1746232053174989600,6.730989501953125,0.047259848651389616,0.005504075437784195,-0.03771498685980114,-0.0012759948149323463,0.1879173761404224,0.9369957879225438,0.4103780669434604,right,-0.0008602738380432129,-0.5962060115217382,0.38335769497025757,-8.105666751092672,-0.2920677486384109,0.002005387097597122,-0.0012331940233707428,5.5065036593616,0.0025214552879333496
1746232053214989300,6.7709892578125,0.04738268864676,0.008365850895643234,-0.037693009007869406,-0.004167567938566208,0.18806305122098033,0.9369856012837955,0.41071541689719765,right,-0.0004724860191345215,-0.5960702276358245,0.3843887915836647,-8.106366423794627,-0.29200951189785124,0.005574773997068405,-0.002333175390958786,5.5054018355995415,0.000831902027130127
1746232053254989300,6.8109892578125,0.04752451701630636,0.016490429639816284,-0.037688972856732776,-0.0034395819529891014,0.18835748077390657,0.9369720027424372,0.4113604879992526,right,-0.0012298822402954102,-0.5957555583201546,0.38562078106403347,-8.108041663530468,-0.2918637415942753,0.010060065425932407,-0.0018263906240463257,5.502848059463501,-0.0012711882591247559
1746232053294989300,6.8509892578125,0.04814161324038324,0.02620735391974449,-0.03752649700596886,0.001163689885288477,0.18882784959608556,0.936933677792511,0.41251978670966605,right,-0.0010303258895874023,-0.5953354054341871,0.3907353841314092,-8.11011145554185,-0.2917038878864314,0.006522919982671738,-0.0025006644427776337,5.49943678971529,-0.0010994672775268555
1746232053334989600,6.890989501953125,0.04936492542620482,0.02924947813153267,-0.037075201685804325,0.031797751784324646,0.189295504886117,0.9369296081085257,0.41383746594266546,right,0.001045823097229004,-0.5946427047622512,0.4008441787568852,-8.113429786309599,-0.2914714629799658,0.034001365303993225,-0.003139965236186981,5.493811351048946,-0.006378471851348877
1746232053374989600,6.930989501953125,0.050884929876619175,0.033797815442085266,-0.03648049708334088,0.0019411854445934296,0.18984433723837463,0.9369600642741032,0.4153867014169881,right,-0.011312723159790039,-0.593580903001663,0.41347259152047333,-8.1186326156497,-0.2910912410651951,0.00986681692302227,-0.00874076783657074,5.485182638913392,0.004513680934906006
1746232053414989600,6.970989501953125,0.051399009086681054,0.017208697274327278,-0.03644700099715206,0.008877404034137726,0.1903851969526237,0.9368238339756477,0.41671349281129705,right,0.0018511414527893066,-0.5937194284544669,0.41760713404193517,-8.117659971225262,-0.2911806003936893,-0.005575564689934254,-0.003287002444267273,5.486309012594819,0.006234586238861084
1746232053454989300,7.0109892578125,0.052129608444589276,0.010200859978795052,-0.036242778171542665,0.013729192316532135,0.19050777445726044,0.9367045468905911,0.4172545626618535,right,-0.002028822898864746,-0.594295777949162,0.4233729310270399,-8.11419317189753,-0.2915093958495991,-0.02123834192752838,-0.006373651325702667,5.490992786496878,0.006912171840667725
1746232053494989300,7.0509892578125,0.05285518957378362,0.019225506111979485,-0.0360884451559797,0.009161855094134808,0.19067454575550835,0.9365328768967123,0.417915534184134,right,0.00023496150970458984,-0.5951618976343839,0.429008927620016,-8.109131796854735,-0.29197081071686254,-0.015922212973237038,-0.006977789103984833,5.498028091961145,0.0034969449043273926
1746232053534989300,7.0909892578125,0.053747774366989756,0.03994198143482208,-0.035922331413106065,-0.0043592676520347595,0.1912221398090984,0.9363589432894094,0.4193952200137724,right,0.00227278470993042,-0.5955083491276402,0.43614447858836497,-8.10684339365661,-0.29219103656060696,-0.0020126495510339737,-0.006362337619066238,5.500841395816207,0.0019679665565490723
1746232053574989600,7.130989501953125,0.05469537222542852,0.04071542248129845,-0.03572086449703564,-0.0015350014436990023,0.19204025290296256,0.9362520328105515,0.42139401547625643,right,0.0035761594772338867,-0.5950279260901127,0.443970751767233,-8.10906457683742,-0.2920218992125731,0.018124809488654137,-0.002233147621154785,5.496940296724438,0.004802107810974121
1746232053614989600,7.170989501953125,0.055552593193403554,0.027914371341466904,-0.03543531839722771,0.0008821187075227499,0.19265107958102343,0.9362603449058223,0.42287616235407877,right,0.0017120838165283203,-0.5940619896445544,0.45121644857916976,-8.113978652364015,-0.29162742737183056,0.0248805470764637,0.0022082477807998657,5.489093090355396,0.003857553005218506
1746232053654989600,7.210989501953125,0.05634182353171356,0.024078313261270523,-0.035133810867790854,0.007802534848451614,0.19314310334849058,0.9363019604902816,0.4240769809163464,right,0.0015172958374023438,-0.5930374542528161,0.457936550614424,-8.11923058154285,-0.2912045009452497,0.022173887118697166,0.008637823164463043,5.480764237949252,0.002859771251678467
1746232053694989600,7.250989501953125,0.05746405964371395,0.03292207047343254,-0.034699553054653755,0.005010841879993677,0.19363270940070762,0.9363271745376917,0.42538282645628456,right,-0.0051781535148620605,-0.5920939443460105,0.4673447592224925,-8.123870516303182,-0.29085015544407145,0.01978103257715702,0.007132340222597122,5.473088881015777,-0.0014969110488891602
1746232053734989300,7.2909892578125,0.05857483723655966,0.052231915295124054,-0.034400408175236395,-0.009473960846662521,0.1944618843457412,0.9362493905733568,0.4274298642479991,right,-0.004653573036193848,-0.5913655861591243,0.47660150359589604,-8.12732387162745,-0.29058287993503507,0.012378495186567307,0.009106099605560303,5.467160660010576,-0.0019860267639160156
1746232053774989300,7.3309892578125,0.05979580133478811,0.06685978919267654,-0.0342044956426868,-0.01650286093354225,0.19565194999691274,0.9360458655431725,0.43031228811535177,right,-0.002243936061859131,-0.5909586210296613,0.486657252859883,-8.128955856743454,-0.29046278170737433,0.0034843208268284798,0.009013742208480835,5.463847005417943,-0.0020595788955688477
1746232053814989600,7.370989501953125,0.06106608414893797,0.06931675225496292,-0.034101531878349606,-0.019051743671298027,0.19708367866668444,0.9357409524678245,0.4337580006167176,right,-0.002579808235168457,-0.5908744597116171,0.4970109986897558,-8.128790437048673,-0.2904894362657376,-0.009473161771893501,0.004794534295797348,5.46316194576323,0.004239022731781006
1746232053854989600,7.410989501953125,0.06217847890672199,0.05828707665205002,-0.03412046726772305,-0.019926274195313454,0.19842935483365148,0.9353547364522112,0.4370374382667872,right,0.000455319881439209,-0.5914569585523043,0.5058552898047491,-8.125054757651686,-0.29081483863662844,-0.01689378172159195,0.0019857697188854218,5.467904756376147,0.004315972328186035
1746232053894989600,7.450989501953125,0.06324837372234794,0.03857880085706711,-0.03402259425097849,-0.0014482028782367706,0.1995057851772707,0.9350875369233602,0.4396876742542575,right,0.004639863967895508,-0.5916134430698216,0.514493865747191,-8.123654827725886,-0.2909489985734196,0.0030865054577589035,0.002165909856557846,5.469178429573774,0.007358729839324951
1746232053934989600,7.490989501953125,0.06436111064014732,0.008456956595182419,-0.033577711153739614,0.012342666275799274,0.19994443454142388,0.9351121415231403,0.4408818068706203,right,-0.00048738718032836914,-0.5907114512762942,0.5238500884396955,-8.127996656322479,-0.2906200651185853,0.034903354942798615,0.000010389834642410278,5.461833912029862,0.004454076290130615
1746232053974989300,7.5309892578125,0.06512383221454825,-0.02339930087327957,-0.032913141219934126,0.029580887407064438,0.19972530428127386,0.9354769992361996,0.44042764149272295,right,-0.004482090473175049,-0.5884932044630814,0.5308364767283201,-8.139664882284402,-0.2896710235753074,0.0800141841173172,0.0027962177991867065,5.443753480938077,-0.003205418586730957
1746232054014989300,7.5709892578125,0.06565560056517786,-0.052147671580314636,-0.031988925659075344,0.04746922850608826,0.19882890498456732,0.9361657312180116,0.43833370817121486,right,-0.007505893707275391,-0.5850677682415512,0.5363850872987881,-8.157940543687344,-0.28816224315398953,0.08992905914783478,0.003939121961593628,5.415780601385236,-0.00338059663772583
1746232054054989600,7.610989501953125,0.0655193036704971,-0.05752061307430267,-0.03136696818735387,0.030923234298825264,0.19754138768516716,0.9367807412121759,0.4353118374201672,right,-0.003996372222900391,-0.5827486030666819,0.5360940684629604,-8.170524715450405,-0.28711543431697656,0.027403146028518677,0.0015359222888946533,5.39680526728034,0.00027108192443847656
1746232054094989600,7.650989501953125,0.06557507792680295,-0.05779367312788963,-0.030953189486244214,0.03170403093099594,0.19631289467905466,0.9370545271001153,0.43269545678599686,right,0.004669010639190674,-0.5826366150154944,0.5365893776992335,-8.171098131424188,-0.28710946019904915,-0.018994275480508804,0.0032025575637817383,5.395888152435422,0.0047914981842041016
1746232054134989600,7.690989501953125,0.0657608246967133,-0.07371558248996735,-0.03056503374238349,0.05735589563846588,0.1948436226803178,0.937187464033373,0.4297314716941517,right,0.019071578979492188,-0.5838031195285428,0.5376931376900523,-8.164711645257473,-0.28771742593024685,-0.02866254933178425,0.013131029903888702,5.405436902025341,-0.0008990168571472168
1746232054174989600,7.730989501953125,0.06730118274000464,-0.07137919217348099,-0.029433592196469793,0.10059008002281189,0.19293585607722644,0.9374271054933305,0.42622274426237544,right,0.01590949296951294,-0.5847039658215578,0.5499413920296355,-8.159011972311138,-0.2883397317410035,-0.016471369192004204,0.01470167189836502,5.412805969488621,-0.00027698278427124023
1746232054214989300,7.7709892578125,0.06982001017609696,-0.074406199157238,-0.02790481304771637,0.09262211620807648,0.1909738828982856,0.9376137508435775,0.4229322106959241,right,0.007645845413208008,-0.5859065972130951,0.5700362316837534,-8.15110163757801,-0.28918987955455633,-0.04596763104200363,0.008095316588878632,5.42263645862937,0.014542222023010254
1746232054254989300,7.8109892578125,0.07100708157824229,-0.1037743017077446,-0.027110317202883885,0.06055106222629547,0.1888592439431378,0.9375755467736792,0.4190913613830161,right,0.0018739700317382812,-0.5889458595639839,0.5785398196022957,-8.133942412984371,-0.29077375132275757,-0.0886586457490921,0.003141753375530243,5.447445321193337,0.0170174241065979
1746232054294989300,7.8509892578125,0.06947902986043818,-0.1515445113182068,-0.027446207366523485,0.019293073564767838,0.18624169326041726,0.937491910179626,0.4134543832495487,right,-0.004759728908538818,-0.5932033445828149,0.5644948545716703,-8.111607247057556,-0.2926940973750341,-0.0886576920747757,-0.00005342438817024231,5.482113314470649,0.008362293243408203
1746232054334989600,7.890989501953125,0.06465880033999828,-0.16559767723083496,-0.02893543525738246,-0.04106530174612999,0.1831233875007953,0.9376298554323874,0.4056502887658431,right,-0.018345773220062256,-0.5968749741090792,0.524084518250078,-8.094092633154988,-0.29407287550606054,-0.07083557546138763,-0.015278562903404236,5.51193094510734,-0.004531800746917725
1746232054374989600,7.930989501953125,0.058046205159444995,-0.13540692627429962,-0.03135161227174621,-0.07219075411558151,0.18045392299963214,0.937626542934464,0.39825723404726376,right,-0.0106886625289917,-0.6009422406301871,0.4692460262665525,-8.07493375917673,-0.295482699749741,-0.1061069667339325,-0.025169288739562035,5.544875183331966,0.0019681453704833984
1746232054414989600,7.970989501953125,0.05256791007161653,-0.08494380116462708,-0.033674936121521296,-0.04199669510126114,0.17867881305991004,0.9372530607044556,0.3932015651500598,right,0.0037479400634765625,-0.6061037219524753,0.42349290414489804,-8.048695740592478,-0.2974839834670098,-0.12769046425819397,-0.024291731417179108,5.58654984050095,0.008044660091400146
1746232054454989300,8.0109892578125,0.05050082494856764,-0.05854710191488266,-0.034580134009766395,0.02872658520936966,0.1772660297227109,0.9368713932142514,0.38991642746476424,right,0.00610804557800293,-0.6105253070006101,0.40560375784151254,-8.02480516191721,-0.29942112963371875,-0.0840081200003624,-0.021483981981873512,5.622132610535622,0.012264549732208252
1746232054494989300,8.0509892578125,0.05111737175077107,-0.043395962566137314,-0.03413828340318489,0.08128677308559418,0.17593916580462013,0.9367743395498581,0.38747557075462447,right,0.005125105381011963,-0.6127491975960272,0.4099115015054121,-8.01204680263102,-0.30055591872587956,-0.009849674999713898,-0.010263927280902863,5.639988000699877,0.006452322006225586
1746232054534989300,8.0909892578125,0.053919296112609344,-0.03172014281153679,-0.03247542033436811,0.10958069562911987,0.17457287097101812,0.9370640939899791,0.38541983431790533,right,-0.00377047061920166,-0.6123161724882165,0.43249059572331605,-8.013304693737625,-0.3006334982103515,0.03228851780295372,-0.007667817175388336,5.636513018065691,0.002464473247528076
1746232054574989600,8.130989501953126,0.05707290148078401,-0.0040761735290288925,-0.03074242561782078,0.061483461409807205,0.1737494248486082,0.937380250133725,0.38455628983234436,right,-0.012206017971038818,-0.6109995386247327,0.4581821228733286,-8.019303057369589,-0.30030688508090075,0.01622091978788376,-0.005756042897701263,5.625942524212599,0.003158867359161377
1746232054614989600,8.170989501953125,0.058946435187705544,0.015510816127061844,-0.029912503532317534,0.020553093403577805,0.17358293402084105,0.9373714860314794,0.38481091141865165,right,-0.008073747158050537,-0.6111037403840381,0.47317120035365223,-8.017845259776712,-0.30051436262483394,-0.019605442881584167,0.002123463898897171,5.62677955955863,-0.003008127212524414
1746232054654989600,8.210989501953126,0.059882254611456104,-0.0007776282727718353,-0.029760216584431214,-0.002094186842441559,0.17391171421294213,0.9371088552688068,0.38592584707910377,right,-0.0016388297080993652,-0.6123430771868557,0.48025655550472435,-8.010431768649816,-0.3011576940368164,-0.040777549147605896,0.01129121333360672,5.636729291164874,-0.004517734050750732
1746232054694989600,8.250989501953125,0.058824595153775715,-0.04758390784263611,-0.030388246549337243,-0.012792126275599003,0.1734414546526711,0.9367392924963974,0.3848613638207879,right,0.00048160552978515625,-0.6154088429597114,0.4707657831797376,-7.993646638065576,-0.30251279480728516,-0.09335185587406158,0.005104910582304001,5.661304929494857,-0.0022405385971069336
1746232054734989300,8.2909892578125,0.057270688567824336,-0.04209892079234123,-0.031170690304707597,-0.0018817959353327751,0.17255410528416956,0.9363301180690872,0.38281209981474085,right,0.002291440963745117,-0.6192515048615294,0.4570952774846926,-7.972590990555286,-0.30420283488616384,-0.08178016543388367,-0.005864344537258148,5.692033245235681,-0.00991201400756836
1746232054774989300,8.3309892578125,0.05718338683660914,-0.011807246133685112,-0.03130951070638164,0.025778308510780334,0.17186474525603698,0.9359908230525793,0.38158360291250704,right,-0.0018047690391540527,-0.6222641335537177,0.4554171151394024,-7.955475020581483,-0.30561966151350123,-0.06782133877277374,-0.01195479929447174,5.716065278208255,-0.0077953338623046875
1746232054814989600,8.370989501953124,0.05893714412959631,0.03086712770164013,-0.03088049261381072,0.034086670726537704,0.17185428514749118,0.9355305467310732,0.38239313283846865,right,-0.005215644836425781,-0.6250900588272833,0.4684150553351268,-7.938506934645772,-0.30707517621762764,-0.0771624967455864,-0.01093011349439621,5.738560603132844,-0.0006797313690185547
1746232054854989600,8.410989501953125,0.06219004616631401,0.07065746188163757,-0.030042644283878785,0.0470145121216774,0.17253656672521034,0.9349427488928693,0.3851724211533238,right,-0.0018036961555480957,-0.6277725209076469,0.4932772555215284,-7.921549370104074,-0.3085624893955311,-0.057923875749111176,-0.0022101663053035736,5.759871686708927,-0.0003066062927246094
1746232054894989600,8.450989501953124,0.06628000981811266,0.08030204474925995,-0.028855784664318127,0.038975246250629425,0.17366587619349383,0.9344756907128904,0.3890634923335856,right,-0.004188895225524902,-0.6290542297149625,0.525182506087236,-7.912092974972724,-0.30945575238274226,-0.013042405247688293,-0.0018825605511665344,5.7700400295019145,-0.0008595585823059082
1746232054934989600,8.490989501953125,0.0690135854785581,0.07447931170463562,-0.028151484599468854,-0.009609140455722809,0.17504033438116381,0.9342108110384408,0.39289132633288915,right,-0.008526623249053955,-0.6288529292227173,0.5468889091238379,-7.911786100980639,-0.3095458800222602,0.007617350667715073,-0.004444807767868042,5.76844370022118,0.0017451047897338867
1746232054974989300,8.5309892578125,0.06987505198010707,0.04480646923184395,-0.028146140044845218,-0.028089329600334167,0.176312560374889,0.9340532301400327,0.3958406307954898,right,-0.008089840412139893,-0.6282503626222963,0.5539470109418034,-7.9147782685339445,-0.30929985952748457,0.011068405583500862,-0.0082014799118042,5.763663480207324,0.004877865314483643
1746232055014989300,8.5709892578125,0.06945364709832691,0.02703709900379181,-0.02858947626127671,-0.024552572518587112,0.1771422044755208,0.9339116308545631,0.3974719107297387,right,-0.002632319927215576,-0.6281927422859344,0.5506346715234219,-7.9153423321574925,-0.30921270165327347,-0.005185561254620552,-0.011748772114515305,5.763206384089589,0.002260923385620117
1746232055054989600,8.610989501953124,0.06971475603370489,0.013337420299649239,-0.028735202467881953,0.01790432259440422,0.17761426074357572,0.9336840956166316,0.39865487897397295,right,0.001946568489074707,-0.6290455342125691,0.552358864967525,-7.91029264755249,-0.3096152619057807,-0.048210933804512024,-0.0110805444419384,5.769971055918932,0.01344442367553711
1746232055094989600,8.650989501953125,0.07148178808568896,0.017146119847893715,-0.028301944811089857,0.045589011162519455,0.1776898826867778,0.933266602705433,0.39964549551797074,right,0.0031245946884155273,-0.6314345174384055,0.5653496447701006,-7.895532300794124,-0.3108679453034404,-0.06587518006563187,-0.014736518263816833,5.788897874706983,0.006623327732086182
1746232055134989600,8.690989501953124,0.0745896463174182,0.035696592181921005,-0.02735612648756027,0.06833335757255554,0.17774933599823012,0.9327669932851259,0.40109650643810685,right,0.004490554332733154,-0.6342139602042581,0.5886837586063891,-7.8776617130607365,-0.3124142740564266,-0.0683169811964035,-0.015229523181915283,5.810877066802978,-0.0009147524833679199
1746232055174989600,8.730989501953125,0.07882014394673025,0.03744789958000183,-0.02598013839702392,0.08779187500476837,0.17793422208342968,0.9322392727336751,0.40319392499405865,right,0.005778908729553223,-0.6368766233205502,0.6207843125484883,-7.859648501986265,-0.313997592131704,-0.06774720549583435,-0.007773831486701965,5.831890044215321,-0.0020315051078796387
1746232055214989300,8.7709892578125,0.08354608002671102,0.010821586474776268,-0.02426051694891938,0.0965295284986496,0.17771795762803566,0.9317883158511241,0.40460378108203593,right,-0.001391291618347168,-0.6394489642987218,0.6566674537692219,-7.841651657524705,-0.3155922317701892,-0.05928784981369972,-0.0014498159289360046,5.852151910999417,0.0001748800277709961
1746232055254989300,8.8109892578125,0.086711445230082,-0.015110243111848831,-0.022959747280010896,0.06285916268825531,0.17706026876246844,0.9315512602636169,0.4044761620513921,right,-0.006185412406921387,-0.6413536980864633,0.6805191617388278,-7.828413990288972,-0.31675668128469237,-0.03731062263250351,0.0033526644110679626,5.867129699900746,0.004702150821685791
1746232055294989300,8.8509892578125,0.08784150420378486,-0.03398323059082031,-0.022401111257265478,0.03203709423542023,0.1762895124891448,0.931449693256705,0.403363703799978,right,-0.00643390417098999,-0.6427688032274891,0.688636271090433,-7.819361499783397,-0.3175243048739527,-0.02953331358730793,0.005635395646095276,5.878243214589357,0.008786439895629883
1746232055334989600,8.890989501953126,0.08747646964318734,-0.02911236695945263,-0.02244596687399796,0.0020707398653030396,0.17553740369563584,0.9313950904494884,0.40176564109196067,right,-0.004956245422363281,-0.6440372789372885,0.6851298704046755,-7.812178310281038,-0.318097358698855,-0.0289754718542099,0.005337797105312347,5.888195868805051,0.006438493728637695
1746232055374989600,8.930989501953125,0.0869511826642492,-0.029368000105023384,-0.022618063240851995,0.014249337837100029,0.1749488487412596,0.9313030566299316,0.40046935753726093,right,-0.0010151267051696777,-0.6453605177797538,0.6803489197384566,-7.804768326285481,-0.3186784777719006,-0.03169272094964981,0.0026322081685066223,5.898567625215649,0.0025022029876708984
1746232055414989600,8.970989501953126,0.08707116141590822,-0.03082977421581745,-0.022524850634806467,0.025039497762918472,0.1742557247904717,0.9311678481701722,0.39920319306179075,right,-0.0009466409683227539,-0.6469934171709569,0.6804468271549791,-7.795081045007705,-0.31945906153452236,-0.036108631640672684,-0.0007546618580818176,5.911352872508764,0.0012780427932739258
1746232055454989300,9.0109892578125,0.08729858847639169,-0.03234895318746567,-0.02234478997970403,0.027056995779275894,0.17346119016418987,0.9310578206158029,0.39774957667879957,right,0.0009076595306396484,-0.648567979273874,0.6814072696849703,-7.7856439390987155,-0.3202238658935224,-0.031430866569280624,-0.0008145198225975037,5.923665826115012,-0.0008294582366943359
1746232055494989300,9.0509892578125,0.08757207589044486,-0.020786233246326447,-0.022153912736973824,0.021201005205512047,0.17275377509848475,0.9309582409108289,0.3964793293200068,right,0.0007790327072143555,-0.6499651696145181,0.6828119488511234,-7.77720519657731,-0.32090823577744954,-0.025051632896065712,0.0003132447600364685,5.93457943431735,-0.00218278169631958
1746232055534989300,9.0909892578125,0.08824538901629202,-0.004208214581012726,-0.021803145922270076,0.027593981474637985,0.17238689230473594,0.9309423502184129,0.3959723222226515,right,0.0030121207237243652,-0.6504052615812007,0.6878180865753442,-7.774141132831573,-0.3211755405331391,0.007099783048033714,0.0016501396894454956,5.938014669463038,-0.00412982702255249
1746232055574989600,9.130989501953126,0.08931220569350888,-0.0002871258184313774,-0.021242733020833217,0.027781125158071518,0.17222057076928063,0.9310428038191998,0.39592092116166616,right,0.00030428171157836914,-0.6498498666872847,0.6964052976567298,-7.776686141139268,-0.32101102471070825,0.01335038710385561,0.0016558021306991577,5.933679270607232,0.00012260675430297852
1746232055614989600,9.170989501953125,0.09072593340294181,0.00815841369330883,-0.020615987243401586,0.03403099253773689,0.17210415305345497,0.9310464251596702,0.3961519629452519,right,-0.0021193623542785645,-0.6497929036451423,0.7074293804962187,-7.77603089210093,-0.3211039302128104,-0.009302367456257343,0.002604648470878601,5.9332344494491815,0.0002754330635070801
1746232055654989600,9.210989501953126,0.0924755709644038,0.01009310968220234,-0.01999704692675494,0.032564159482717514,0.1720584589016961,0.9308647752421471,0.39676684819679736,right,-0.004293322563171387,-0.6507559322839375,0.7205055004946888,-7.769088525617122,-0.3216937153419783,-0.03680995851755142,0.0044599175453186035,5.940751400950551,0.002449333667755127
1746232055694989600,9.250989501953125,0.0939857114046317,-0.007060030475258827,-0.019536120629138426,0.03572036698460579,0.171861316811794,0.9305633419461523,0.3970828142581265,right,-0.006328701972961426,-0.6526537733705345,0.7311777011565863,-7.756752775657176,-0.32269801759911626,-0.04978695884346962,0.009909331798553467,5.955548572587967,0.002924025058746338
1746232055734989300,9.2909892578125,0.0945961827227674,-0.0337362065911293,-0.01935763432896101,0.01636594906449318,0.1712592994768128,0.9302793087426743,0.396271248369801,right,-0.011137783527374268,-0.6550060634942272,0.7345875826653092,-7.742336712291836,-0.32384558944167907,-0.07159760594367981,0.008319906890392303,5.973858720782399,0.007889270782470703
1746232055774989300,9.3309892578125,0.09384002381265788,-0.020321281626820564,-0.019857524532160796,-0.021395184099674225,0.17073481618257086,0.9298776657387802,0.3952411132326332,right,-0.00793224573135376,-0.6581480655469304,0.726970531790331,-7.72416451126337,-0.3252428078832558,-0.07881378382444382,0.003736048936843872,5.998264847764372,0.00878232717514038
1746232055814989600,9.370989501953124,0.09226370608384171,0.000697355717420578,-0.02080805289494498,-0.043332137167453766,0.1706339091606289,0.929453337937241,0.39480287221064847,right,0.0028868913650512695,-0.6610369026658763,0.7131944468289614,-7.70801417145133,-0.3264470219708847,-0.04176664352416992,0.001043170690536499,6.0206526206612585,0.0020655393600463867
1746232055854989600,9.410989501953125,0.09051162036745988,0.018264610320329666,-0.02173140568656438,-0.060788318514823914,0.17115991092298988,0.9293560649868053,0.39534330563962783,right,0.005630850791931152,-0.6612463648441521,0.6995742100164294,-7.70799546675086,-0.3263883058281695,0.014548439532518387,-0.002217233180999756,6.02227349986136,0.007697582244873047
1746232055894989600,9.450989501953124,0.08885668887568028,0.03267349675297737,-0.022552081071189597,-0.055298320949077606,0.1720591809353266,0.9294561174519623,0.3965362868718281,right,0.005882561206817627,-0.6598189672210836,0.687579236318171,-7.717697361075878,-0.32557386566166413,0.047837771475315094,-0.0032803118228912354,6.011220190927386,0.00508195161819458
1746232055934989600,9.490989501953125,0.08797752026929631,0.0283353291451931,-0.023040495450070073,-0.028681032359600067,0.17299665939457343,0.9295726614306301,0.3980576086478522,right,0.005102634429931641,-0.6581486654718443,0.681675053775683,-7.728290066760778,-0.3247091000864778,0.023865239694714546,-0.0016193166375160217,5.99826952393949,0.007453620433807373
1746232055974989300,9.5309892578125,0.08831223172874834,0.03366681933403015,-0.02309395826968336,-0.0014884937554597855,0.17368767596771875,0.929508151148543,0.39961268980534986,right,0.005467057228088379,-0.6577176141270146,0.6844897458702326,-7.73063633762598,-0.3245210474235094,0.0012237615883350372,-0.0007885843515396118,5.994924889686703,0.0016921758651733398
1746232056014989300,9.5709892578125,0.08950520999805592,0.033772215247154236,-0.02284990650593457,0.0011179889552295208,0.17437666793285966,0.9293536416728501,0.4015139136271564,right,0.001489400863647461,-0.6577354490895368,0.6937021761778742,-7.729707532343268,-0.32461126508404337,-0.00608269264921546,-0.001657538115978241,5.995063421374559,0.0007250308990478516
1746232056054989600,9.610989501953124,0.09033335659526977,0.03882497921586037,-0.022801124572201455,-0.015852468088269234,0.17512029308965185,0.9291581768479513,0.40343151524073645,right,-0.0025096535682678223,-0.6579784044594101,0.6999718310318886,-7.727679241386055,-0.3247739142990791,-0.005895704962313175,-0.0011602267622947693,5.996948504468798,0.0034030675888061523
1746232056094989600,9.650989501953125,0.09046518261865816,0.04695061594247818,-0.023132203900395706,-0.03891470283269882,0.17612696106134962,0.9289207300792864,0.4056759700189958,right,-0.00042366981506347656,-0.6582504341732077,0.7008431339737028,-7.725961916074156,-0.32488528988634435,-0.00884835235774517,0.0010887905955314636,5.9990592130124565,0.005674123764038086
1746232056134989600,9.690989501953124,0.08997838848671771,0.049497123807668686,-0.023812398552692935,-0.05078259855508804,0.17734010045164056,0.9286217286932644,0.40817248401743916,right,0.004209399223327637,-0.6587229998998597,0.6968273224610835,-7.723478282564878,-0.32503102566960296,-0.007551700808107853,0.005849890410900116,6.002724749782681,0.0059356689453125
1746232056174989600,9.730989501953125,0.08932270201461667,0.042330048978328705,-0.024533638413616256,-0.0564613938331604,0.17854639005639877,0.9283601558601471,0.4105714812465933,right,0.00118333101272583,-0.6589841816555422,0.6916231048814951,-7.722371782627701,-0.32506417806702764,-0.012854616157710552,0.003265380859375,6.004749533608555,0.007287144660949707
1746232056214989300,9.7709892578125,0.08836479831773852,0.038577791303396225,-0.02538393509611925,-0.05744282528758049,0.17966642567697524,0.9280709617892978,0.41271339933989903,right,0.0027848482131958008,-0.6595393425352332,0.6839312352046371,-7.719708700898289,-0.325207669559005,-0.027309780940413475,0.0008571594953536987,6.009053368282318,0.006275355815887451
1746232056254989300,9.8109892578125,0.08765926960381785,0.03099958598613739,-0.02614828497685152,-0.03452400863170624,0.18057886656164396,0.9276963216560854,0.41458061158417897,right,0.00857234001159668,-0.6608197060040131,0.6778104142367839,-7.712519081655144,-0.32571033098848323,-0.03804100304841995,0.0013411268591880798,6.01897095118463,0.0071340203285217285
1746232056294989300,9.8509892578125,0.08783680460628386,0.015331892296671867,-0.026449218126577235,-0.004580114036798477,0.18117883700310264,0.9273589073561611,0.41608917985832616,right,0.007616877555847168,-0.6621356281116789,0.6784842218451201,-7.704501779416203,-0.32631298419847554,-0.034365758299827576,-0.00025644898414611816,6.02915390702486,0.0077179670333862305
1746232056334989600,9.890989501953126,0.08866382957104028,0.000605504959821701,-0.026309347706971447,0.027759931981563568,0.18124969906684374,0.9271010634918514,0.4166944308538891,right,0.006302773952484131,-0.6635182677189962,0.6841170401003211,-7.6956269835650915,-0.32701684688665006,-0.028874795883893967,0.0016087517142295837,6.0398418897777795,0.010041117668151855
1746232056374989600,9.930989501953125,0.09024346979852581,-0.018517084419727325,-0.025660315895756496,0.05589437857270241,0.18084210321147087,0.9269693539778483,0.416501278957726,right,0.005738258361816406,-0.6646135758102829,0.6956758874036372,-7.687943443325161,-0.32766675046250915,-0.019340287894010544,0.005344972014427185,6.048300506043434,0.009270966053009033
1746232056414989600,9.970989501953126,0.09226059257965444,-0.03224670886993408,-0.024590645789598835,0.07898394763469696,0.17993585402219298,0.9270148060703799,0.415325036133635,right,0.000456392765045166,-0.6651681930477871,0.7108727989483624,-7.683183681577444,-0.328118815495781,-0.010230044834315777,0.01106579601764679,6.052580959841609,0.01305699348449707
1746232056454989300,10.0109892578125,0.09440159817648155,-0.051036328077316284,-0.023367463759811483,0.08053391426801682,0.17862666447066308,0.9270807243970633,0.4133631014356299,right,-0.0038803815841674805,-0.6660424188323736,0.7268218440346419,-7.676373417040705,-0.32873673992927754,-0.025741416960954666,0.013514362275600433,6.0593240043610335,0.01591944694519043
1746232056494989300,10.0509892578125,0.09559285044331826,-0.05161377787590027,-0.022522107187817667,0.04557036980986595,0.17720165344733654,0.927138389004138,0.41084988468201156,right,-0.00463712215423584,-0.667197887600784,0.7352970461089163,-7.668527379715442,-0.3294035138350398,-0.018386993557214737,0.011247746646404266,6.068229779872298,0.01093357801437378
1746232056534989300,10.0909892578125,0.09531014071956777,-0.037277840077877045,-0.022318974557123165,0.009569894522428513,0.1761676942603838,0.9272740187722799,0.40856733733841094,right,-0.0026215314865112305,-0.6676016120693355,0.7328958301860838,-7.666295090618729,-0.32959002270758414,0.00550483725965023,0.008111931383609772,6.071339436325431,0.005979359149932861
1746232056574989600,10.130989501953126,0.09430187276470167,-0.020617028698325157,-0.02248912815391385,-0.013743413612246513,0.17564991408385713,0.9274661608992801,0.4070398613281874,right,-0.0023912787437438965,-0.6671581942081806,0.7254192837603389,-7.669709867498278,-0.3293142178578864,0.017015568912029266,0.0036720186471939087,6.067924074923992,0.003907144069671631
1746232056614989600,10.170989501953125,0.09302883179269653,-0.005342169664800167,-0.022898092375146804,-0.023892831057310104,0.1755816857192201,0.9276168419267301,0.40636106834730046,right,0.0001043081283569336,-0.6664798373067656,0.7160370498437434,-7.674723896268009,-0.328897647480819,0.016614409163594246,0.000995829701423645,6.062696695664525,0.002741873264312744
1746232056654989600,10.210989501953126,0.09189128818022996,0.0021364977583289146,-0.02336535265222489,-0.02951901964843273,0.1758153275163643,0.9276994379190214,0.4063877941015585,right,0.0012972354888916016,-0.6658489171190923,0.7076570517722517,-7.679340450152754,-0.32850670069506344,0.0134551040828228,-0.003118358552455902,6.057832304498553,0.002429783344268799
1746232056694989600,10.250989501953125,0.09103041629422538,0.00411937665194273,-0.023726201656996068,-0.014266816899180412,0.1761003150155583,0.927783630715854,0.4066119741351519,right,0.004059493541717529,-0.665115203912216,0.701449721564725,-7.684370845535397,-0.32809018245114235,0.02050773613154888,-0.004895329475402832,6.052172379040718,0.003107428550720215
1746232056734989300,10.2909892578125,0.09077329421925942,-0.0013640574179589748,-0.023761809862357215,0.006173057481646538,0.17620530990464803,0.9279126920005544,0.40664623947693257,right,0.006431758403778076,-0.6642448303186326,0.699951153570041,-7.689794039627909,-0.32766594973803614,0.02154129184782505,-0.005893304944038391,6.0454538844406605,0.004536092281341553
1746232056774989300,10.3309892578125,0.09092566932454917,-0.01261039450764656,-0.02356121281844768,0.018369819968938828,0.17600731503575848,0.9280409493960353,0.4062075727476466,right,0.005558133125305176,-0.6636787389587434,0.7014335010822862,-7.693094250217079,-0.3274235801294172,0.013946570456027985,-0.007700517773628235,6.041081660705805,0.0031693577766418457
1746232056814989600,10.370989501953124,0.09137985828312317,-0.01916927844285965,-0.02316056264677693,0.033030517399311066,0.17553266659670044,0.9281883054452607,0.40529839511662186,right,0.004536628723144531,-0.6632777546693978,0.7051485030174255,-7.695186838582158,-0.3272892366204996,0.011702753603458405,-0.006986871361732483,6.037983694690466,0.0026646852493286133
1746232056854989600,10.410989501953125,0.0920131431580624,-0.02700169011950493,-0.02260874454104442,0.03390567749738693,0.17481464834343682,0.928367747892877,0.40393510339011196,right,0.000307619571685791,-0.66293707824484,0.7102106087125838,-7.69678667499423,-0.3272031988712438,0.009558439254760742,-0.006965920329093933,6.035351008099317,0.003120899200439453
1746232056894989600,10.450989501953124,0.09222037041823195,-0.029715852811932564,-0.022229420296884784,0.024840420112013817,0.1740704524088018,0.9285483755451127,0.4023735389532484,right,-0.0029075145721435547,-0.662665455884045,0.7119565025318414,-7.698271360594034,-0.3271134851099822,0.010760114528238773,-0.006257928907871246,6.033250820949673,0.0039574503898620605
1746232056934989600,10.490989501953125,0.09193196075037631,-0.025279510766267776,-0.02206766227940862,0.010004754178225994,0.17342941577197643,0.9287469737653152,0.40084018138419186,right,-0.0039064884185791016,-0.6622226833055803,0.7099814030665904,-7.701136102375387,-0.3269011324800289,0.016962232068181038,-0.00434267520904541,6.029827276241779,0.004872143268585205
1746232056974989300,10.5309892578125,0.09116206964742943,-0.022567423060536385,-0.022126886383447328,-0.0009692199528217316,0.17287842002806408,0.9289473702150632,0.3993251202673852,right,-0.0028197765350341797,-0.6617204514256957,0.7043277612190694,-7.704695256161689,-0.3266194535374219,0.016830675303936005,-0.0032557249069213867,6.025942543762922,0.0037944912910461426
1746232057014989300,10.5709892578125,0.0904796058403149,-0.012457667849957943,-0.022194086683971614,0.002078167861327529,0.17250503476424509,0.9291394192704822,0.39820537558457814,right,-0.0004367232322692871,-0.6610552032507859,0.6994315136101097,-7.709164510530233,-0.32626585251163964,0.020047316327691078,-0.004749275743961334,6.0207940749585624,0.0018467307090759277
1746232057054989600,10.610989501953124,0.09025056498720482,-0.0014825481921434402,-0.022165749034252072,-0.0006607840768992901,0.1724132302584929,0.9292842443190829,0.3978418551451183,right,-0.0007137656211853027,-0.6603048410403144,0.698072719412297,-7.713821980947255,-0.32590367933933506,0.016152702271938324,-0.006157085299491882,6.014983927375078,0.0007078051567077637
1746232057094989600,10.650989501953125,0.09024754715113688,0.0030295304022729397,-0.022131478672669905,-0.0015886261826381087,0.1725267780133601,0.9293670669298407,0.39801317320665164,right,-0.0003610849380493164,-0.6596726194097972,0.6983920875597744,-7.717609682792425,-0.3256095826495813,0.013023687526583672,-0.0052242279052734375,6.010086218461394,0.0007089376449584961
1746232057134989600,10.690989501953124,0.09033034430317766,-0.0006580515764653683,-0.02204347045146962,0.002545793540775776,0.1725874941308401,0.9294582658736367,0.39810067732536325,right,-0.0016589760780334473,-0.6590387601361164,0.6993745957911014,-7.721344777667522,-0.32532302114074546,0.01353895291686058,-0.00501665472984314,6.005172727456689,0.0006365776062011719
1746232057174989600,10.730989501953125,0.09038392713541779,-0.0067391106858849525,-0.021934999296850076,0.00985468365252018,0.17252964259614859,0.9295593557102039,0.3979315264126791,right,-0.001982450485229492,-0.6584814498311125,0.7000902697797864,-7.724639143037796,-0.32507210205861026,0.011233866214752197,-0.0035559311509132385,6.000851357126235,-0.0016699433326721191
1746232057214989300,10.7709892578125,0.09058764391523712,-0.012950625270605087,-0.021756941200781317,0.014423303306102753,0.17228336253614548,0.9296132891442596,0.39746446250844164,right,-0.0072324275970458984,-0.6584072919557298,0.701704134717211,-7.724939587289095,-0.3250605047020016,-0.011996593326330185,-0.004596374928951263,6.000276187586784,-0.0001927018165588379
1746232057254989300,10.8109892578125,0.09077583840194639,-0.0072848196141421795,-0.02169798520531637,0.015059253200888634,0.17196680058618807,0.9294910034065108,0.39697227089652004,right,-0.005307137966156006,-0.659488261657915,0.7025695193748921,-7.718343257763982,-0.32558133106608744,-0.03421061486005783,-0.0032420605421066284,6.00865706244111,-0.0027875900268554688
1746232057294989300,10.8509892578125,0.09150473761412078,0.01224592886865139,-0.021566944173205923,0.012368329800665379,0.17190029447820399,0.9292279725843998,0.39726641746783076,right,-0.0028705596923828125,-0.6610784654428855,0.7073212439466268,-7.708304678830504,-0.3263751008162658,-0.041788388043642044,-0.003342650830745697,6.020974107700586,-0.0026878714561462402
1746232057334989600,10.890989501953126,0.09263058737727436,0.026369377970695496,-0.02139885509634041,0.010030282661318779,0.17217894254397964,0.928889453487459,0.3984472142803567,right,-0.002144336700439453,-0.6626871925563492,0.7151023262768983,-7.697848751267791,-0.32720181623222244,-0.0485488697886467,-0.002349577844142914,6.033419163253903,0.002361774444580078
1746232057374989600,10.930989501953125,0.09413820167619802,0.02559814602136612,-0.02115116279294171,0.012332061305642128,0.17258863193461557,0.9284803173428171,0.40007467136053076,right,0.0008999109268188477,-0.6645242247683015,0.7256638331059366,-7.685714076837897,-0.32816191980811255,-0.048534590750932693,-0.0021208301186561584,6.047610770213604,0.0034720301628112793
1746232057414989600,10.970989501953126,0.09556929756968605,0.02402610331773758,-0.0208950427755833,0.008919674903154373,0.17300386522741254,0.9281305044958882,0.40164843786875465,right,0.0029317736625671387,-0.6659969027082874,0.7358113523066043,-7.675793571326136,-0.3289480607332632,-0.02948601543903351,-0.0033013224601745605,6.058973291227221,0.0031735897064208984
1746232057454989300,11.0109892578125,0.09655432954368116,0.018433118239045143,-0.020729899606015408,-0.003056984394788742,0.17340724637998653,0.9279105677258084,0.4029560981702783,right,0.00251692533493042,-0.6667490821460516,0.7429323632929473,-7.67052702910006,-0.3293664076518614,-0.014615355990827084,-0.005026273429393768,6.064771748372912,0.00419241189956665
1746232057494989300,11.0509892578125,0.09694081019024539,0.008713419549167156,-0.020692029315319795,0.0005931374616920948,0.17364767382755134,0.9278121168558725,0.4036441779025281,right,0.0034881234169006348,-0.6670236847118124,0.7457355841454119,-7.668581155729293,-0.3295193514746188,-0.0030961371958255768,-0.005572803318500519,6.066887717613578,0.0028235912322998047
1746232057534989300,11.0909892578125,0.09723768655028875,0.0004839543253183365,-0.02058939708164664,0.0035714858677238226,0.17366621397817922,0.9277874004951026,0.4038004434920132,right,0.0020204782485961914,-0.667114861622348,0.7479584478266537,-7.667809002313017,-0.3295855311520775,-0.003168110502883792,-0.007153131067752838,6.067590312924981,0.0001990795135498047
1746232057574989600,11.130989501953126,0.0976799294883825,0.001140141044743359,-0.020402994155031762,0.02012692205607891,0.1735720822291326,0.9277601412107301,0.403780337551484,right,0.003611326217651367,-0.6673301839159126,0.7512219796672462,-7.6661764326751225,-0.3297233353374714,-0.00859756488353014,-0.00593799352645874,6.069248601526022,-0.0007683634757995605
1746232057614989600,11.170989501953125,0.09892076864257916,0.002679921453818679,-0.019902958122623254,0.038756102323532104,0.17339586224048434,0.927678554374945,0.40390579431143847,right,0.00042700767517089844,-0.6678653162792725,0.7604130749259144,-7.662005868992209,-0.33007617672219397,-0.01787170022726059,-0.004910655319690704,6.073370065370201,0.0020156502723693848
1746232057654989600,11.210989501953126,0.10114235350130814,-0.0008311518467962742,-0.01899945651861165,0.06732556968927383,0.17305881950997237,0.9275370995642983,0.40408479810792125,right,-0.001367807388305664,-0.6688130488761161,0.7768514378990977,-7.6545678279459475,-0.33070329211852617,-0.025157596915960312,-0.00039055943489074707,6.0806643140316,0.004287540912628174
1746232057694989600,11.250989501953125,0.10399777649041164,-0.008742082864046097,-0.01775791684892152,0.07731153815984726,0.17246938660995326,0.9274170650360747,0.40395629817062406,right,-0.004782199859619141,-0.6698229862181917,0.7980673905376344,-7.646206242313981,-0.33141606899064013,-0.025192199274897575,0.003820352256298065,6.088431440901756,0.006055951118469238
1746232057734989300,11.2909892578125,0.10671898028497105,-0.0175275057554245,-0.016507954178808435,0.06587788462638855,0.17171959425775024,0.9273358476298902,0.4034313548893093,right,-0.006475389003753662,-0.6707830680113743,0.8182482279747724,-7.638190693640708,-0.3320965675170945,-0.020680109038949013,0.006518624722957611,6.09580986071527,0.006360173225402832
1746232057774989300,11.3309892578125,0.10836947762213898,-0.022644318640232086,-0.015667818193230557,0.04149779677391052,0.1709652091124065,0.9273068468830745,0.4024937573800774,right,-0.006477952003479004,-0.6715687796870038,0.8303356291968375,-7.632066073280573,-0.3326070352769697,-0.015674740076065063,0.007881969213485718,6.101843880182504,0.004998564720153809
1746232057814989600,11.370989501953124,0.10860667077296182,-0.019867995753884315,-0.015444504067481792,0.004187196493148804,0.1703935107301098,0.9273018902878757,0.40142432440881665,right,-0.009495794773101807,-0.6721968460228672,0.8317303714908659,-7.628057422161102,-0.33292455380974256,-0.014793378300964832,0.0048370361328125,6.10666443220675,0.0023616552352905273
1746232057854989600,11.410989501953125,0.10759808020175265,-0.006066763773560524,-0.015866188446273667,-0.03209993243217468,0.17024823434745404,0.9272614803430382,0.4008160139359462,right,-0.0091666579246521,-0.6727361358716689,0.8236825279831885,-7.62561704327166,-0.33309154667242213,-0.008224766701459885,0.002612560987472534,6.110801678141951,-0.002211928367614746
1746232057894989600,11.450989501953124,0.10576965591294718,0.009816562756896019,-0.016781719843563542,-0.053848691284656525,0.17059284998668536,0.927166615688299,0.40095630324574066,right,-0.006095409393310547,-0.6731703803687401,0.8094581147324293,-7.624470795845985,-0.3331344019253268,-0.011859564110636711,-0.00034292787313461304,6.114131699347496,-0.005399167537689209
1746232057934989600,11.490989501953125,0.1040947260765073,0.029880741611123085,-0.017800674874543503,-0.06371660530567169,0.17137676406766947,0.9269759453649494,0.4021067954635242,right,-0.006617188453674316,-0.6736672532384127,0.7963707426875829,-7.622793802544474,-0.3332098510062325,-0.023637358099222183,-0.003950752317905426,6.117940443980693,-0.004588603973388672
1746232057974989300,11.5309892578125,0.10287014472874878,0.036324791610240936,-0.01881733713763901,-0.0573289655148983,0.17240607614270068,0.9266045792716192,0.40403947761993786,right,-0.012898862361907959,-0.6749036501712669,0.7862580756045877,-7.616233128854632,-0.33365561759557666,-0.050941020250320435,-0.006684951484203339,6.127412036681175,0.0023303627967834473
1746232058014989300,11.5709892578125,0.10095471047951741,0.008946528658270836,-0.02026646177299446,-0.08624783903360367,0.1733166920988175,0.9260008270107903,0.40566126165412725,right,-0.012312054634094238,-0.6777291310728647,0.7699203234616666,-7.6004703270554534,-0.33477324652518353,-0.08900970220565796,-0.007663927972316742,6.149021226420998,0.0064820051193237305
1746232058054989600,11.610989501953124,0.09723173460526725,0.013476625084877014,-0.022363414574408796,-0.1040646955370903,0.17402170989098986,0.9254749557702231,0.40617615472940755,right,-0.0001169443130493164,-0.6805195828210561,0.7399500595465301,-7.586177013286948,-0.33572681215720357,-0.0438847690820694,-0.0035089701414108276,6.170314774340391,-0.002579927444458008
1746232058094989600,11.650989501953125,0.09295965855058105,-0.005941586568951607,-0.0245387565831275,-0.10894972085952759,0.17473252491224586,0.9251487527932291,0.40635842021114343,right,0.007162630558013916,-0.6821569318890892,0.7065959253467619,-7.579198990967869,-0.33610448685030525,-0.06866432726383209,0.006186641752719879,6.182786133378744,0.01316922903060913
1746232058134989600,11.690989501953124,0.0891029961758338,-0.011195288971066475,-0.026535312371524435,-0.0823022723197937,0.17504019961095654,0.9246953817038471,0.40594677707529425,right,0.007893204689025879,-0.6849141268329397,0.6758407946642487,-7.564859499970078,-0.33703910874438775,-0.07315913587808609,0.00474122166633606,6.203750595474243,0.006513833999633789
1746232058174989600,11.730989501953125,0.08536934970677336,0.006286656484007835,-0.028379586151622522,-0.09618368744850159,0.1753195521636657,0.9243652171524785,0.40542499527156994,right,0.01586782932281494,-0.6869381767767411,0.6465197153728455,-7.5548039699017995,-0.3376488962424274,-0.012010190635919571,0.0006455555558204651,6.219110661691427,-0.0004674196243286133
1746232058214989300,11.7709892578125,0.08275311472050614,-0.020165622234344482,-0.029583724378654606,-0.06407599151134491,0.17564256766591194,0.9242956951649488,0.4052048212760804,right,0.012581706047058105,-0.6872548160724885,0.6265895647611469,-7.554507032781839,-0.3375679746629468,-0.0004924898967146873,0.0011424049735069275,6.2215112930923695,0.014422774314880371
1746232058254989300,11.8109892578125,0.07995724620074214,-0.04765316843986511,-0.030592263640121263,-0.04402972012758255,0.17533837817478254,0.9244013740261977,0.4035255562557513,right,0.012109935283660889,-0.6872516710806276,0.6054672817554324,-7.556248323491215,-0.3373465060333139,0.005296079441905022,0.0007036440074443817,6.221487327694892,0.016047179698944092
1746232058294989300,11.8509892578125,0.07679991864921394,-0.06909909844398499,-0.031609627402672986,-0.02685934491455555,0.17441649553617175,0.9244999708662446,0.40046208818983137,right,0.005904018878936768,-0.6879966742961998,0.5812509782571346,-7.553498732522129,-0.33746045850066825,-0.03045588918030262,0.0015210248529911041,6.227133224627376,0.01717698574066162
1746232058334989600,11.890989501953126,0.07392156811798825,-0.08441697806119919,-0.03258998402816552,-0.007400153204798698,0.17312082118509448,0.9243504513006602,0.39688758284705344,right,-0.0013862848281860352,-0.6905526537313348,0.5583296830054372,-7.539243412676453,-0.3384426904890678,-0.07060716301202774,-0.0005990006029605865,6.2464768075227735,0.010099053382873535
1746232058374989600,11.930989501953125,0.07207135035118263,-0.05382827669382095,-0.03326541777381801,0.01314142718911171,0.17192745339445856,0.9240507887353563,0.39397302998673145,right,-0.00550687313079834,-0.693750314610714,0.542938381399773,-7.520302565363049,-0.33980093127454153,-0.0720980241894722,-0.005211770534515381,6.270618730610608,0.0009742975234985352
1746232058414989600,11.970989501953126,0.07173255719620909,-0.033493056893348694,-0.033405451755122495,0.03218401223421097,0.17090197994872622,0.9236758339443641,0.39198378627616026,right,-0.001635134220123291,-0.6970481975624334,0.5389054360892623,-7.499818580260873,-0.34132055968280905,-0.07922881096601486,-0.0031740516424179077,6.295449805006385,-0.0035144686698913574
1746232058454989300,12.0109892578125,0.07177776168298915,-0.01350698433816433,-0.03351674709515862,0.007214050740003586,0.17024139428488566,0.9232360423346853,0.3909181775333994,right,-0.0034478306770324707,-0.7002786118992963,0.5377831540610641,-7.479470204237103,-0.3428261310348646,-0.08138083666563034,-0.0015599951148033142,6.319706878906488,-0.006217002868652344
1746232058494989300,12.0509892578125,0.07172975807970468,-0.0005515646189451218,-0.03394920408314967,-0.02154228650033474,0.17021913964930724,0.9226054615169326,0.3912458767229707,right,-0.0039002299308776855,-0.7039199639375898,0.535771302781999,-7.456493233275413,-0.3444881380437452,-0.10318012535572052,0.0007904209196567535,6.346970733407139,0.0008828043937683105
1746232058534989300,12.0909892578125,0.0708700347336577,-0.0028581037186086178,-0.03477171718664707,-0.048767898231744766,0.17036361614578185,0.9219447651641189,0.39163705006158533,right,-0.009293198585510254,-0.7076074992702696,0.5276996765399351,-7.433554840758442,-0.34609983103016967,-0.08172710239887238,-0.00223604217171669,6.374494700148701,-0.0019402503967285156
1746232058574989600,12.130989501953126,0.0692726417578013,-0.00938975065946579,-0.035776078466754596,-0.046896420419216156,0.17059553404817582,0.9214917400977689,0.3918056939305051,right,-0.004458487033843994,-0.7100668894437495,0.5147380132339895,-7.418726104938983,-0.347088307853464,-0.06440538167953491,-0.0033785514533519745,6.392803094777465,-0.0020836591720581055
1746232058614989600,12.170989501953125,0.06775811645279971,0.0112746711820364,-0.0367158229761948,-0.030802732333540916,0.17074472029826518,0.921050034592842,0.39182344135954544,right,-0.002177119255065918,-0.7125300303478577,0.5024339005213231,-7.403764098128676,-0.34808765614968346,-0.07095852494239807,-0.007351644337177277,6.411100968012214,-0.004790365695953369
1746232058654989600,12.210989501953126,0.06791228426666211,0.03235824406147003,-0.037250580354539826,-0.03255360946059227,0.17141266277269737,0.9203997688404528,0.39365131751247473,right,-0.014261066913604736,-0.7154837232874488,0.5022880988424644,-7.384761876016855,-0.3494199887935809,-0.09155666083097458,-0.01012580469250679,6.432991897302865,0.00895535945892334
1746232058694989600,12.250989501953125,0.06757211814140145,0.038311757147312164,-0.03806389205766122,-0.055244334042072296,0.17230218846258372,0.9197172352549959,0.39577303688101934,right,-0.0022923946380615234,-0.7184092927408178,0.49850313694365317,-7.366123226520418,-0.35068982447825947,-0.061843156814575195,-0.010486051440238953,6.45461920722127,0.00735318660736084
1746232058734989300,12.2909892578125,0.06648341851659605,0.03514143452048302,-0.03908812136175296,-0.04715769365429878,0.17337533916954595,0.9192450037628819,0.39786554653884326,right,0.010384440422058105,-0.7200064737029978,0.4897978524405509,-7.35636638713777,-0.3512859486229324,-0.028087861835956573,-0.006389062851667404,6.466402583995461,0.0068732500076293945
1746232058774989300,12.3309892578125,0.0661486467671185,0.018474124372005463,-0.03958931854788056,-0.005934443324804306,0.17410910075732544,0.9189747037999642,0.3994170164539578,right,0.01533883810043335,-0.7207664289902413,0.48701012141816313,-7.351623576524854,-0.3515738572451174,-0.013855446130037308,-0.0007539577782154083,6.472003472742438,0.0126991868019104
1746232058814989600,12.370989501953124,0.06678420839563921,-0.001735379919409752,-0.039488222121550176,0.01581239327788353,0.17424874142396593,0.9187955809824936,0.40005210609148745,right,0.0041037797927856445,-0.7215698074618033,0.491335291140899,-7.3461226410210125,-0.3519838997091582,-0.026580166071653366,-0.004275616258382797,6.477920587831735,0.014583766460418701
1746232058854989600,12.410989501953125,0.06719421153319526,-0.014915172010660172,-0.03932010125276042,0.02073558047413826,0.17390251443193275,0.9186649806918393,0.3995721382495658,right,0.0022469758987426758,-0.7226318674199285,0.4938849756237119,-7.339051679721474,-0.3525144223772098,-0.018674086779356003,-0.003493562340736389,6.485736230018735,0.006668210029602051
1746232058894989600,12.450989501953124,0.06727047043359792,-0.01770591363310814,-0.039130342355662484,0.021810341626405716,0.17338920109875963,0.9187043466346624,0.39851848836729437,right,0.0012253522872924805,-0.7229469148982937,0.49430725615639237,-7.336974873447418,-0.3526856914824439,-0.0009761638939380646,-0.0035607218742370605,6.488053274789452,-0.0006923675537109375
1746232058934989600,12.490989501953125,0.06795710207175171,-0.003222595900297165,-0.038731556425110565,0.025772517547011375,0.17302535552416012,0.9187485221777577,0.39799924747971893,right,-0.001780390739440918,-0.7230304785679247,0.49930813318360595,-7.336092829915881,-0.35279343232563853,-0.013084550388157368,-0.004725683480501175,6.4886681918174025,-0.0005882382392883301
1746232058974989300,12.5309892578125,0.06914455833001029,0.0042061638087034225,-0.03836046921868373,0.02074894867837429,0.17293879972415457,0.9185545601154455,0.39838618988129204,right,-0.005301952362060547,-0.724108380296732,0.5075355710418895,-7.328513919094204,-0.35338117271935715,-0.042114369571208954,-0.004257231950759888,6.4965902169883245,0.001664280891418457
1746232059014989300,12.5709892578125,0.07022857736574564,0.00388585077598691,-0.03809309973603601,0.020716924220323563,0.17287819293390824,0.9182766113147036,0.3988409199678546,right,0.0004385709762573242,-0.7256301486198674,0.5147852133765817,-7.318088971191644,-0.354161282310168,-0.031326230615377426,-0.001926712691783905,6.507761599344015,0.0034593939781188965
1746232059054989600,12.610989501953124,0.0713443437210068,0.0008742914069443941,-0.03772477334387914,0.032129064202308655,0.1727407448422997,0.9181029343429242,0.39908613771339735,right,0.0014128684997558594,-0.726647808488445,0.5224778137058019,-7.310900520992279,-0.3547176957249238,-0.02503308840095997,-0.001606922596693039,6.5152241903096435,0.0011109113693237305
1746232059094989600,12.650989501953125,0.07309769558509671,0.006769100204110146,-0.03712254188926684,0.03767692297697067,0.17261874041824338,0.9179036956363401,0.39962110123561373,right,0.000042498111724853516,-0.7277352873731588,0.5347777617000044,-7.302901923453807,-0.35535548591014743,-0.03759497404098511,-0.0006523244082927704,6.523190639144182,0.006134033203125
1746232059134989600,12.690989501953124,0.07497421173537361,-0.0021939165890216827,-0.03654185829914971,0.03926900401711464,0.17245399988074372,0.9175812384918711,0.4001946518410746,right,-0.0030518770217895508,-0.7295333448697295,0.5476014047747477,-7.29017805095911,-0.35632716552087723,-0.05387236177921295,-5.103647708892822e-7,6.536346473315358,0.0068247318267822266
1746232059174989600,12.730989501953125,0.07599240580835741,-0.008435139432549477,-0.036319633203671216,0.020288648083806038,0.17222097986819482,0.9172089442713482,0.4003367097935799,right,-0.005880892276763916,-0.7317417053014456,0.5539267353387549,-7.275206107276678,-0.35741937293859566,-0.048212967813014984,0.00008828192949295044,6.55247518581748,0.00561445951461792
1746232059214989300,12.7709892578125,0.076035798898377,-0.027094950899481773,-0.036388856393973885,-0.015000494197010994,0.17192554315279868,0.9169587565027995,0.3999030483742774,right,-0.005047440528869629,-0.7334192557736091,0.5534066569874063,-7.264211250531673,-0.35819567737992514,-0.041528597474098206,-0.0011384859681129456,6.5647057218372815,0.0068010687828063965
1746232059254989300,12.8109892578125,0.07474982937996331,-0.020165788009762764,-0.03685858955434989,-0.030582286417484283,0.17151691713226114,0.9168572459464617,0.39863406712103144,right,0.01392143964767456,-0.7345046594691649,0.5435321825744583,-7.257807228708267,-0.3586031926737673,-0.015014655888080597,0.003076251596212387,6.572609626829624,-0.0039061307907104492
1746232059294989300,12.8509892578125,0.07322376572013167,-0.015742352232336998,-0.03739607652064039,-0.02265217714011669,0.17142630984091206,0.9169272174108396,0.39782081998093477,right,0.017731666564941406,-0.73433911903421,0.5325352800028398,-7.259713354590534,-0.358411983046941,0.014097239822149277,-0.0003678351640701294,6.57140434269309,-0.008092403411865234
1746232059334989600,12.890989501953126,0.07133487542989132,-0.05456630885601044,-0.03792693948484712,-0.001990457996726036,0.17112677626168002,0.9171429441629846,0.3963476040531884,right,0.007909595966339111,-0.7336131440715014,0.5191614191668108,-7.265462711897492,-0.3579469662279835,0.01908550225198269,0.008553717285394669,6.566118511244654,0.015055060386657715
1746232059374989600,12.930989501953125,0.06750374444642619,-0.17221269011497498,-0.03843068692381172,0.021824456751346588,0.16891426536606774,0.9178000328525365,0.38991345164111274,right,0.0022245049476623535,-0.7325504576348333,0.49179311791099606,-7.2743562124490735,-0.35725920340910067,0.07066664844751358,0.008809082210063934,6.558374180728197,0.013388752937316895
1746232059414989600,12.970989501953126,0.06135384044197251,-0.22722551226615906,-0.038846923628873174,0.03504997491836548,0.16489195085399816,0.9192860154478028,0.3783742086072282,right,-0.006693720817565918,-0.7288275178657375,0.4485414937488734,-7.301562783804536,-0.35526722485318224,0.12466442584991455,0.0001891106367111206,6.531184560507535,0.013661861419677734
1746232059454989300,13.0109892578125,0.05494066347957685,-0.1880766749382019,-0.039211085808916024,0.028503239154815674,0.16057705385687823,0.9209305346051762,0.36607791530430406,right,-0.021902024745941162,-0.724356582503385,0.40330585616268216,-7.3333730495631695,-0.3529369925882144,0.11682070791721344,-0.012096824124455452,6.498413340762257,0.000889122486114502
1746232059494989300,13.0509892578125,0.05119569386682178,-0.05742654204368591,-0.03932835446072283,0.017049210146069527,0.1580713811811601,0.9220809807066145,0.3588480657002359,right,-0.026325881481170654,-0.7205785590407344,0.37709352000895885,-7.359298348936438,-0.3510462554363138,0.08221792429685593,-0.011872727423906326,6.47061932490766,-0.010276198387145996
1746232059534989300,13.0909892578125,0.05226715509349843,0.03569170832633972,-0.03855948109692936,0.06451146304607391,0.1576342915216361,0.9224523259120803,0.358145668067991,right,-0.024277567863464355,-0.7188533312206441,0.3855611232986674,-7.370027248221636,-0.3503517501023944,-0.007582619786262512,-0.01023421436548233,6.457896621456742,-0.007277846336364746
1746232059574989600,13.130989501953126,0.0566194394060659,0.07180380821228027,-0.03722742124693497,0.05216352641582489,0.1580625474043403,0.9219552966845028,0.3609316410191734,right,-0.022399604320526123,-0.7209569923386961,0.4168641336549073,-7.354699330708384,-0.3516088700295107,-0.08801072835922241,-0.013584790751338005,6.4734074943214654,-0.010097801685333252
