time,seconds_elapsed,roll,rotationRateZ,quaternionY,rotationRateY,quaternionZ,quaternionW,yaw,devicelocation,accelerationZ,pitch,gravityX,gravityZ,quaternionX,rotationRateX,accelerationX,gravityY,accelerationY
1746232119644954600,0.21495458984375,-1.0150757120963516,0.011509928852319717,-0.4518347176123119,-0.004498039372265339,2.6548647191025695e-17,0.8611858462728521,-0.23173282980920432,right,-0.16193681955337524,-0.4126073736969165,-7.631803038430213,-4.739380053946376,-0.23281806637276334,0.006135176867246628,0.8949739933013916,3.9324592756718393,0.36303001642227173
1746232119684954600,0.25495458984375,-0.4849711311963188,-0.010306628420948982,-0.2318058259835038,-0.004422016441822052,0.10701728635556822,0.9032329423627699,0.045164297833724776,right,0.008399903774261475,-0.7379014937823315,-3.3825121480211613,-6.4190896286785595,-0.3449399690113632,0.012181833386421204,0.4616333842277527,6.597293986231088,0.09034520387649536
1746232119724954600,0.29495458984375,-0.1009682306245208,-0.019996782764792442,-0.10806279701244827,-0.010643448680639267,0.16036432437899611,0.8979567277855657,0.3083313795179763,right,0.016715705394744873,-0.8399693396376133,-0.6597952304009348,-6.512460570815205,-0.39532184465767944,0.01769198477268219,0.1813918501138687,7.302253688678145,0.014451563358306885
1746232119764954600,0.33495458984375,0.03852316871446859,-0.017006052657961845,-0.0671104132193383,-0.0012291595339775085,0.17692666408007196,0.8923224513033032,0.40904848997698656,right,0.009282052516937256,-0.8558571062147258,0.24760272355256602,-6.424190166687965,-0.4098214965469753,0.01671615242958069,0.08911125361919403,7.405325940617918,0.0010187029838562012
1746232119804955000,0.374954833984375,0.11476729212077338,-0.01034027524292469,-0.0449023850795604,-0.010537120513617992,0.18566058671702063,0.8888563741680953,0.46442524007783986,right,-0.00046187639236450195,-0.8587692459567211,0.7337430215999483,-6.3652159996718165,-0.4164709925426592,0.023005425930023193,0.03634261339902878,7.424016612562537,-0.0031902194023132324
1746232119844954600,0.41495458984375,0.15169530657418745,-0.0011181756854057312,-0.03417287255656836,-0.02791031450033188,0.19007049698854195,0.8870739079193785,0.49169059743345234,right,0.0004081130027770996,-0.8585186642812127,0.9685252986818551,-6.335625748050212,-0.41929129943585713,0.025086548179388046,0.013402692973613739,7.422410930931568,-0.007875621318817139
1746232119884954600,0.45495458984375,0.16217708065523403,0.003478589002043009,-0.031080336995756703,-0.016339479014277458,0.19151044271461945,0.8866705398196963,0.49970533133708545,right,0.0001512765884399414,-0.8575292812002177,1.03606468414329,-6.332369961124658,-0.419729657346849,0.0092239361256361,0.007350802421569824,7.41606594581902,-0.003932356834411621
1746232119924954600,0.49495458984375,0.17263411433056347,0.008075353689491749,-0.027987424659503015,-0.004768644459545612,0.19294813974522487,0.8862565658303938,0.5076944699515411,right,-0.00013595819473266602,-0.8564849286599021,1.1035544583093375,-6.328816652557253,-0.4201629117314865,-0.006638675928115845,0.0013039857149124146,7.409360895222425,0.00004762411117553711
1746232119964954600,0.53495458984375,0.17353630341825288,0.024833187460899353,-0.027670277342093645,0.021176503971219063,0.19336364093520567,0.8863832779970175,0.5088213186950395,right,-0.0005945563316345215,-0.8553124250842954,1.1107630745138972,-6.336370428937673,-0.4197253410308854,-0.01477939635515213,-0.0019366070628166199,7.4018234854549165,0.002233743667602539
1746232120004954600,0.57495458984375,0.17494770670032986,0.022375622764229774,-0.027377654946727822,0.017402350902557373,0.19358364500339825,0.8861840061041061,0.5100895931303548,right,0.0011453628540039062,-0.8558180314519408,1.119053640736267,-6.331110900974274,-0.42006385433734955,-0.015271847136318684,-0.0007771700620651245,7.4050745962053535,-0.00028270483016967773
1746232120044955000,0.614954833984375,0.17641970370651086,0.03482596203684807,-0.02701561857560554,0.016289643943309784,0.19395210092912069,0.8860930841169861,0.5115826451964879,right,-0.0008947253227233887,-0.8556406017766671,1.128602390326187,-6.330750250968337,-0.4201091721660567,0.004237056709825993,-0.0014739260077476501,7.403934193998575,-0.0023169517517089844
1746232120084954600,0.65495458984375,0.17789097199829937,0.04727629944682121,-0.026653565874734938,0.015176936984062195,0.19432049387347497,0.8860019172172492,0.5130749367220836,right,-0.002935349941253662,-0.8554616409186239,1.1381498978070914,-6.330387262874841,-0.4201543418806191,0.023745961487293243,-0.0021705254912376404,7.402783270397782,-0.004350185394287109
1746232120124954600,0.69495458984375,0.1763376603930151,-0.001942391972988844,-0.02764565513756279,-0.06582633405923843,0.19524989622538536,0.8858267110580564,0.5144576430296671,right,-0.01031029224395752,-0.8555639322745364,1.1281825574789195,-6.331401408353448,-0.4200286732409426,-0.03916364908218384,0.0011063367128372192,7.403440857523679,0.01954549551010132
1746232120164954600,0.73495458984375,0.1749562550972971,-0.01382494531571865,-0.0283394091643924,-0.018874790519475937,0.1953141096943055,0.8856316866159782,0.5141684627231389,right,0.002795100212097168,-0.8566383065874082,1.1180500166516751,-6.325117798039317,-0.4203636954394303,-0.03748193755745888,0.006455935537815094,7.410345814606547,0.010201811790466309
1746232120204954600,0.77495458984375,0.1726084212934551,-0.0197472982108593,-0.029128850531570494,-0.02105594426393509,0.19504433393842358,0.8856319984664653,0.5125756206432481,right,0.0020461678504943848,-0.8572770664163285,1.1023835148338228,-6.323060865509509,-0.4204344346897616,-0.006664610467851162,0.00018203258514404297,7.414447404706478,0.0038734078407287598
1746232120244954600,0.81495458984375,0.17261959936566193,-0.007458382286131382,-0.029131304956120204,-0.01370873674750328,0.19495669397432971,0.8855934363666126,0.5124388782628697,right,-0.00010770559310913086,-0.8575506826763785,1.1021057208057492,-6.321050110208988,-0.42055617651058225,0.0002292669378221035,-0.0014908015727996826,7.416203308463096,0.001409769058227539
1746232120284955000,0.854954833984375,0.17266575858088304,0.0032628756016492844,-0.029211555167877608,-0.015389000996947289,0.19501299933556882,0.8854962725020625,0.5126688100129168,right,-0.0013580918312072754,-0.8579465320086597,1.1018930279031396,-6.318106457972526,-0.4207290102355122,-0.005888443440198898,-0.0019008293747901917,7.418742471551894,0.00024139881134033203
1746232120324954600,0.89495458984375,0.17260474547196888,0.00521887606009841,-0.02935933468813483,-0.00946842785924673,0.19521009056538335,0.8854148650055741,0.5131237003835594,right,-0.0011719465255737305,-0.8581359959205488,1.1012660551112146,-6.3167889456331725,-0.420798573423496,0.0007339194416999817,-0.0022482573986053467,7.419957692560553,0.0004774332046508789
1746232120364954600,0.93495458984375,0.17221787429729216,0.0010064276866614819,-0.029519475302925778,-0.014568331651389599,0.19537994917543824,0.8854534772112097,0.5132615517741432,right,-0.0007465481758117676,-0.8578325739493822,1.0992078804723917,-6.319431569096445,-0.42062720739635895,0.005387868732213974,-0.001107044517993927,7.418011819189786,0.0031104087829589844
1746232120404954600,0.97495458984375,0.17183135748148146,-0.0032060211524367332,-0.029679585595840805,-0.01966823637485504,0.19554988942303184,0.8854920684230552,0.5133999864667348,right,-0.0003216266632080078,-0.8575294854458209,1.0971497788988054,-6.32207185447216,-0.4204558926848869,0.010041818022727966,0.000034183263778686523,7.416067114862799,0.00574338436126709
1746232120444954600,1.01495458984375,0.1706769825062897,-0.009801898151636124,-0.030018000924099297,-0.0076004574075341225,0.19549835390626993,0.8855795196429573,0.5126971077501734,right,0.0006244182586669922,-0.8573404463015888,1.0900890467323363,-6.324715646979213,-0.42027154886601664,0.0012669442221522331,0.000017970800399780273,7.4148542319417,0.004128634929656982
1746232120484954600,1.05495458984375,0.17110293612605001,0.000630631111562252,-0.02987284466419328,0.0032204585149884224,0.19550419899111995,0.8855670499596117,0.5129103826299506,right,0.00017178058624267578,-0.8573301649643678,1.092796040668711,-6.324325770878791,-0.42030551526036025,0.004938524216413498,-0.0007699579000473022,7.414788180968165,0.001660764217376709
1746232120524955000,1.094954833984375,0.1715288176010424,0.011063159443438053,-0.02972772922305631,0.014041373506188393,0.19551007439784543,0.8855545289606009,0.513123686315185,right,-0.0002809762954711914,-0.8573198087944636,1.095502450083196,-6.32393589477837,-0.4203394711578087,0.008610103279352188,-0.0015577971935272217,7.414721545472741,-0.0008069276809692383
1746232120564955000,1.134954833984375,0.1725153145976816,0.008568349294364452,-0.02941175172688493,0.007209425326436758,0.195660959716737,0.885548975371564,0.5138753409050969,right,-0.0037363767623901367,-0.8570388882095074,1.1020979028254747,-6.3249032785058015,-0.420303032668676,0.004189461003988981,0.00046071410179138184,7.412918295443058,0.005001425743103027
1746232120604954600,1.17495458984375,0.17254415642940826,-0.0016892394050955772,-0.029302574056405573,0.007578876800835133,0.19551905548646334,0.885617714194938,0.5135313491905666,right,-0.003307640552520752,-0.8568567808437748,1.1025121096495538,-6.326201501622796,-0.42023190904747115,-0.0012913667596876621,0.00004122406244277954,7.411749251663684,0.003895401954650879
1746232120644954600,1.21495458984375,0.17257309960618633,-0.011946828104555607,-0.02919337072809423,0.00794832780957222,0.19537709994052493,0.8856864226964374,0.5131873284931815,right,-0.002878904342651367,-0.8566746767174832,1.1029269740607588,-6.3274991402179,-0.4201607702653282,-0.006772194057703018,-0.0003783181309700012,7.4105796233624215,0.0027894973754882812
1746232120684954600,1.25495458984375,0.17342829353192968,-0.00014741206541657448,-0.028824780048489745,0.02522215247154236,0.19511550386347026,0.8856581285321773,0.5130594951975531,right,-0.0006809830665588379,-0.8569540457751066,1.1079804580580443,-6.32451398692727,-0.42036730019438096,-0.007892192341387272,-0.0002653077244758606,7.41237352104187,0.0004476308822631836
1746232120724954600,1.29495458984375,0.17427093202632482,0.005985748488456011,-0.028498435289771303,0.02728896029293537,0.19495872132851336,0.8856212888431362,0.5131488392651539,right,-0.0006821751594543457,-0.8571656626580784,1.1130373761214316,-6.32203327602744,-0.4205399451310773,-0.004671184346079826,0.00003508478403091431,7.413732534435391,-0.00045293569564819336
1746232120764954600,1.33495458984375,0.17537636045273966,0.0009980807080864906,-0.02808206810989426,0.0202451441437006,0.19477623427468665,0.8855669067247879,0.5133194899495773,right,-0.0021289587020874023,-0.8574465588934894,1.119661908827722,-6.318748263007402,-0.42076701876107286,-0.015155026689171791,0.0007485449314117432,7.415535199943184,0.002080202102661133
1746232120804955000,1.374954833984375,0.17556899153383282,-0.008702171966433525,-0.027996816850319215,0.006292469799518585,0.1944399688289763,0.8854663828187848,0.5128160545120141,right,-0.0014626383781433105,-0.8582460382145546,1.1198430375482886,-6.312692616230249,-0.4211394477922479,-0.009556390345096588,-0.00019215047359466553,7.420663210481405,-0.000029206275939941406
1746232120844954600,1.41495458984375,0.17516684390189666,-0.010467148385941982,-0.028090325333932013,-0.0033423006534576416,0.19429109192115124,0.8854802541105146,0.5123196040067721,right,-0.003138601779937744,-0.8583971607246849,1.1171089364092797,-6.31203853623569,-0.42117282346767776,-0.001873738132417202,0.00009880959987640381,7.421631763252615,0.0006245970726013184
1746232120884954600,1.45495458984375,0.17455649773251491,-0.0073025585152208805,-0.028218356374475066,0.006265114061534405,0.1941036918266307,0.8855313178400813,0.5116154992144969,right,-0.001605987548828125,-0.8584431230894859,1.1131970236625521,-6.312383404150605,-0.42114338064401147,-0.0014286944642663002,0.00025879591703414917,7.421926362285017,0.0014969706535339355
1746232120924954600,1.49495458984375,0.17432578210669947,-0.00440507335588336,-0.028200385761516768,0.006559822708368301,0.19387600684222553,0.8855749857735049,0.5110046795818877,right,-0.0015959739685058594,-0.8585072785992582,1.1116579044617712,-6.31217005366087,-0.4211574780138965,-0.0017213344108313322,-0.0006646141409873962,7.422337865695357,-0.0012969374656677246
1746232120964954600,1.53495458984375,0.17432063215706983,-0.004487385507673025,-0.028160594928576317,0.003942723385989666,0.19375551648770165,0.8855826451748667,0.5107485667405367,right,-0.00414121150970459,-0.8585973103448605,1.1115095820322631,-6.3115183117538685,-0.42119959847953004,-0.00657711923122406,-0.0005187243223190308,7.422914788800478,0.0012486577033996582
1746232121004954600,1.57495458984375,0.1748010008234739,0.0033063553273677826,-0.028049946218386666,0.004949475638568401,0.1937190509887078,0.8854895808951067,0.5109780938020858,right,-0.0051871538162231445,-0.8590040396145356,1.1140160849604754,-6.3080100113719695,-0.42141928230625103,-0.021060429513454437,0.0010871216654777527,7.4255205873847006,0.004872500896453857
1746232121044955000,1.614954833984375,0.17528933986301207,0.007805035449564457,-0.028016278654734765,0.005678422749042511,0.1937708910340149,0.8853319001250595,0.5114551288905291,right,-0.00013870000839233398,-0.8596245879956774,1.1162926515903324,-6.3029264244973655,-0.4217289007536055,-0.021138781681656837,0.0019008070230484009,7.42949416719079,0.004058897495269775
1746232121084954600,1.65495458984375,0.17612249043498024,0.0033453581854701042,-0.027948756297355788,-0.0013199389213696122,0.19392938400777143,0.8851002282381831,0.512376628382008,right,0.0016588568687438965,-0.8604320654446794,1.1204920760415493,-6.296086349344253,-0.4221466641899493,-0.005327284336090088,0.0011931955814361572,7.43466075617373,0.00514143705368042
1746232121124954600,1.69495458984375,0.1761418019101728,0.0013576089404523373,-0.02798936590642093,-0.006474392022937536,0.19399246622583854,0.8850652933085743,0.5125484692918189,right,0.0018935799598693848,-0.8605293728358019,1.1204869614750146,-6.295352774372697,-0.42218827965243705,0.002382394392043352,0.0001375451683998108,7.435282687464356,0.0036847591400146484
1746232121164954600,1.73495458984375,0.17575894355669205,-0.0028720679692924023,-0.02810143147019017,-0.0018142600310966372,0.19398442187130008,0.8850973024607242,0.5123300911143648,right,0.0006187558174133301,-0.8604441546509586,1.1181873062305152,-6.296404329252242,-0.42211731372256645,0.0032782694324851036,-0.00021075457334518433,7.434737913063168,0.0005686283111572266
1746232121204954600,1.77495458984375,0.17564309285281993,-0.00007844413630664349,-0.028145695979118934,-0.0034363397862762213,0.19395868013121867,0.8850863843594176,0.5122365200052263,right,0.00024813413619995117,-0.8605404557418814,1.1173328082930296,-6.295829159712791,-0.42214911159651686,-0.0015728110447525978,-0.0007738620042800903,7.435353999134898,-0.00013077259063720703
1746232121244954600,1.81495458984375,0.17608193314369167,0.000008405972039327025,-0.028021944420521794,0.014846494421362877,0.19392673090378704,0.8850294972434617,0.5124222934258226,right,0.0013165473937988281,-0.860776269454234,1.1197883116863667,-6.29361148366332,-0.4222912320798403,-0.005388998426496983,-0.001083090901374817,7.4368614810884,0.0008795857429504395
1746232121284955000,1.854954833984375,0.17714646064054385,0.001961220521479845,-0.02768210963322305,0.020531097427010536,0.19377648989434632,0.8849135130616366,0.5127030387409496,right,-0.0007383227348327637,-0.8613187413974426,1.1257763000547885,-6.2884437256366015,-0.42262549099711494,-0.012321044690907001,-0.0011223182082176208,7.44032828041613,0.0032132863998413086
1746232121324954600,1.89495458984375,0.17783058054868905,-0.0017719974275678396,-0.02744118054841106,0.02076701819896698,0.19358394699584383,0.8848322115919716,0.5126941318050494,right,-0.0013609528541564941,-0.8617985478622568,1.1294465130001305,-6.284158011141419,-0.4228996315152601,-0.0083872489631176,-0.0003585144877433777,7.443392344161867,0.0029282569885253906
1746232121364954600,1.93495458984375,0.1783897774722808,-0.0047300150617957115,-0.027173670122996946,0.01858481764793396,0.19331031291169173,0.8848090584559927,0.5124066105922547,right,-0.0036902427673339844,-0.8621052772122049,1.1325552196051925,-6.281278071790934,-0.4230904598338293,-0.007229330949485302,-0.0008973777294158936,7.4453504924923175,0.0038208961486816406
1746232121404954600,1.97495458984375,0.17929886686196198,0.0015240621287375689,-0.0267690571783264,0.01985819637775421,0.19302207038173652,0.8847903582972606,0.5122409774368287,right,-0.0031710267066955566,-0.862351094929266,1.1379385200787335,-6.278444894191622,-0.4232869202637671,0.00287898862734437,0.0003596097230911255,7.4469193492442365,0.0032007694244384766
1746232121444954600,2.01495458984375,0.18010407585288213,0.007801730185747147,-0.026468988021205588,0.012913009151816368,0.19302639959537063,0.884795685688588,0.5126036361020258,right,-0.0030112266540527344,-0.8621958822181213,1.1432006053254007,-6.278663505378365,-0.4232926288282576,0.003492955584079027,-0.00004338473081588745,7.4459285846412175,0.0029761195182800293
1746232121484954600,2.05495458984375,0.18077046217171522,0.006941326428204775,-0.026235208420872173,0.0018523363396525383,0.1931469977690769,0.8848238139884697,0.5131194754450807,right,-0.0028464198112487793,-0.8618340385937568,1.1478688163321464,-6.280550926560164,-0.42319350350911916,0.010495406575500965,-0.0007585585117340088,7.443619138655066,0.002694427967071533
1746232121524955000,2.094954833984375,0.1808832791769746,0.0036246839445084333,-0.026167608441073135,-0.002553497441112995,0.19324914869143361,0.8848905432662537,0.5133124498935187,right,-0.002558290958404541,-0.861394424395786,1.1491660165358335,-6.283640124747157,-0.42301156348028485,0.012549396604299545,-0.00044596195220947266,7.440811680018902,0.002460479736328125
1746232121564955000,2.134954833984375,0.18099565110407623,0.0003080416936427355,-0.026100051612065776,-0.006959330756217241,0.1933511969824619,0.8849572119002881,0.5135048932678536,right,-0.0022701621055603027,-0.8609547382182912,1.1504608786519617,-6.286728153890371,-0.42282957971625323,0.01460338570177555,-0.00013314932584762573,7.438001883295178,0.0022268295288085938
1746232121604954600,2.17495458984375,0.18065065049816814,0.002585651818662882,-0.026175566298780553,-0.005207516718655825,0.1934572226762133,0.8850559314947529,0.5134701619477973,right,-0.0012635588645935059,-0.8604303192603489,1.148992559665069,-6.290960676893592,-0.4225696466149676,0.0028580250218510628,-0.0018942579627037048,7.434649650257826,0.002245783805847168
1746232121644954600,2.21495458984375,0.18060184732183235,0.0028372888918966055,-0.026167587968647914,-0.0006019931752234697,0.19353546757931586,0.8851141427969357,0.5135506481381711,right,0.000012099742889404297,-0.8600804563868037,1.1491526455976069,-6.29357524330616,-0.4224123784164654,0.009821578860282898,-0.003411009907722473,7.432411515942215,0.0009842514991760254
1746232121684954600,2.25495458984375,0.18054548679441834,0.00279101706109941,-0.026100858672658614,0.011774052865803242,0.193537705998372,0.8852189680963605,0.5134262850207907,right,0.004080414772033691,-0.85958903446946,1.1494536743707955,-6.297232596769929,-0.4221957481202533,0.020101629197597504,-0.0017296597361564636,7.429266788175702,0.00042122602462768555
1746232121724954600,2.29495458984375,0.18113524942587336,0.001725939568132162,-0.025695749402070003,0.012838512659072876,0.19344018185468706,0.8854069791684003,0.5133023193451042,right,-0.001360177993774414,-0.8587033560384523,1.1543521870020776,-6.303022870609164,-0.421870836607453,0.021036366000771523,-0.000646643340587616,7.423594587758183,0.001241922378540039
1746232121764954600,2.33495458984375,0.18134647028280954,-0.0028847623616456985,-0.025401634403163995,0.0043566287495195866,0.19330706859956218,0.885617023652137,0.512915659293786,right,-0.006452620029449463,-0.8578089041163395,1.1568806095011532,-6.309307649967074,-0.42150870010287045,0.016826311126351357,-0.003038451075553894,7.417859843498468,0.004134476184844971
1746232121804955000,2.374954833984375,0.1811706864381247,0.0037278542295098305,-0.02535682522391178,0.005593797657638788,0.1932405283364802,0.8857244787009729,0.5125953484891831,right,-0.004608869552612305,-0.8573943353594511,1.1563256059668958,-6.312535964363813,-0.42131613398904266,0.01753869652748108,-0.004295229911804199,7.415200268900394,0.00018280744552612305
1746232121844954600,2.41495458984375,0.18169244785471658,0.017575863748788834,-0.0250698706411512,0.010565800592303276,0.19338608398996085,0.8858855340467877,0.5129632035117864,right,0.00004780292510986328,-0.8563924026742428,1.1609609376173466,-6.319235754263401,-0.420927731569434,0.02780325897037983,-0.0028715580701828003,7.408766436460613,-0.0008251070976257324
1746232121884954600,2.45495458984375,0.1834935958889764,0.030281202867627144,-0.024318147997721314,0.029883576557040215,0.19372957955894748,0.8861004791304558,0.514243917674161,right,0.0005404949188232422,-0.8547186836518648,1.17460177882649,-6.329316418772936,-0.42036090130595266,0.029543548822402954,-0.0009757131338119507,7.398002465862035,0.0006873607635498047
1746232121924954600,2.49495458984375,0.1849957034940547,0.015856320038437843,-0.023709878138759015,0.0371689610183239,0.1938048345471573,0.8861837859559321,0.5149750251133003,right,-0.002860844135284424,-0.8539983126957681,1.1850878092665225,-6.332782633578777,-0.4201854320274228,0.01218755729496479,-0.0003746524453163147,7.393363115623593,0.004156291484832764
1746232121964954600,2.53495458984375,0.18662444960369592,0.0014378959313035011,-0.02304929550633656,0.031205765902996063,0.19362581676917479,0.8861862167344359,0.5153241014945397,right,-0.005425751209259033,-0.853906842361492,1.1955262011725454,-6.33150779133737,-0.42029949447624443,-0.006654120981693268,0.0008059516549110413,7.392773917558789,0.003407418727874756
1746232122004954600,2.57495458984375,0.18725977579242198,-0.01833534426987171,-0.022664297160637246,0.017424341291189194,0.1931333843687468,0.8861935667155774,0.5145931494793544,right,-0.004139125347137451,-0.8542809058400348,1.1990335517063737,-6.328029301571846,-0.42053136095128296,-0.00208386336453259,-0.0005887001752853394,7.395183316788077,-0.00034672021865844727
1746232122044955000,2.614954833984375,0.18695197171640088,-0.015262333676218987,-0.022587345209190448,0.0117340087890625,0.19280752974613732,0.8863079997805053,0.5136785580771888,right,-0.004640460014343262,-0.8541236441560773,1.197301832542941,-6.3295408751785756,-0.420443866717441,0.006451205350458622,-0.00018506497144699097,7.39417034035325,-0.0018114447593688965
1746232122084954600,2.65495458984375,0.18683800099758166,-0.0029182210564613342,-0.022461339469638388,0.0022621294483542442,0.19252892927745685,0.8864112384358412,0.5129567804237962,right,-0.008249938488006592,-0.853938218041809,1.1968350918140263,-6.3310243917346,-0.42036065336074263,-0.0027445880696177483,-0.0033200308680534363,7.39297616213262,-0.0032632946968078613
1746232122124954600,2.69495458984375,0.1869605735696231,0.008767054416239262,-0.022506943302929794,0.0012576424051076174,0.1925977347565129,0.8863274839877959,0.5132354217118409,right,-0.0039632320404052734,-0.8542477466513403,1.1971858780130744,-6.328629605552554,-0.4205034262070336,-0.010857963003218174,-0.0032075047492980957,7.3949699662983415,-0.004908263683319092
1746232122164954600,2.73495458984375,0.1874133029121181,0.010684723034501076,-0.022430391411337677,0.0014561450807377696,0.19266491445150852,0.8862421457902283,0.5136575650881003,right,-0.006383657455444336,-0.85451170635938,1.1996871933095157,-6.326169352918863,-0.4206566475780401,-0.018013160675764084,-0.00435648113489151,7.39666975595355,-0.0027002692222595215
1746232122204954600,2.77495458984375,0.1883155439584121,0.018842224031686783,-0.022391185691487906,-0.003176488447934389,0.1929372148981253,0.8859864730352142,0.514867826510898,right,-0.0022223591804504395,-0.855301616466012,1.2043002400629221,-6.319342721769213,-0.42107224253073094,-0.020002640783786774,-0.002662941813468933,7.401753927350044,-0.002945244312286377
1746232122244954600,2.81495458984375,0.18950549033632755,0.023224646225571632,-0.022336048697835183,0.0011948944302275777,0.1934133038611274,0.8856937127089183,0.5166583963202592,right,-0.0034345388412475586,-0.8560063274386813,1.2108360715724527,-6.312780294513702,-0.42147229678815556,-0.023727236315608025,-0.0007895752787590027,7.406285141038894,0.0006144046783447266
1746232122284955000,2.854954833984375,0.19069189907564835,0.02475162222981453,-0.022203618610033487,0.007320967968553305,0.19376719338378673,0.8854523953545718,0.5181476008050293,right,-0.003952145576477051,-0.8565917033269675,1.2175029090505092,-6.307081790611147,-0.4218238062350373,-0.028699727728962898,-0.0017043352127075195,7.410046539399027,0.003090798854827881
1746232122324954600,2.89495458984375,0.1921992041868023,0.024565082043409348,-0.022011218066477295,0.009578710421919823,0.1941366048297936,0.8851479017392353,0.5198755485344554,right,-0.006263852119445801,-0.8574055132464892,1.2258559460498393,-6.29931817087233,-0.4223028185543054,-0.02677401714026928,-0.002232596278190613,7.415271580570936,0.003494441509246826
1746232122364954600,2.93495458984375,0.19435111269232141,0.023436492308974266,-0.021632963893494596,0.01827128604054451,0.19451058244896538,0.8847836584820128,0.5219605248185133,right,-0.01013094186782837,-0.8583865561580607,1.2380030415698886,-6.289524506610632,-0.42291311426263856,-0.016308512538671494,-0.002391427755355835,7.421563958713412,0.0022400617599487305
1746232122404954600,2.97495458984375,0.19564960899608155,0.012565975077450275,-0.021237697431227425,0.02747824229300022,0.19453470155349356,0.8846901151494042,0.5226791731962163,right,-0.021093785762786865,-0.8585855413111441,1.245881812120974,-6.286462780952453,-0.4231176590362828,-0.013762082904577255,-0.0033569633960723877,7.422839385476708,0.004018664360046387
1746232122444954600,3.01495458984375,0.19666066986045988,-0.0012089116498827934,-0.020930845165598837,0.0038926489651203156,0.1944222658501979,0.8845730691197576,0.5230182884908421,right,-0.030615031719207764,-0.8590874619670701,1.2515088582225142,-6.28154519829452,-0.4234291405093172,-0.01133018173277378,-0.009248904883861542,7.426055424913764,-0.002819359302520752
1746232122484954600,3.05495458984375,0.195662204885236,-0.00803450122475624,-0.02136845361514998,-0.025344185531139374,0.19437759929082454,0.884482636027895,0.5225809603961912,right,-0.027701616287231445,-0.8597364855818648,1.2442992191046476,-6.278063201397657,-0.4236168591403888,-0.02663731575012207,-0.009188398718833923,7.4302107910275454,0.0013089179992675781
1746232122524955000,3.094954833984375,0.1953657420969815,0.0034043211489915848,-0.02166873572580129,-0.010612624697387218,0.1945177036353543,0.8843104387486046,0.5229134656375748,right,-0.022306621074676514,-0.8604595560656151,1.241394729834795,-6.273159647265076,-0.42389661830091657,-0.03600987046957016,-0.00603213906288147,7.434836697262525,0.001795947551727295
1746232122564933000,3.13493310546875,0.19420884970542965,0.00418864656239748,-0.02267818217726794,-0.06048251688480377,0.19490486670552562,0.8837712127201447,0.5237470928931878,right,-0.03458419814705849,-0.8628112265896928,1.230758769530058,-6.257418472775816,-0.42478954308053896,-0.08964060992002487,0.0046383473090827465,7.449854233652353,0.005962118040770292
1746232122604933000,3.17493310546875,0.19384417168061474,0.07896215468645096,-0.024693733447515492,-0.10279905050992966,0.19696607703201202,0.8822935909776113,0.5293102423208065,right,-0.010780751705169678,-0.8676965458057911,1.2214512082848696,-6.222078863847256,-0.4267932660345323,-0.12756462395191193,0.007783457636833191,7.480920403045415,0.021751999855041504
1746232122644932900,3.214932861328125,0.19601635985250915,0.1385858654975891,-0.026302488399478546,-0.12018577009439468,0.20013233854901558,0.8805858019042538,0.5385069766050019,right,0.02295583486557007,-0.8720116004365693,1.2286653043821454,-6.187690856555104,-0.4287467299687163,-0.11776331067085266,0.013679325580596924,7.508211730074882,0.039598703384399414
1746232122684932900,3.254932861328125,0.1988888914892615,0.13887272775173187,-0.027539006241191117,-0.11672511696815491,0.2037991494697181,0.8791792514765113,0.5487326307894824,right,0.05322921276092529,-0.874175517084415,1.2432213607400655,-6.168194128924608,-0.4298269648040582,-0.0331379771232605,0.02136939764022827,7.5218451186299315,0.04681038856506348
1746232122724932900,3.294932861328125,0.1997548921398944,0.08564309775829315,-0.028439221374447175,-0.1178404912352562,0.20685471285205656,0.8787708330475383,0.5557472332065944,right,0.06607109308242798,-0.872600154471892,1.2509124997645615,-6.178721952679753,-0.4291434112983504,0.0945374071598053,0.017688050866127014,7.511923444074392,0.03317427635192871
1746232122764932900,3.334932861328125,0.19627031245008164,0.009152524173259735,-0.029555233950497882,-0.12216011434793472,0.20882144769955546,0.8795469841584872,0.5573266306842646,right,0.07267498970031738,-0.8673657222563125,1.2370257209703326,-6.221524152573942,-0.4265173520018423,0.19141346216201782,0.01586093008518219,7.47882255398333,0.008943796157836914
1746232122804933000,3.37493310546875,0.18920632813158325,-0.060455791652202606,-0.030860117284453873,-0.09511753171682358,0.20937485710495632,0.8811598437024699,0.5535877956963063,right,0.07085442543029785,-0.8603123863973058,1.2029380117990076,-6.281760886871814,-0.42280846008639966,0.21326492726802826,0.0071711465716362,7.43389503249824,-0.01087731122970581
1746232122844933000,3.41493310546875,0.18072670734621055,-0.09414781630039215,-0.032360368949169625,-0.0764235407114029,0.20880412825685682,0.882835403639445,0.5469435626163964,right,0.05255001783370972,-0.8543745026614844,1.157542507475987,-6.335047655901312,-0.41947023494298913,0.14696308970451355,0.003827393054962158,7.395786543378233,-0.008061110973358154
1746232122884933000,3.45493310546875,0.17315393597310244,-0.11404071748256683,-0.03389887766205643,-0.0340224951505661,0.2073861614853695,0.8838544281104069,0.5397005551249388,right,0.03325152397155762,-0.8522929324783577,1.1121858738586305,-6.3587827517539255,-0.41790332544222597,0.03572981059551239,0.002171352505683899,7.38236533626914,-0.0009593963623046875
1746232122924932900,3.494932861328125,0.1677845234426769,-0.10028837621212006,-0.03498152654383888,-0.0008390136063098907,0.205573677728449,0.8843360597411798,0.5331731413659497,right,0.01901543140411377,-0.8528226722788468,1.0773737959355116,-6.360805782014131,-0.41769062542887064,0.009747711941599846,0.00228969007730484,7.385783620280027,-0.005529999732971191
1746232122964932900,3.534932861328125,0.1642765494412397,-0.07961896061897278,-0.035378232168087054,0.0314757265150547,0.20387917274862005,0.8848469719734586,0.5276754317090723,right,0.014296174049377441,-0.852770345923272,1.0551168828766793,-6.364927245858311,-0.417405582791587,0.034826237708330154,0.0071421414613723755,7.385446351149678,-0.00278627872467041
1746232123004932900,3.574932861328125,0.16272056429928453,-0.061923060566186905,-0.03485305396020021,0.07355423271656036,0.2022249655617421,0.8856088477007588,0.5228822332015092,right,0.0199316143989563,-0.8511714096807756,1.0471236191004514,-6.378205829626322,-0.416638048952599,0.07759993523359299,0.015892527997493744,7.375120771968365,-0.00885629653930664
1746232123044933000,3.61493310546875,0.16294880758838673,-0.04958896338939667,-0.03352417205179757,0.07788950204849243,0.20064357524406098,0.8865687617925524,0.5188386357124044,right,0.006954014301300049,-0.8482671666984499,1.0520497503910213,-6.399075599175691,-0.41546851709254934,0.07698703557252884,0.01616372913122177,7.356317871820926,-0.000004708766937255859
1746232123084933000,3.65493310546875,0.1635972165806836,-0.058427441865205765,-0.03229818231729406,0.08678695559501648,0.19910372257761771,0.8872329503255537,0.5153479653510676,right,0.0037651658058166504,-0.8466515537773145,1.0581330888926983,-6.410109618887305,-0.4148881658168639,0.036433421075344086,0.025300554931163788,7.3458309645980595,0.007069647312164307
1746232123124933000,3.69493310546875,0.1651073394956576,-0.06802491843700409,-0.03069399839179135,0.11897167563438416,0.19705441552653113,0.8877917588814738,0.5112948572554185,right,-0.014471769332885742,-0.8459423083000309,1.0686679269105195,-6.4136418846666805,-0.414792904026133,0.03859759494662285,0.022289015352725983,7.34122142497599,-0.00037384033203125
1746232123164932900,3.734932861328125,0.16637608959852868,-0.023312054574489594,-0.02929922329660209,0.04209639132022858,0.1955283445681145,0.8883817733953714,0.5081718110814821,right,-0.042019546031951904,-0.8445375338014637,1.0785112024676053,-6.422444784325361,-0.41435250232922544,0.050959378480911255,0.017438717186450958,7.332080087143182,-0.010169386863708496
1746232123204932900,3.774932861328125,0.16686283964250173,0.027019605040550232,-0.028836100501917806,-0.016016189008951187,0.19564355280470128,0.8887605643319354,0.5082571121505142,right,-0.04461228847503662,-0.8425146263664153,1.084098428015411,-6.436532346388697,-0.41351744142461394,0.03852915018796921,0.025414898991584778,7.318890935224294,0.0006105303764343262
1746232123244932900,3.814932861328125,0.16788356020516806,0.029812689870595932,-0.0285832400500802,-0.0015589352697134018,0.19646631717530258,0.8888834638567087,0.510260329239074,right,-0.029634714126586914,-0.8408887302517427,1.092654659436643,-6.447146094861626,-0.41288018185598463,0.021120401099324226,0.037893109023571014,7.308269003444909,0.00768589973449707
1746232123284933000,3.85493310546875,0.16888884927585301,-0.029635358601808548,-0.02793016494597422,0.032108888030052185,0.1964567213728224,0.8892106638400856,0.5103615004439218,right,-0.02949237823486328,-0.8391607828539296,1.1012564105000346,-6.4584828969120975,-0.4122243491417652,0.043080221861600876,0.03351549804210663,7.296959089401364,0.014244377613067627
1746232123324933000,3.89493310546875,0.16635265071382485,-0.09225356578826904,-0.028037090435786234,-0.024701714515686035,0.1953669309654971,0.8898601206143734,0.5064203843447989,right,-0.02416837215423584,-0.8375594740261566,1.08680629873462,-6.472770365461707,-0.41133257128540174,0.05113029107451439,0.020936883985996246,7.286458153653144,0.00997304916381836
1746232123364933000,3.93493310546875,0.16025092747889091,-0.13494029641151428,-0.028964997658595122,-0.005114838480949402,0.19347945782481654,0.890872418033956,0.4989760473549859,right,-0.00696253776550293,-0.8355488607419519,1.0496268340930341,-6.493730735903978,-0.4099669628671804,0.07974854856729507,0.011317409574985504,7.273246789902449,0.007130146026611328
1746232123404932900,3.974932861328125,0.15437514742581854,-0.13372372090816498,-0.02944765476039703,0.019472159445285797,0.19103210215635127,0.8921454096676587,0.4902623133234084,right,-0.007441878318786621,-0.8327616973031535,1.014566261301562,-6.519791059833764,-0.4083086986372819,0.10035473108291626,-0.007641971111297607,7.254884619259834,0.0013892650604248047
1746232123444932900,4.014932861328125,0.14906074058070315,-0.10842113196849823,-0.02965631214557194,0.007109642960131168,0.18877456160050501,0.8935850470235085,0.4820548218773899,right,-0.016642510890960693,-0.8288092085587644,0.9841540988378226,-6.553396976837515,-0.4061899309995901,0.1401263326406479,-0.021504007279872894,7.228748892006277,-0.005941271781921387
1746232123484932900,4.054932861328125,0.14377949207603727,-0.08338746428489685,-0.02997538276181764,-0.013137643225491047,0.18718990991252776,0.8951421723487758,0.4751724346768278,right,-0.02494913339614868,-0.8235079447965278,0.9550080107871443,-6.596337123897671,-0.40346235740544123,0.1521528959274292,-0.022924579679965973,7.193516250583529,-0.00627589225769043
1746232123524932900,4.094932861328125,0.1389856542228702,-0.07048080116510391,-0.030327048445107262,-0.011265827342867851,0.18598327015306854,0.8965883369505018,0.46940788318980264,right,-0.035870492458343506,-0.818233273620026,0.9286191855553537,-6.638325669321417,-0.40077408670962533,0.12755364179611206,-0.01993291825056076,7.158260228285193,-0.006473183631896973
1746232123564933000,4.13493310546875,0.1340463069032697,-0.07225815951824188,-0.03103744143502011,-0.038618944585323334,0.18488845536232396,0.8977020752461006,0.46412487000656405,right,-0.044010043144226074,-0.8144592954439857,0.899423047817871,-6.669556673887372,-0.39872789124728186,0.07831119745969772,-0.019350051879882812,7.132912436538934,-0.006350159645080566
1746232123604933000,4.17493310546875,0.1284679005426748,-0.09119269996881485,-0.03225386095210443,-0.0321948267519474,0.18365600278156133,0.8984276462440514,0.45863176595052463,right,-0.03891193866729736,-0.8127989003184454,0.8637199393391609,-6.686206779915094,-0.3975650932453335,0.028019245713949203,-0.014668948948383331,7.121728194701671,-0.004406869411468506
1746232123644932900,4.214932861328125,0.12280405088378461,-0.08786871284246445,-0.033601897306671236,-0.03638598322868347,0.18213955189337108,0.8989113961079019,0.4527210376394355,right,-0.029194295406341553,-0.812602199451331,0.8260081213865429,-6.692381669157743,-0.3970571886231606,0.003833221271634102,-0.02298271656036377,7.120401914533972,-0.010390698909759521
1746232123684932900,4.254932861328125,0.1175837718747563,-0.05305589362978935,-0.0350288591166506,-0.056157611310482025,0.18110044464641578,0.899246369135657,0.44810112361262966,right,-0.01884561777114868,-0.8125755504784359,0.7910832307387143,-6.696791302293539,-0.39665054468034117,0.007720569148659706,-0.035738781094551086,7.120222466313838,-0.012651562690734863
1746232123724932900,4.294932861328125,0.11313228818705824,-0.004059150815010071,-0.036594506968967475,-0.07822348922491074,0.18115311314151933,0.8994322250805779,0.44618042094067417,right,-0.004831910133361816,-0.8120842753389597,0.7616596409209072,-6.703721393817663,-0.3960633536886575,0.01616913080215454,-0.039204418659210205,7.116908811721205,-0.010878801345825195
1746232123764932900,4.334932861328125,0.10951723497022425,0.020945847034454346,-0.03808392077492395,-0.09221410006284714,0.18200616604492306,0.8996143535749822,0.44627618964373944,right,0.006464958190917969,-0.8106988007117256,0.7384973765201867,-6.7162254860818384,-0.3951169742025016,0.0460054911673069,-0.040086984634399414,7.107554123398661,-0.014542102813720703
1746232123804933000,4.37493310546875,0.10556660759141355,-0.0006108172237873077,-0.03956672676503939,-0.0820014476776123,0.18293223672775383,0.9000152704347482,0.44622182761708634,right,0.013143360614776611,-0.80816118845201,0.71385663706474,-6.737004654738307,-0.39362778418061156,0.0693628266453743,-0.03288128599524498,7.090385546454787,-0.012735724449157715
1746232123844933000,4.41493310546875,0.10071788102366233,-0.050846412777900696,-0.041037522888016605,-0.05504031851887703,0.18297396155259116,0.9005498227918208,0.44386765611748147,right,0.0173073410987854,-0.8059195327593097,0.6827788502991199,-6.756183402460813,-0.3922326463791116,0.04681149870157242,-0.024465732276439667,7.07518096306026,-0.014778614044189453
1746232123884933000,4.45493310546875,0.096072401798482,-0.07998177409172058,-0.04217928876510882,-0.01206272467970848,0.18192033596599377,0.9009892738232217,0.439406979611019,right,0.018452584743499756,-0.8052252962442932,0.6518569116823375,-6.764169725039601,-0.3915919200134343,-0.0009070523083209991,-0.016962669789791107,7.070465040454268,-0.01517575979232788
1746232123924932900,4.494932861328125,0.09342313470401231,-0.06410326063632965,-0.04270634389638267,0.039756156504154205,0.18035807231224069,0.9010024498030749,0.4350345643916031,right,0.014973163604736328,-0.8069765185202893,0.6327784825291484,-6.753534933778643,-0.39222663252786744,-0.07057911157608032,-0.009233508259057999,7.082354800212383,-0.005915939807891846
1746232123964932900,4.534932861328125,0.09364871633240086,-0.03481294587254524,-0.042531007880676285,0.0621841661632061,0.17882524831073507,0.9004531988804162,0.43232736091752555,right,0.011506915092468262,-0.8112312795772579,0.6314783597160131,-6.723329180607199,-0.3942039160166961,-0.11687840521335602,-0.007882706820964813,7.111151271107793,-0.004271209239959717
1746232124004932900,4.574932861328125,0.095623318235666,0.0018263086676597595,-0.04207803732828108,0.04623780399560928,0.17799231113929412,0.8996476787949945,0.4320012200346378,right,0.011461794376373291,-0.8158842741611807,0.6415868620805442,-6.689059831258654,-0.39646224421465365,-0.10859967768192291,-0.00956207886338234,7.142495088398456,-0.0014161467552185059
1746232124044933000,4.61493310546875,0.09796483535275588,0.021854054182767868,-0.04171642544417412,0.03227481245994568,0.1779225130710944,0.8988528397195829,0.43342309002042934,right,0.017597734928131104,-0.8196764852622102,0.6545937162350863,-6.660535163041949,-0.3983302208706924,-0.08410794287919998,0.003858007490634918,7.16792646677494,0.008665621280670166
1746232124084933000,4.65493310546875,0.10048432973047346,-0.006418487057089806,-0.04114213000336159,0.07017598301172256,0.17760613530682123,0.8981664519895785,0.43433993730989123,right,0.01760232448577881,-0.8231378222881199,0.6688798696104437,-6.634138739025593,-0.40007546747791767,-0.08620736002922058,0.019189372658729553,7.191048983687162,0.020335674285888672
1746232124124933000,4.69493310546875,0.10299997819779061,-0.03918289393186569,-0.04018392462421331,0.08512905985116959,0.17643296857388685,0.8976558758003443,0.4333501114047322,right,0.008246660232543945,-0.8265474906494239,0.683041958214715,-6.608007687947154,-0.4018340680955438,-0.06645220518112183,0.018262401223182678,7.213741877010464,0.012931108474731445
1746232124164932900,4.734932861328125,0.10444948569896063,-0.03962106257677078,-0.039292462956720675,0.06101565062999725,0.17499518622107635,0.8975054850291986,0.43108819566211415,right,-0.001613318920135498,-0.8285261164365518,0.6911300606675446,-6.5928025200307365,-0.40288550319886707,-0.018173612654209137,0.011782601475715637,7.226872576740384,0.001935422420501709
1746232124204932900,4.774932861328125,0.10508904916189998,-0.00979534536600113,-0.03879478913451454,0.015613622963428497,0.17424275394702832,0.8975364391683676,0.42977315093335855,right,-0.008749604225158691,-0.8290297002589492,0.6949645973291247,-6.588738923853636,-0.40319074451090414,-0.0006438810378313065,0.008493632078170776,7.230209612208604,0.000742495059967041
1746232124244932900,4.814932861328125,0.10584304494707128,0.03804899379611015,-0.03864554433283509,-0.016951221972703934,0.17455833021384723,0.89749118850247,0.43079258062553877,right,-0.009853363037109375,-0.8288778389974405,0.7000482572689652,-6.589304741042852,-0.40316929752856057,0.005389976315200329,0.005214571952819824,7.229203650036454,-0.0020447969436645508
1746232124284933000,4.85493310546875,0.10750296729450337,0.08213722705841064,-0.03858041685583028,-0.03846248611807823,0.17596664143906054,0.8973345654166093,0.4345657935305921,right,-0.0069495439529418945,-0.8281348537722115,0.7115611465387046,-6.5934723821163175,-0.40291193576194595,0.017990324646234512,0.004719771444797516,7.224278468593955,-0.0025371909141540527
1746232124324933000,4.89493310546875,0.10995192544955132,0.09993630647659302,-0.03841593517874468,-0.036959484219551086,0.17802744678190396,0.8971858306209829,0.4400299987793473,right,-0.0039020180702209473,-0.8266247702920334,0.7289023766357451,-6.602545915409922,-0.40235317202431303,0.03375084698200226,0.006723344326019287,7.2142556717514985,0.0020970702171325684
1746232124364933000,4.93493310546875,0.11273969179654043,0.08954600989818573,-0.038048525315095894,-0.017001569271087646,0.18004614679476558,0.8971146803933193,0.4454851789655641,right,-0.0021221041679382324,-0.8247075961168019,0.7488605112329125,-6.614218817546964,-0.40164784567531187,0.039307717233896255,0.01103498786687851,7.201507249337435,0.008132338523864746
1746232124404932900,4.974932861328125,0.115470709210268,0.04990989342331886,-0.0374007083329126,0.011144854128360748,0.181413791564513,0.897175095632419,0.44945309911071035,right,-0.001993894577026367,-0.8227635821236262,0.7685327415607869,-6.626043110853433,-0.4009576305287403,0.0433572381734848,0.014522716403007507,7.1885530752182,0.010888397693634033
1746232124444932900,5.014932861328125,0.11751369045637573,0.00020767003297805786,-0.03652413787148447,0.04006713256239891,0.18169712790610634,0.897449203384752,0.4507048865831571,right,-0.004100620746612549,-0.8209061405410973,0.783632184080407,-6.637707829684019,-0.4002962246536779,0.04578416794538498,0.013406001031398773,7.176150689762831,0.008346796035766602
1746232124484932900,5.054932861328125,0.11860704615434464,-0.035765938460826874,-0.035608947458673684,0.0557657852768898,0.18101444102059938,0.8978659396609378,0.4494345611056666,right,-0.008033037185668945,-0.8194062861515042,0.7921617466904223,-6.647527212908864,-0.39975299070878406,0.03635907918214798,0.010188743472099304,7.16611795604825,0.005103707313537598
1746232124524932900,5.094932861328125,0.11890989704055327,-0.04513632506132126,-0.03488779014281103,0.04598003253340721,0.1798694265971283,0.8982322818542515,0.44690773014190194,right,-0.010710060596466064,-0.8186975478228168,0.7947771898858249,-6.652327891188859,-0.39951033280178866,0.016635527834296227,0.003699652850627899,7.1613716383039945,-0.0008684396743774414
1746232124564933000,5.13493310546875,0.11839131609192076,-0.029488878324627876,-0.034657058397022704,0.016148200258612633,0.1789198949803612,0.8984270254080429,0.444568238484592,right,-0.009713590145111084,-0.8187301940770179,0.791299723033607,-6.652507339408993,-0.3995189688078078,0.000005114823579788208,0.00022359192371368408,7.161590249490738,-0.005739688873291016
1746232124604933000,5.17493310546875,0.11806494145776754,0.0015520453453063965,-0.03466471437261533,-0.0063250064849853516,0.17862779764139539,0.8984644105060678,0.44379455025494885,right,-0.006931483745574951,-0.8188690061908708,0.7890113929007202,-6.651777856090664,-0.39956485907724276,-0.0035508894361555576,-0.003691241145133972,7.1625202238172285,-0.008269906044006348
1746232124644932900,5.214932861328125,0.11801680669116285,0.028792833909392357,-0.03486390980017633,-0.027693236246705055,0.1791234833600794,0.8984209742161888,0.4448346000740473,right,0.001879870891571045,-0.8186003137932752,0.7889177232678979,-6.65372606754899,-0.39942318183049275,0.006867050658911467,-0.005734540522098541,7.160719896396994,-0.011535227298736572
1746232124684932900,5.254932861328125,0.11846363170958406,0.042955268174409866,-0.035059927010901076,-0.027352426201105118,0.18009653741791984,0.8983221011430617,0.4471174432139994,right,0.002113819122314453,-0.8180765268312754,0.792333888386935,-6.657097005286812,-0.3991908358899902,-0.0007503069937229156,-0.0057237595319747925,7.157209257927536,-0.005346477031707764
1746232124724932900,5.294932861328125,0.11938261563803425,0.039240945130586624,-0.035172492630966265,-0.015343863517045975,0.18101373722134426,0.8980667827805008,0.4496074347292579,right,0.0009067058563232422,-0.8183252884326356,0.7982392399732023,-6.654597589686513,-0.3993404979910144,-0.029587561264634132,-0.006459370255470276,7.1588768988788125,0.0024309754371643066
1746232124764932900,5.334932861328125,0.12095423574953522,0.03161460906267166,-0.035094068209702574,0.015178721398115158,0.1816363404422432,0.8976140590972116,0.4519229248514799,right,0.004093050956726074,-0.8197674410898962,0.8074502089761197,-6.643079585850239,-0.40008198947835677,-0.04707848280668259,-0.005444318056106567,7.168535538583994,0.0054857730865478516
1746232124804933000,5.37493310546875,0.12301027961905947,0.022289905697107315,-0.03476195801481367,0.023838207125663757,0.18191844095061888,0.8971223478501116,0.45377616513209945,right,0.0021131038665771484,-0.821680564783033,0.8194227516468614,-6.62778264799714,-0.40108444124009063,-0.04490188881754875,-0.0036680251359939575,7.1813248775303355,0.008092999458312988
1746232124844933000,5.41493310546875,0.12511472099576795,0.013018300756812096,-0.034201140750879655,0.04056648910045624,0.18190085373177176,0.896799440092739,0.45490019164179984,right,0.0001328587532043457,-0.8230476331223326,0.8321427516840397,-6.616296792864799,-0.40186195785101,-0.024730458855628967,-0.0012063011527061462,7.190447510662675,0.01061779260635376
1746232124884933000,5.45493310546875,0.12687803762242128,0.005444275215268135,-0.03358886726259612,0.028882615268230438,0.18170851978060842,0.8966519373235121,0.4553781426539644,right,-0.0025527477264404297,-0.8237600385223885,0.8431597471956163,-6.609736119174957,-0.40232950855498223,-0.012342467904090881,-0.0010381266474723816,7.195196166494489,0.011835813522338867
1746232124924932900,5.494932861328125,0.12756467866655044,-0.002613179385662079,-0.0333513544721502,0.0032184571027755737,0.18155101568259455,0.8965594929384575,0.45542218023627606,right,-0.001593947410583496,-0.824291631607319,0.8472113606739788,-6.605360972830653,-0.40262636825308074,-0.010084244422614574,-0.0013470202684402466,7.198737784624099,0.009413838386535645
1746232124964932900,5.534932861328125,0.1269433637889774,-0.0031414951663464308,-0.03364949723012469,-0.025688454508781433,0.1815527544430165,0.8964714873084986,0.45522976198475357,right,-0.00015372037887573242,-0.8247965972858603,0.8426468292374163,-6.6022793734282255,-0.40279665283983357,-0.013133816421031952,-0.00264778733253479,7.202099370011687,0.007141172885894775
1746232125004932900,5.574932861328125,0.12546580161016102,0.00322083686478436,-0.034409689653578976,-0.04818268120288849,0.18181807958310817,0.8962988566712772,0.455281587680797,right,-0.000008881092071533203,-0.8255545439200888,0.8322073413528501,-6.598099457395076,-0.402996916799901,-0.024020954966545105,-0.005104884505271912,7.207142040354013,0.0063117146492004395
1746232125044933000,5.61493310546875,0.1235219627018225,0.013926842249929905,-0.03552748843853006,-0.07300315797328949,0.18241363511645045,0.8960103630741714,0.4559067827993291,right,-0.0014003515243530273,-0.8266013059287409,0.818450107222423,-6.592214491009712,-0.4032721330438234,-0.024894170463085175,-0.008898571133613586,7.214099604406952,0.004640638828277588
1746232125084933000,5.65493310546875,0.12139054039263317,0.03054862469434738,-0.036845946629678314,-0.08146429061889648,0.18343039753252882,0.8957150803464755,0.45732611670278783,right,0.001461327075958252,-0.8272729709624286,0.8038105372995138,-6.589132307085395,-0.4033486240740964,-0.012601432390511036,-0.01117897778749466,7.218559506425261,0.005707859992980957
1746232125124933000,5.69493310546875,0.12001166611776427,0.04114421457052231,-0.03791182998991743,-0.05916054546833038,0.18464924223022397,0.8954618731311206,0.45945409120668,right,0.005035579204559326,-0.827440014030665,0.7945798406828194,-6.5890370300173755,-0.4032558631507217,-0.006062455475330353,-0.011099927127361298,7.219668344449997,0.010970592498779297
1746232125164932900,5.734932861328125,0.12015265060613121,0.04638117924332619,-0.038380635097753496,-0.028298350051045418,0.18578567708508809,0.8952136260472154,0.462064098817128,right,0.004922926425933838,-0.8274889972156253,0.7954664142590016,-6.588574088680744,-0.4032407830025707,-0.003122636117041111,-0.012241952121257782,7.219993338620662,0.012530863285064697
1746232125204932900,5.774932861328125,0.12133284304422733,0.043049778789281845,-0.03832641670283142,-0.0013653673231601715,0.18672354453131426,0.8950674455251938,0.4646305583207863,right,0.005535900592803955,-0.827117303645921,0.8035663532800972,-6.590294336602091,-0.40313719412290827,0.015838854014873505,-0.011652536690235138,7.217526071724295,0.011990547180175781
1746232125244932900,5.814932861328125,0.1229640465053558,0.025994569063186646,-0.03784612567541299,0.01695466972887516,0.1872988519235458,0.8951227735408536,0.46647888900697765,right,0.007890641689300537,-0.8260721439325317,0.815240205265209,-6.596457535406946,-0.40279267838992033,0.03338538110256195,-0.009795255959033966,7.210583705240488,0.01147526502609253
1746232125284933000,5.85493310546875,0.12423597789235837,0.003885805606842041,-0.037191928566564725,0.031503938138484955,0.18737907559993475,0.8953946287394879,0.46697219632250697,right,0.009063303470611572,-0.8245087250136688,0.8250256862204521,-6.6065937294960015,-0.4022116807752341,0.048162005841732025,-0.0065537914633750916,7.200183307257294,0.009244978427886963
1746232125324933000,5.89493310546875,0.12571076862470526,0.0034198854118585587,-0.03621760668053015,0.0535314679145813,0.18708890399867398,0.8958459853584003,0.4666395366827395,right,0.005353391170501709,-0.8224136713286612,0.8366575987599789,-6.620320641553402,-0.4014297899501417,0.058122165501117706,-0.006811976432800293,7.186218494790792,0.006075799465179443
1746232125364933000,5.93493310546875,0.12783078119563193,0.010625462979078293,-0.03496349540271477,0.06316466629505157,0.1867441916844558,0.8963225082312118,0.4664460923990271,right,0.003390669822692871,-0.820165168060017,0.8527486826654523,-6.634542059129476,-0.4006370669799892,0.05938762426376343,-0.006408169865608215,7.171196282225847,0.0012283921241760254
1746232125404932900,5.974932861328125,0.13106251437349653,0.026118502020835876,-0.03336489970566879,0.0768275335431099,0.1865093466604957,0.8967363549480498,0.4669980643201722,right,-0.00027889013290405273,-0.8179653362356916,0.8762448551956563,-6.647375821739435,-0.3999561806806421,0.052073922008275986,-0.005505770444869995,7.156463992518186,-0.0011124610900878906
1746232125444932900,6.014932861328125,0.1354321028901706,0.04533065855503082,-0.03149352996307598,0.08226709812879562,0.1865246008903772,0.8970285296045996,0.4686393429744384,right,-0.0019039511680603027,-0.8159493516424485,0.9072288261979817,-6.657765113806724,-0.39944535819357013,0.04424486309289932,-0.002680763602256775,7.142932310771942,-0.002558887004852295
1746232125484932900,6.054932861328125,0.14058925243040238,0.060384601354599,-0.02946821084834987,0.08501246571540833,0.18683694558878267,0.8972308142907687,0.4712871360087705,right,0.0006635189056396484,-0.81394349903027,0.9435575192291289,-6.667171240055561,-0.3989993764994778,0.04397344961762428,0.0016679540276527405,7.129440376514196,-0.0021939873695373535
1746232125524932900,6.094932861328125,0.14628365097418713,0.059016428887844086,-0.027290373308112344,0.08942414820194244,0.1872422634411118,0.8973861255253405,0.47437714372212236,right,-0.00028693675994873047,-0.8119678261100873,0.9835586902279406,-6.675611736142635,-0.3986147887096262,0.04139991104602814,0.004252441227436066,7.116123214301466,0.00016623735427856445
1746232125564933000,6.13493310546875,0.15167838731055,0.04328392446041107,-0.025149763036549377,0.0860741138458252,0.18746425096098318,0.8975607736294426,0.47693427310105657,right,-0.005434691905975342,-0.8100922541183628,1.0215722676061094,-6.683391137972474,-0.3982579444108628,0.03603433445096016,0.006235785782337189,7.1034548713862895,0.0015143156051635742
1746232125604933000,6.17493310546875,0.1559436894635866,0.019832024350762367,-0.02334193364988162,0.07496069371700287,0.18736211760846347,0.897738307144492,0.47834408559037767,right,-0.010425269603729248,-0.8086779259297758,1.0516289676956831,-6.688890904432535,-0.3980158692850492,0.02379794605076313,0.009047359228134155,7.0938850790083405,0.0035625696182250977
1746232125644932900,6.214932861328125,0.15897802053485743,0.0004081130027770996,-0.021982036168471913,0.0625625029206276,0.1869841242996244,0.8978474788423435,0.47873587562868125,right,-0.010017335414886475,-0.8080650986549865,1.0726084081646055,-6.689960579490661,-0.39802479888003056,0.0033049993216991425,0.010821081697940826,7.089734389069676,0.0026763081550598145
1746232125684932900,6.254932861328125,0.1610970541134519,-0.011640185490250587,-0.020997065788236458,0.05075255408883095,0.18641430164115033,0.8978613703231222,0.47844272301442536,right,-0.009296417236328125,-0.808264236603307,1.0865556849744171,-6.686278091585636,-0.39831370112733866,-0.007913812063634396,0.011522546410560608,7.091083465591073,-0.0005324482917785645
1746232125724932900,6.294932861328125,0.1623487153698454,-0.01936657540500164,-0.020336191420719935,0.036010611802339554,0.1857654813165969,0.8978601529627807,0.47764262049271305,right,-0.009423553943634033,-0.8087521231913435,1.0943644590292125,-6.681498456093668,-0.39865377387760054,-0.010285002179443836,0.012400463223457336,7.094387767833471,-0.0022037625312805176
1746232125764932900,6.334932861328125,0.16283788063350454,-0.023483050987124443,-0.019973851038690565,0.01541290432214737,0.18520396485700782,0.8978824833382683,0.476681721793807,right,-0.009310424327850342,-0.8091467445220891,1.097178785797581,-6.678199414548278,-0.3988830013672883,-0.007969732396304607,0.011098623275756836,7.097059032869338,-0.0011664628982543945
1746232125804933000,6.37493310546875,0.1622503464233302,-0.027323085814714432,-0.02004737261281248,-0.007490560412406921,0.18474609361814945,0.897914062922114,0.47547567365462645,right,-0.008804798126220703,-0.809554079354725,1.0927877842970193,-6.675989337283372,-0.399020531484192,-0.009521524421870708,0.00994652509689331,7.099815053579211,-0.00048464536666870117
1746232125844933000,6.41493310546875,0.16071525233838496,-0.026771048083901405,-0.02055142663525643,-0.02522449567914009,0.18441412603628957,0.8979069116564881,0.4741669696883428,right,-0.007416129112243652,-0.8101712846213889,1.0818368397589773,-6.673332100772857,-0.39916460612658494,-0.013061737641692162,0.007531225681304932,7.103989124393463,-0.0023798346519470215
1746232125884933000,6.45493310546875,0.1586528360249393,-0.019382111728191376,-0.02134238876539047,-0.034720659255981445,0.18425809902081,0.8978547333625801,0.47303684131972856,right,-0.004884660243988037,-0.8109099142420396,1.0672421318911016,-6.670366236704588,-0.3993125036177201,-0.016395503655076027,0.004179246723651886,7.1089803568094965,-0.004000067710876465
1746232125924932900,6.494932861328125,0.15697953847763169,-0.008782589808106422,-0.022080230910176107,-0.027066223323345184,0.18429042835243006,0.8977462408444614,0.47250255533822655,right,-0.00355374813079834,-0.8116728757811369,1.0552307185146956,-6.666782532998919,-0.3995011187674219,-0.019583161920309067,0.0014174506068229675,7.114132332745194,-0.004365742206573486
1746232125964932900,6.534932861328125,0.15611672830750395,0.00024117343127727509,-0.022570623759904134,-0.012131774798035622,0.1844312071067676,0.897595281057212,0.47256577363072527,right,-0.000821530818939209,-0.8124134917454144,1.0486587197132409,-6.662484543544053,-0.3997479278472073,-0.01740409806370735,0.0012156590819358826,7.119129410380125,-0.004965484142303467
1746232126004932900,6.574932861328125,0.1562601359782241,0.004641801584511995,-0.02266239211849416,0.007761077955365181,0.18454513409678194,0.8974507477324793,0.47298909178289134,right,0.0006374120712280273,-0.812998420099938,1.0489659590315072,-6.658219287315011,-0.4000146274343487,-0.01733495481312275,0.0015756785869598389,7.12307317956984,-0.0031301379203796387
1746232126044933000,6.61493310546875,0.15714096815992118,0.0022721111308783293,-0.02245606527024447,0.01952846348285675,0.18453463297824907,0.897281638580604,0.47348967713587936,right,0.0011414885520935059,-0.8137234376567424,1.0540218541815876,-6.652190528544783,-0.40041029354510427,-0.018919486552476883,0.0029607489705085754,7.127958029001951,-0.002660810947418213
1746232126084933000,6.65493310546875,0.15791505475018444,-0.008190345950424671,-0.022217117505302166,0.0164102241396904,0.18433836649324398,0.8971391507631681,0.4735425748897094,right,-0.0014380812644958496,-0.814521134741637,1.0582763698209077,-6.645755527061223,-0.4008331047187877,-0.019512537866830826,0.003858216106891632,7.133328616124391,0.00038433074951171875
1746232126124933000,6.69493310546875,0.15836980315276453,-0.0033697467297315598,-0.022114188709661822,0.007932622916996479,0.18411312749566858,0.8969689508192251,0.47342782052057364,right,-0.004624426364898682,-0.8155333583777675,1.0601591148275882,-6.638139791360497,-0.401322856927854,-0.03146990388631821,0.004387214779853821,7.140136542573571,0.0037859678268432617
1746232126164932900,6.734932861328125,0.1587671922495163,-0.004439572803676128,-0.022093050410901795,0.006133789196610451,0.18396152744886188,0.8967496994396568,0.4734843458792201,right,-0.002728402614593506,-0.8167221539292647,1.061454196139425,-6.62933163100481,-0.40188312729096387,-0.025969795882701874,0.005467057228088379,7.1481228651523585,0.0029011964797973633
1746232126204932900,6.774932861328125,0.15886638757228685,-0.0031526624225080013,-0.022161801959758313,-0.0037013106048107147,0.18383749126444798,0.8965706204741327,0.4734354049995541,right,-0.004238128662109375,-0.8177260676229448,1.0609760572336613,-6.622137335586547,-0.4023354431078104,-0.02234785258769989,0.004244133830070496,7.154859479930996,0.003089606761932373
1746232126244932900,6.814932861328125,0.15864509849175026,0.002248714677989483,-0.02243544178625971,-0.016676554456353188,0.1839183213174004,0.8963611832112176,0.4736976052821556,right,-0.0037603378295898438,-0.8187184082324396,1.0583883788280188,-6.6153574661880725,-0.4027496596119967,-0.024853061884641647,0.0032389387488365173,7.16151133903563,0.00341874361038208
1746232126284933000,6.85493310546875,0.158095561058693,0.008161431178450584,-0.022928047875231946,-0.030537888407707214,0.1842213433775739,0.8961136248029046,0.47430990508845583,right,-0.002361595630645752,-0.8197209953504849,1.0536218220133333,-6.608844138771295,-0.4031340261011741,-0.026165783405303955,0.0023346170783042908,7.16822457293868,0.00381314754486084
1746232126324933000,6.89493310546875,0.15739578263271758,0.006772641092538834,-0.023537284937453464,-0.036887288093566895,0.18466950320505685,0.8958434085911433,0.4751756351797055,right,-0.001461803913116455,-0.8207080718365283,1.047887296949327,-6.60258858550787,-0.4034943292871418,-0.024172725155949593,0.0004497021436691284,7.17482674768269,0.003507673740386963
1746232126364933000,6.93493310546875,0.1561751094856793,0.003014111891388893,-0.02425225686220585,-0.035263657569885254,0.1850405258957588,0.8956614393631748,0.4755821859363152,right,-0.00023174285888671875,-0.8214101924165051,1.0390430423669517,-6.598885054814815,-0.4036859426333161,-0.014181576669216156,-0.0010372698307037354,7.179518704891205,0.00393754243850708
1746232126404932900,6.974932861328125,0.15480333103862243,-0.005557337775826454,-0.024949643515240788,-0.030901124700903893,0.18527206979335178,0.8955227798983675,0.4755990241718281,right,-0.0000209808349609375,-0.8220596977172041,1.0292707131542265,-6.595695318862796,-0.40384483753721717,-0.019663717597723007,-0.001902855932712555,7.1838564418345685,0.004468739032745361
1746232126444932900,7.014932861328125,0.15354383820829584,-0.0118263466283679,-0.025551550640047497,-0.01894843392074108,0.18529731470852834,0.8953747234507691,0.4752482917724098,right,0.0010483860969543457,-0.8229477324588276,1.0199865327846258,-6.590678952005505,-0.4041237537255877,-0.0203707255423069,-0.0029576197266578674,7.189781155708432,0.00217437744140625
1746232126484932900,7.054932861328125,0.15260510099869198,-0.012963401153683662,-0.025981256995216834,-0.004191450774669647,0.18514344614285974,0.8952239872501936,0.47466809643385743,right,0.0014653205871582031,-0.8239838623892153,1.0126661998338997,-6.584267331397533,-0.4045006541894702,-0.025673963129520416,-0.0029648244380950928,7.196687866356968,0.0012640953063964844
1746232126524932900,7.094932861328125,0.15235633652537767,-0.006318292114883661,-0.026183014133577393,0.003830535337328911,0.1849526064486796,0.8950159581514011,0.4743562741118558,right,0.00021386146545410156,-0.8252404413140217,1.0096550353191793,-6.575575490897894,-0.40503505782217086,-0.031735487282276154,-0.0034225955605506897,7.205052959120273,0.0014611482620239258
1746232126564933000,7.13493310546875,0.15252268049497214,-0.00048497365787625313,-0.02629717730629789,0.0025007629301398993,0.18486037516965748,0.894755285185835,0.47447042899578296,right,0.0005463361740112305,-0.8265949323903189,1.0092651592187583,-6.565755523151159,-0.4056452640679728,-0.03130865469574928,-0.0023849084973335266,7.214057518830895,0.001583874225616455
1746232126604933000,7.17493310546875,0.15270313057167134,0.0024095787666738033,-0.0264256074621253,-0.003997580148279667,0.18486204155771988,0.8945045403353054,0.47477456120536315,right,-0.00018274784088134766,-0.8278012847884597,1.0091254584871232,-6.556967821061611,-0.40618885245448777,-0.03022528998553753,-0.0015029683709144592,7.2220654687196015,0.003316640853881836
1746232126644932900,7.214932861328125,0.15280396645483027,0.004098918288946152,-0.02661745240268488,-0.00769681204110384,0.1849505401459525,0.8942436944399214,0.4752319469515383,right,-0.0008857250213623047,-0.8289786475381474,1.0084917636934667,-6.548457182347774,-0.4067100950471288,-0.03165149316191673,-0.0012595206499099731,7.229871174034476,0.00445932149887085
1746232126684932900,7.254932861328125,0.15278115371806072,0.005443037021905184,-0.02688793912914258,-0.013924788683652878,0.18510190195565754,0.8939655077407906,0.4757807886874699,right,-0.0010526180267333984,-0.830192597095825,1.0070058359846472,-6.539800997683406,-0.4072345705090024,-0.029628559947013855,-0.0018804073333740234,7.2379095190614455,0.0039820075035095215
1746232126724932900,7.294932861328125,0.1524274768572343,0.010672428645193577,-0.02728626367424119,-0.022614043205976486,0.1853797914081146,0.8937307225273833,0.47640832371640474,right,-0.00008577108383178711,-0.8311101886604757,1.0036839250203222,-6.533589283561706,-0.407596770209607,-0.018264971673488617,-0.0033011510968208313,7.243978025320172,0.001074075698852539
1746232126764932900,7.334932861328125,0.15218357798295676,0.013312123715877533,-0.027643532883441586,-0.0201257411390543,0.18576577696164545,0.8935362018458053,0.47726903411559835,right,-0.0001512765884399414,-0.83170401778195,1.0014380457896739,-6.529580632442236,-0.40782335022284766,-0.016174813732504845,-0.003638148307800293,7.247901920765638,0.0017338395118713379
1746232126804933000,7.37493310546875,0.1522610291415336,0.0113005256280303,-0.02786982006248937,-0.016322800889611244,0.18613227681086192,0.8933474754063597,0.4782232390856122,right,-0.0012581348419189453,-0.8322436322633939,1.0013505136366934,-6.525636863252521,-0.40805440183375646,-0.01881677657365799,-0.004307977855205536,7.251465750727057,0.0030265450477600098
1746232126844933000,7.41493310546875,0.15213830437326376,0.008758392184972763,-0.028152803424389222,-0.012903944589197636,0.18639962146450176,0.8931452988385663,0.47889956917648924,right,-0.0013104677200317383,-0.8329764406634531,0.9997440282881259,-6.520505345582961,-0.4083554401543916,-0.019781652837991714,-0.0028443187475204468,7.2563015003204345,0.0034650564193725586
1746232126884933000,7.45493310546875,0.1523656571787916,0.0050894636660814285,-0.028292467959645892,-0.004565652459859848,0.18659044326466218,0.8929296834737589,0.4795820627533458,right,-0.0003439188003540039,-0.8338027696118167,1.0003160560224205,-6.514349161040783,-0.40872995464459777,-0.020713167265057564,-0.001620359718799591,7.261750413376093,0.004230141639709473
1746232126924932900,7.494932861328125,0.1526646814337118,0.0023683258332312107,-0.028346611949799677,0.0013142358511686325,0.18666956398333726,0.8927472753635171,0.48003694123430135,right,0.0015433430671691895,-0.8345703841201921,1.0014159800883382,-6.508538428935408,-0.4090884483806941,-0.015408044680953026,-0.0008197799324989319,7.266807112243771,0.004664719104766846
1746232126964932900,7.534932861328125,0.15290319139360373,-0.0005191420204937458,-0.028357987197456924,0.0016179174417629838,0.186661379600641,0.8926156052941787,0.48024105132288436,right,0.0006574392318725586,-0.835186657241688,1.0022858947906643,-6.5038716061681505,-0.4093784001911802,-0.011232255026698112,-0.000598415732383728,7.270864278680086,0.0044400691986083984
1746232127004932900,7.574932861328125,0.1531098162431379,0.0013396117137745023,-0.02834295480290328,0.0005245243664830923,0.18663999852577087,0.8925280618431597,0.4803650742002196,right,0.0005911588668823242,-0.8356062890526018,1.0031644311908632,-6.5006485524684186,-0.409580088464422,-0.006099993363022804,-0.00032417476177215576,7.273624975565076,0.004008591175079346
1746232127044933000,7.61493310546875,0.1533870541957646,0.0015210146084427834,-0.028274929046618765,0.0047539109364151955,0.1866205772668669,0.8924750465092506,0.4804927896212948,right,-0.000507354736328125,-0.8358453966495479,1.004700773912668,-6.4986506566494695,-0.4097090970902372,-0.0053582703694701195,-0.00047122687101364136,7.275197339448332,0.004091501235961914
1746232127084933000,7.65493310546875,0.1533484052489307,-0.0044766939245164394,-0.028322875774468955,-0.003060341812670231,0.1865848307268665,0.892418961831293,0.480452879059845,right,-0.0016624927520751953,-0.8361601536320229,1.0040998123448341,-6.496426550859212,-0.40984418486441543,-0.004931385163217783,-0.0008995011448860168,7.277266546937823,0.0032535791397094727
1746232127124933000,7.69493310546875,0.1530662207924264,-0.0037901876494288445,-0.028430896899272418,-0.003208899637684226,0.18650815366011533,0.8923871545185303,0.4802015623998077,right,-0.0015048980712890625,-0.8364325322202468,1.0019643346861005,-6.494750726601481,-0.40994093345561267,-0.005320058669894934,-0.0009952634572982788,7.279056937485933,0.002888321876525879
1746232127164932900,7.734932861328125,0.15276202567830938,-0.0010095788165926933,-0.02857762522909257,-0.0031276701483875513,0.18647613217096595,0.8923332016992799,0.48005211494557576,right,-0.0003663301467895508,-0.8367700967654942,0.9996147028200327,-6.49262657405436,-0.41006280377628485,-0.007309199310839176,-0.0007641240954399109,7.281275198057293,0.0024257302284240723
1746232127204932900,7.774932861328125,0.1527143443411283,0.0029965457506477833,-0.02866384527151345,-0.0012691993033513427,0.18649701396503587,0.8922538074163925,0.48014532264599813,right,0.0008886456489562988,-0.8371416798691156,0.9988935489386319,-6.489999732682109,-0.41022005683003765,-0.00733168562874198,-0.0007716640830039978,7.283715576946735,0.0029198527336120605
1746232127244932900,7.814932861328125,0.15278829414194503,0.006556176580488682,-0.02872963100258635,-7.905764505267143e-7,0.1865924823722738,0.892170507415761,0.48044796433929876,right,0.0011368989944458008,-0.8374388141848065,0.9990439171947538,-6.487785563763976,-0.41035301592736473,-0.0039429208263754845,-0.0007161498069763184,7.285666126492619,0.002799689769744873
1746232127284933000,7.85493310546875,0.15309322564777814,0.005988494958728552,-0.02870447396762004,0.0028563947416841984,0.18671146969419058,0.8921020045135645,0.4808861983710428,right,0.0005504488945007324,-0.8376083205145745,1.0008338693514465,-6.486259961631894,-0.41044954605535316,-0.0023714846465736628,-0.0010244548320770264,7.286779056170582,0.0033855438232421875
1746232127324933000,7.89493310546875,0.15350437609961573,0.004140798468142748,-0.02860676120269523,0.003120548091828823,0.1867990618735779,0.8920635517996044,0.4812792363257774,right,-0.00043839216232299805,-0.8376488617649869,1.003455450026691,-6.485556197276711,-0.4105000883176627,-0.00043283705599606037,-0.001054912805557251,7.28704501363039,0.0029541850090026855
1746232127364933000,7.93493310546875,0.1537881372710451,0.0025447383522987366,-0.02851937730349079,0.0025352807715535164,0.18683995531186987,0.892055037537729,0.48149414188375583,right,-0.0009157657623291016,-0.8376090278576069,1.005340167794749,-6.48555795084238,-0.41050605557984193,0.0006188913248479366,-0.000843636691570282,7.28678314782381,0.002068936824798584
1746232127404932900,7.974932861328125,0.15419157803815445,0.004916563630104065,-0.02839827394657621,0.004469149746000767,0.18688147132648333,0.8920326984801658,0.48177476227561944,right,-0.0007944107055664062,-0.8376191086311324,1.0079453818570823,-6.485079227414727,-0.410544161242786,-0.0012332574697211385,-0.000574842095375061,7.2868497833192345,0.0013210773468017578
1746232127444932900,8.014932861328125,0.15474595282168566,0.008656282909214497,-0.028263520332116005,0.006590823642909527,0.186976177390525,0.8919758794781733,0.4822611849359075,right,-0.0010860562324523926,-0.8377211172743501,1.0114258443839848,-6.483785095950961,-0.41063381032816115,-0.0053102970123291016,-0.0008371695876121521,7.287519060882926,0.001956045627593994
1746232127484932900,8.054932861328124,0.15537926837146301,0.007587650790810585,-0.028142737323889385,0.0014586993493139744,0.18709983158373059,0.8918747563557042,0.48288139404326,right,-0.0025508999824523926,-0.837997385939986,1.0152203412961214,-6.481154162925481,-0.4108054125280727,-0.010014353320002556,-0.0018760710954666138,7.2893316632628435,0.002710700035095215
1746232127524932900,8.094932861328125,0.15569559926851692,0.0038412311114370823,-0.02813412781828739,-0.0009545790962874889,0.18722453553496465,0.891782284496618,0.4833583610458691,right,-0.0019379854202270508,-0.8382745818821161,1.0169570288956165,-6.478835949110985,-0.41094983292371856,-0.005352159962058067,-0.0014680996537208557,7.2911501108616585,0.002629101276397705
1746232127564933000,8.13493310546875,0.15576335739294755,0.0011650093365460634,-0.028170348154387997,-0.0011722627095878124,0.18729584893936602,0.8917309588982711,0.4835806172084783,right,-0.001401662826538086,-0.838441482807048,1.0172072773296386,-6.477564614000916,-0.4110262057644911,-0.0024839933030307293,-0.0024559050798416138,7.292244335839152,0.0014453530311584473
1746232127604933000,8.17493310546875,0.15544410268859157,-0.0018555773422122002,-0.028299611210588858,-0.0020660751033574343,0.18730909748633445,0.891723417697833,0.48347581548600377,right,-0.0003306269645690918,-0.8385093994733237,1.0150624473206697,-6.477399778828024,-0.4110275724644278,0.0010201532859355211,-0.0014778301119804382,7.292689741519093,0.0017296671867370605
1746232127644932900,8.214932861328125,0.15563551122030428,0.004479435738176107,-0.028222316617009153,0.005688663572072983,0.1872944400183015,0.8917251416386741,0.4835273497490379,right,-0.0026830434799194336,-0.8384889123508141,1.0163254529938102,-6.47735243255496,-0.411035797447592,-0.004030741751194,-0.001859419047832489,7.292555301484465,0.004572391510009766
1746232127684932900,8.254932861328125,0.15599894686008695,-0.00006150919944047928,-0.028111534616926864,0.009022733196616173,0.18726227172673593,0.8916812792616449,0.4836590112405526,right,-0.00014823675155639648,-0.8386834244847722,1.0184591040216386,-6.475581331229209,-0.41115321529377735,-0.0033656719606369734,0.00004122406244277954,7.2938307282477615,0.004782140254974365
1746232127724932900,8.294932861328125,0.156170622168487,-0.009729432873427868,-0.027990671098042617,0.009895823895931244,0.18707535839981523,0.891683129357347,0.48334828148970166,right,0.00019818544387817383,-0.8388406978711822,1.0193923662837594,-6.47427375576198,-0.4112425562820807,-0.0008581778965890408,0.00020614266395568848,7.294861240339279,0.0035143494606018066
1746232127764932900,8.334932861328125,0.1560692540999881,-0.009886798448860645,-0.027903157991011472,0.010519391857087612,0.1867903521065891,0.8917352278248534,0.4826718502650226,right,0.0007150769233703613,-0.8388919921480431,1.0186778613388539,-6.4740072137802835,-0.4112650283846715,0.00320660462602973,0.0004518181085586548,7.295197340425848,0.0025786161422729492
1746232127804933000,8.37493310546875,0.1560967613101921,-0.004933716729283333,-0.02777034539277234,0.010086387395858765,0.1865666771144081,0.8918066735617853,0.4821599865182854,right,0.0005404949188232422,-0.8387689315692526,1.0189955489858984,-6.474866460958123,-0.41122075171669836,0.005229274742305279,0.0008735731244087219,7.29439128473997,0.0025944113731384277
1746232127844933000,8.41493310546875,0.15636075742117814,0.0007971734739840031,-0.027572124866263557,0.004347257781773806,0.18644196596871881,0.8918859177582149,0.48194692583166393,right,-0.001236259937286377,-0.8384731411579998,1.0210407910779118,-6.476727578654885,-0.41111868341214675,0.009690090082585812,-0.0009032487869262695,7.29245184110999,-0.0002841353416442871
1746232127884933000,8.45493310546875,0.15647657163268625,0.004987847059965134,-0.027458424355748943,-0.001061997376382351,0.1864820330244811,0.8919901103918931,0.4819852004163658,right,-0.001648545265197754,-0.8379097597270536,1.022430930262059,-6.480666671669483,-0.41088198314176816,0.01297742873430252,-0.0004918500781059265,7.288757078245282,-0.000525057315826416
1746232127924932900,8.494932861328126,0.1566980192975277,0.007369795814156532,-0.027332726526245504,0.0010007284581661224,0.18658555584696376,0.892082989419588,0.48220969430585614,right,-0.002007722854614258,-0.8373215048731685,1.024534989869222,-6.484674153745174,-0.41064165541203684,0.010945828631520271,0.00019665062427520752,7.284896311163902,0.0010029077529907227
1746232127964932900,8.534932861328125,0.15705694461202627,0.0058218687772750854,-0.027168349838854383,0.0038174029905349016,0.1867199167099969,0.8921708974155385,0.4825613971539183,right,-0.002418696880340576,-0.8367062248668347,1.027563397779688,-6.4887319047033785,-0.41040055793969993,0.013132266700267792,0.0012630745768547058,7.280855511340499,0.004218101501464844
1746232128004932900,8.574932861328126,0.15721388791002205,-0.0011218488216400146,-0.027012525408252986,0.0021672826260328293,0.18676500384318168,0.8923101802561899,0.48259545377223556,right,-0.002273082733154297,-0.8359598739837998,1.0294322603914887,-6.493936487609147,-0.4100874580918925,0.018406206741929054,0.0017281994223594666,7.275950203642249,0.006145358085632324
1746232128044933000,8.61493310546875,0.15692231295686426,-0.010920868255198002,-0.02693458729667877,0.0020218598656356335,0.18665501022065017,0.8925060544005411,0.48206584843201444,right,-0.00150984525680542,-0.835159125109224,1.0284489484425634,-6.499988627254963,-0.40971618546661775,0.020745722576975822,0.0022849738597869873,7.270683076894283,0.006460726261138916
1746232128084933000,8.65493310546875,0.15615066121490057,-0.019672805443406105,-0.026942462751258507,0.0007131585152819753,0.18636813616973588,0.8927561620013013,0.4809173249920792,right,-0.0025496482849121094,-0.834341950493494,1.024356564562395,-6.506646916100382,-0.40930115135985917,0.024813668802380562,0.0007699355483055115,7.265302552899718,0.0049127936363220215
1746232128124933000,8.69493310546875,0.15497447790374608,-0.021124284714460373,-0.027058033181699345,-0.006022527348250151,0.18600419174197397,0.8930345314251352,0.47941150659427545,right,-0.0025603771209716797,-0.8335208282370508,1.0176233107846229,-6.513739504709839,-0.4088515467058876,0.024049604311585426,-0.0002957358956336975,7.259891633766889,0.002198636531829834
1746232128164932900,8.734932861328126,0.1537812747887626,-0.01605575531721115,-0.027232191045491422,-0.00631173187866807,0.18571590872641183,0.8932757755074507,0.4780883007513551,right,-0.0019047856330871582,-0.8328040611997377,1.010647188161686,-6.520089750519395,-0.4084438301538494,0.01731066033244133,-0.002730347216129303,7.255164605244993,0.0005922317504882812
1746232128204932900,8.774932861328125,0.15284675673118045,-0.006404918618500233,-0.027422007607406453,-0.007335030008107424,0.18558002364614504,0.8934308730906213,0.47726759181196166,right,-0.0015038251876831055,-0.832315443248658,1.0050932803615926,-6.524534454968571,-0.4081536112280196,0.009169118478894234,-0.004172712564468384,7.251939797979593,-0.0010167360305786133
1746232128244932900,8.814932861328124,0.15238886074481162,-0.00031766900792717934,-0.02755928429973892,-0.005730506032705307,0.18560365975840046,0.8934843711916771,0.4770710065547351,right,0.0002599954605102539,-0.8320941954328575,1.0023491692852229,-6.526579697060584,-0.40801657483432313,0.0004553915932774544,-0.00402773916721344,7.250479077777266,-0.0004239082336425781
1746232128284933000,8.85493310546875,0.1524275518481729,0.002953703049570322,-0.027599032173559787,-0.0008702650666236877,0.18568111948904703,0.8934440852728002,0.4772826489270631,right,0.0003679990768432617,-0.8322070739767737,1.0024773987747728,-6.525732140320539,-0.4080668544177368,-0.011479884386062622,-0.004261776804924011,7.251224343186617,0.0019722580909729004
1746232128324933000,8.89493310546875,0.15271660901408646,-0.0012306268326938152,-0.027580225539302654,0.008480294607579708,0.18567155212243044,0.8933256522182408,0.47749335145192606,right,0.0010294318199157715,-0.8327552718399995,1.0037588168874383,-6.521511892277002,-0.40833166804608817,-0.018589287996292114,-0.003590784966945648,7.254842533683776,0.0026856064796447754
1746232128364933000,8.93493310546875,0.15304169620954275,-0.0028779366984963417,-0.027521759359310994,0.009747789241373539,0.18553819592638435,0.8931940982819364,0.477477378298031,right,0.0009822249412536621,-0.8334880437091396,1.0050682189855724,-6.515930292752385,-0.4086839577938435,-0.014613889157772064,-0.004765793681144714,7.259675360667705,0.0010703802108764648
1746232128404932900,8.974932861328124,0.15329026656314,-0.0036380267702043056,-0.02744382095298415,0.009662017226219177,0.18538548536016394,0.893116740500081,0.47734019596237154,right,0.0006448030471801758,-0.8339854492461758,1.0061362866085022,-6.512110442203283,-0.40892740066841643,-0.00819765031337738,-0.0032886117696762085,7.2629539439469575,0.00022470951080322266
1746232128444932900,9.014932861328125,0.15375720298839654,-0.0003972242120653391,-0.027273039753172256,0.005996032617986202,0.18525283236211743,0.8930608578436816,0.4773195393579421,right,-0.003550231456756592,-0.8343269385556613,1.0087970302503555,-6.509188417276739,-0.4091209338603805,-0.013666771352291107,-0.004743784666061401,7.265203768700361,0.002737879753112793
1746232128484932900,9.054932861328124,0.15435126644946717,0.010994544252753258,-0.027166506666026317,0.006779341958463192,0.1852209515823026,0.8929001623689669,0.47765496442499356,right,-0.004609942436218262,-0.835059737676365,1.0118450196441262,-6.503326247245073,-0.4094931456995873,-0.02605852112174034,-0.004980422556400299,7.270028996899724,0.0030516982078552246
1746232128524932900,9.094932861328125,0.1555336647560413,0.017405664548277855,-0.0269951535677321,0.008461684919893742,0.18538274892172069,0.8926141569460989,0.4787559080743611,right,-0.00229722261428833,-0.836122128067777,1.0183366466857493,-6.494490029838681,-0.41005417342282535,-0.028346452862024307,-0.002702489495277405,7.277016956090927,0.002177894115447998
1746232128564933000,9.13493310546875,0.15682968029085298,0.017768358811736107,-0.02679514600474685,0.008758005686104298,0.18561346740383422,0.8923375831809948,0.48004083573683853,right,-0.0025092363357543945,-0.8370506741328011,1.0256968732554466,-6.486487340646982,-0.41056448405475715,-0.0245639830827713,-0.0022152215242385864,7.283117611053585,0.002986729145050049
1746232128604933000,9.17493310546875,0.15792371510681566,0.012858463451266289,-0.026643236054953525,0.006001405883580446,0.18583690661288663,0.8920943014377788,0.48119452274819224,right,-0.002009093761444092,-0.8378511378539629,1.0318754888251422,-6.479601672786474,-0.4110016855374622,-0.020487744361162186,-0.0018473118543624878,7.288372462841868,0.004887938499450684
1746232128644932900,9.214932861328125,0.15865862645097129,0.0071517727337777615,-0.026577067108665538,0.0008767223916947842,0.1859965219217892,0.891889670322651,0.48202737003568075,right,-0.0011568665504455566,-0.8385789116452286,1.0357989458791912,-6.47360330915451,-0.4113778783787752,-0.018798118457198143,-0.0008836835622787476,7.293145084071159,0.00536876916885376
1746232128684932900,9.254932861328125,0.15939487066189387,0.0014450810849666595,-0.026510922651399028,-0.004247961565852165,0.18615607424932412,0.891684794294906,0.48286148925940664,right,-0.00030493736267089844,-0.8393060341588641,1.039722841324657,-6.467601438391208,-0.41175391260904864,-0.01710849069058895,0.00007990747690200806,7.297910691037774,0.005850434303283691
1746232128724932900,9.294932861328125,0.15924962775866494,-0.0005454393103718758,-0.02664022871595735,-0.00702139874920249,0.18612973401091001,0.8915803355532481,0.482839580594408,right,-0.0003693699836730957,-0.8398604473723971,1.0381416365478187,-6.46375586887896,-0.41198356438817685,-0.012361869215965271,-0.00214531272649765,7.301541156494617,0.000028371810913085938
1746232128764932900,9.334932861328125,0.1589168154629107,-0.0020962494891136885,-0.02678206833309289,-0.0013863160274922848,0.18611401948415335,0.8915525649191337,0.4826878830187063,right,0.00046259164810180664,-0.8400590997911468,1.0357608788911252,-6.462669242686033,-0.4120416213908267,-0.004119408316910267,-0.002740323543548584,7.30284113317728,-0.0009109973907470703
1746232128804933000,9.37493310546875,0.1589412744937036,0.0006838003173470497,-0.026861005215473976,-0.0016099042259156704,0.18610772470032588,0.8914389041312858,0.4827891865659561,right,-0.0018696784973144531,-0.8406130176952807,1.0352785022016615,-6.458648316606879,-0.41228516167472357,-0.02215292677283287,-0.0018903017044067383,7.306465753415226,0.0015398263931274414
1746232128844933000,9.41493310546875,0.1593339634038253,-0.0016747822519391775,-0.02688817249797585,0.008031560108065605,0.18607619508759562,0.8912073143415633,0.48310672252778813,right,-0.00038355588912963867,-0.8417102443576366,1.0365420193314552,-6.450322386810183,-0.4127979233489927,-0.027974117547273636,-0.002149708569049835,7.313638421523571,0.00002473592758178711
1746232128884933000,9.45493310546875,0.15991178011524365,0.0019324307795614004,-0.02686045542621235,0.014215894043445587,0.18597279785139492,0.8909309740715636,0.48339895810694206,right,-0.0005201101303100586,-0.843068887625198,1.0386858994923531,-6.439906791257858,-0.4134424394029033,-0.035630736500024796,-0.0021122246980667114,7.322507956677675,0.002902507781982422
1746232128924932900,9.494932861328126,0.16101499527480476,0.006331523880362511,-0.026663242846541858,0.025516878813505173,0.1858168600487237,0.8906017798983256,0.4838622863839177,right,0,-0.8446573797250297,1.0439237270805983,-6.427267674437165,-0.4142337894488538,-0.04078309237957001,-0.0017530322074890137,7.332860423865914,0.005208790302276611
1746232128964932900,9.534932861328125,0.16263270841565103,0.005582930985838175,-0.02625776266885745,0.0260744858533144,0.1856390761548114,0.8902861239356714,0.4844956213047619,right,0.00015670061111450195,-0.8461243975867163,1.0525768430050462,-6.414947706568241,-0.41501714088114633,-0.026753077283501625,-0.0017878934741020203,7.342405081802606,0.002360045909881592
1746232129004932900,9.574932861328126,0.16405855436525124,0.008966894820332527,-0.02585267347249459,0.023626191541552544,0.18554274062582868,0.8900915660302066,0.48510250384982695,right,-0.0023017525672912598,-0.8469504842033599,1.0607314348228276,-6.407453551420569,-0.4155026080472254,-0.02104584313929081,-0.00004889070987701416,7.347772746315598,0.005041241645812988
1746232129044933000,9.61493310546875,0.1656545892963236,0.006065842229872942,-0.02536829653118046,0.0291718952357769,0.1854089124267462,0.889903516379218,0.4857023996493198,right,-0.0005009174346923828,-0.847755990853381,1.0699803246833384,-6.399913219043612,-0.41599481091804213,-0.02126668021082878,0.0014007240533828735,7.353001879140734,0.004850268363952637
1746232129084933000,9.65493310546875,0.16674485554515855,0.00301628140732646,-0.025046625040281795,0.014401662163436413,0.18527143897273649,0.8897464751686005,0.4860449401650364,right,-0.0013413429260253906,-0.8484881219942861,1.0760635170545427,-6.3934326248526565,-0.41641125030784526,-0.01477298978716135,-0.000598318874835968,7.357750534972548,0.0013268589973449707
1746232129124933000,9.69493310546875,0.1674839617484882,0.006918258033692837,-0.02488715228893388,0.005318213254213333,0.18528333737812008,0.8896065943701872,0.48652460273289994,right,0.00011724233627319336,-0.8490389199414946,1.080112865510583,-6.388638376313447,-0.4167142066236199,-0.011027886532247066,-0.0009064152836799622,7.361320210152864,-0.00026357173919677734
1746232129164932900,9.734932861328126,0.16823534368300644,0.012400167062878609,-0.024797945339372365,0.004971067886799574,0.18538125785905535,0.8894060787096238,0.48724358971153237,right,-0.0019845962524414062,-0.8497924905915457,1.0839837155945597,-6.382354181477427,-0.4171037872440302,-0.028230439871549606,-0.0005429163575172424,7.366200967931747,0.0005304217338562012
1746232129204932900,9.774932861328125,0.16935961399082636,0.020361732691526413,-0.024717876016884115,-0.005976349581032991,0.18566325134914674,0.8890914702821799,0.4886126932666945,right,-0.0028522610664367676,-0.8508525431683274,1.0898417939729987,-6.3734308703094715,-0.41765353652346054,-0.0318194255232811,-0.00038313865661621094,7.37305916326344,0.0027223825454711914
1746232129244932900,9.814932861328124,0.17068550008391933,0.03279568627476692,-0.024685250265866633,0.005116300191730261,0.18618219195406607,0.888715058519704,0.49061705708861764,right,-0.0021538138389587402,-0.8519378788948024,1.0969313869077713,-6.36409079503417,-0.4182251926231659,-0.035680826753377914,0.0016733184456825256,7.380072841417789,0.009109318256378174
1746232129284933000,9.85493310546875,0.1723626173928225,0.018916498869657516,-0.024511297413469805,0.0007356624118983746,0.1866338954809369,0.8883288255467855,0.49264993122694206,right,0.001820206642150879,-0.8530801157556996,1.1061566036317496,-6.353932973635196,-0.4188541244154262,-0.020531412214040756,0.0023453012108802795,7.387444246968626,0.009508848190307617
1746232129324933000,9.89493310546875,0.1731365292461844,0.0025949571281671524,-0.02441246650878741,0.00017774151638150215,0.18685147211371284,0.8881774821036079,0.4935820357385591,right,0.002970576286315918,-0.8534678478685526,1.1105801191624254,-6.35025282381773,-0.41908380287489283,-0.004482666030526161,0.0039117783308029175,7.389944247090816,0.011439681053161621
1746232129364933000,9.93493310546875,0.17299917806339393,-0.008064528927206993,-0.02444219971546554,0.00524342805147171,0.18676626311310107,0.8881720649349357,0.49335177792376766,right,0.005783259868621826,-0.8536004648162341,1.1095391587421297,-6.349439753869175,-0.41913152267497333,-0.0013006487861275673,0.0039113834500312805,7.390799402615428,0.010085463523864746
1746232129404932900,9.974932861328124,0.17298215262675426,-0.004135390743613243,-0.024360030236631962,0.002423566300421953,0.1865727283109994,0.8882092573192144,0.49291180901628945,right,0.0037147998809814453,-0.8536198247143348,1.109406472273171,-6.349318173316121,-0.41914372115949056,0.006569588556885719,0.0021343156695365906,7.390923905777931,0.005251109600067139
1746232129444932900,10.014932861328125,0.1729389853262438,-0.0016713680233806372,-0.024254589777365627,-0.0019941884092986584,0.18647751926759218,0.8883235190540175,0.49258856305389154,right,-0.003254532814025879,-0.8531751700716843,1.1096977833699435,-6.35260260181427,-0.4189500141732349,0.010711481794714928,-0.0005824863910675049,7.388057410430908,0.003487825393676758
1746232129484932900,10.054932861328124,0.1724015111721041,-0.00027006922755390406,-0.0243780072906952,-0.005871051922440529,0.1865173601366762,0.8884320781480111,0.4923297908359883,right,-0.000292360782623291,-0.852696911040727,1.1068893018204717,-6.356678472951054,-0.41869477804235666,0.012338244356215,0.0008483901619911194,7.3849723038971415,0.0004457235336303711
1746232129524932900,10.094932861328125,0.17220225621642765,0.0031722700223326683,-0.024449146189495032,-0.008803950622677803,0.18659004159633202,0.8884625629850403,0.4923620420326089,right,-0.001961827278137207,-0.8525081370652839,1.1058615662079303,-6.358272464144229,-0.4185935711401507,-0.000019741244614124298,-0.0008857399225234985,7.383754160279035,0.001797795295715332
1746232129564933000,10.13493310546875,0.17187981964137933,0.006225984543561935,-0.024657859246536396,-0.006896494887769222,0.18676516578650124,0.8884177458952479,0.49262163252613933,right,0.002503037452697754,-0.8525952840573443,1.1037011733036488,-6.357994231724739,-0.4185982674971568,-0.002762717194855213,-0.000060088932514190674,7.3843164703369135,0.0014629364013671875
1746232129604933000,10.17493310546875,0.17204966250300682,0.002495725639164448,-0.024670798981049864,-0.0007763393223285675,0.1868538959035734,0.8883569803731496,0.4929363747818287,right,0.0004799365997314453,-0.8527713435432936,1.1045585207853466,-6.356525912737846,-0.4186869155138163,-0.005566652398556471,0.001211017370223999,7.385452780890464,0.0025522708892822266
1746232129644932900,10.214932861328125,0.17241595289823283,0.004602429457008839,-0.02462396673304836,0.0027210451662540436,0.18692258474695672,0.8882726031472885,0.49331915086121575,right,0.00038045644760131836,-0.8530504206011593,1.106533108793944,-6.354089625501632,-0.41883796663055595,-0.004404778592288494,0.0008603259921073914,7.387252523788809,0.0038486123085021973
1746232129684932900,10.254932861328125,0.17276737046205504,0.001245696796104312,-0.024510652899849477,0.0020281923934817314,0.18692748506672954,0.8882534135163086,0.4935026818499853,right,-0.001061856746673584,-0.8530844026706456,1.1087229469884186,-6.353454250207543,-0.41888330587521333,0.0012766970321536064,0.001509144902229309,7.387471719497442,0.004140257835388184
1746232129724932900,10.294932861328125,0.172610593096157,0.004620287101715803,-0.02454168127116181,-0.0058975303545594215,0.18692415471723076,0.8882856465207121,0.49339600688784097,right,-0.0025719404220581055,-0.8529574911934175,1.1078878844037652,-6.354551397794484,-0.41881468414295403,0.00679047079756856,0.0017971023917198181,7.38665338885188,0.0056168437004089355
1746232129764932900,10.334932861328125,0.17224661604901562,-0.0009219981729984283,-0.024633147731880203,-0.01038286928087473,0.18698833020453512,0.8883630989039518,0.4932932760598692,right,-0.0012251734733581543,-0.8525770583485291,1.1060564311929046,-6.357722429046034,-0.4186162742552652,0.011402441188693047,0.0011489540338516235,7.384198981437087,0.005475878715515137
1746232129804933000,10.37493310546875,0.17154013246314337,0.0016035453882068396,-0.024852786839919032,-0.018478121608495712,0.18710928161108073,0.8884604607572366,0.4931373108377783,right,-0.001353442668914795,-0.85209603212023,1.1021708219312132,-6.36200171380043,-0.41834260405047424,0.012808484025299549,-0.0005388781428337097,7.381094001159071,0.0014955401420593262
1746232129844933000,10.41493310546875,0.17064731917951778,0.003320632968097925,-0.025156863964373118,-0.02315836027264595,0.18732282922731947,0.8885733511006741,0.49307472822517845,right,-0.0019999146461486816,-0.8514743741654494,1.0972693136252463,-6.36750381834805,-0.4179889817448674,0.01260310411453247,-0.0009430274367332458,7.3770783357769245,0.001840353012084961
1746232129884933000,10.45493310546875,0.16993978575158583,0.0023440602235496044,-0.025464397180774374,-0.016619965434074402,0.18753437189487257,0.8885963698632812,0.4931751479792754,right,-0.001402437686920166,-0.8512568700242551,1.093035183186829,-6.369860026085377,-0.4178266141238297,0.00036342162638902664,-0.0006653517484664917,7.375673145154118,0.0012801289558410645
1746232129924932900,10.494932861328126,0.16942708755706123,0.0015846930909901857,-0.025760316398482606,-0.02108042687177658,0.1877707711500239,0.8885534202128699,0.49347472018584315,right,-0.0014204978942871094,-0.8513002781990062,1.0897152449838816,-6.370103771713375,-0.41779359892784823,-0.002803599229082465,-0.003958910703659058,7.375953715661168,-0.0005401968955993652
1746232129964932900,10.534932861328125,0.16893922083295781,0.007503971457481384,-0.02609374072833737,-0.013054762966930866,0.18806681215841442,0.8884746796522491,0.49394132825437437,right,0.0009756684303283691,-0.8514506259756974,1.0864208796136081,-6.369541461655497,-0.4178072188013667,-0.010606399737298489,-0.002931743860244751,7.376925191041827,-0.000247955322265625
1746232130004932900,10.574932861328126,0.16878663858580342,0.00028795935213565826,-0.02631815791126439,-0.015331024304032326,0.18831629106654077,0.8883595642832541,0.4944944940560207,right,-0.0006199479103088379,-0.8517717578460428,1.0850509794998913,-6.367371716400981,-0.41792552798815824,-0.011488137766718864,-0.004208870232105255,7.378999659228325,0.0000022649765014648438
1746232130044933000,10.61493310546875,0.1681664570244647,0.0008876843494363129,-0.026635911847272837,-0.0027952874079346657,0.18837956848243198,0.8882746203344225,0.49443081078100387,right,-0.00003933906555175781,-0.8522065249517016,1.0805647739965467,-6.3648798995852465,-0.41805738010382437,-0.005915247369557619,-0.0015179365873336792,7.381807117864489,0.003649771213531494
1746232130084933000,10.65493310546875,0.16848129914750395,0.0051892902702093124,-0.02663686294417276,-0.002742914017289877,0.1884679899432262,0.8881618864941633,0.49485756013924087,right,-0.002807140350341797,-0.8526095373377705,1.082069698666781,-6.361605992481112,-0.41825691640224966,-0.016104673966765404,-0.0012345239520072937,7.384408240273594,0.00798952579498291
1746232130124933000,10.69493310546875,0.168384934880929,-0.005037402734160423,-0.026768010360155206,0.003840196877717972,0.18848691196611791,0.8880510103523385,0.4949584454862066,right,0.0021708011627197266,-0.8531350424452044,1.080806108471751,-6.357883757087588,-0.4184753674418191,-0.009277472272515297,-0.000476934015750885,7.387798467233776,0.0058560967445373535
1746232130164932900,10.734932861328126,0.1680669702019222,-0.006393624469637871,-0.026853667816898668,-0.001787551213055849,0.18831201300442113,0.8880259664297429,0.4944826175556644,right,0.0014324784278869629,-0.8534794889105616,1.0783587883848695,-6.3557175189644095,-0.41860179113578666,-0.002968819346278906,-0.0014564618468284607,7.390019650414586,0.005350708961486816
1746232130204932900,10.774932861328125,0.16772208543757455,-0.004847902804613113,-0.026939204951970372,-0.000411632121540606,0.18819086487570374,0.8880330986926492,0.49407458234958535,right,0.002285480499267578,-0.8536186703991127,1.075994908797741,-6.355074544885754,-0.4186354759861152,0.0029558027163147926,-0.002113811671733856,7.390916891515254,0.0017657876014709473
1746232130244932900,10.814932861328124,0.16768487942650764,0.00500944908708334,-0.026949312833189912,0.0007579434895887971,0.18824938094070637,0.8880594365355152,0.49415351999418844,right,0.002068758010864258,-0.85343921422782,1.0759798573590815,-6.356422452363372,-0.4185527271321952,0.00664428249001503,-0.0008871480822563171,7.389760122695565,0.0032461881637573242
1746232130284933000,10.85493310546875,0.16766352284001879,0.0017554601654410362,-0.02697016973291124,-0.011987121775746346,0.1884260902914225,0.8881089507931591,0.4944600866137682,right,0.0003179311752319336,-0.8530260856759206,1.0763534399118273,-6.359454367405176,-0.41836666542452644,0.012452153488993645,-0.0017136111855506897,7.387095871922373,0.002392292022705078
1746232130324933000,10.89493310546875,0.16731131359459156,0.007051572203636169,-0.027075066483595808,-0.009118372574448586,0.18860725079750765,0.8882077579186133,0.4945832656732236,right,0.000027000904083251953,-0.8524215074807154,1.0748570638742296,-6.364235756462812,-0.41806843091227053,0.008753866888582706,-0.00014571845531463623,7.383194772830605,0.00020331144332885742
1746232130364933000,10.93493310546875,0.16728818429592662,0.00825042650103569,-0.027164680059607385,-0.009250715374946594,0.18885469498767787,0.888198958386249,0.49508900222342767,right,-0.0018595457077026367,-0.8522152719897134,1.0749633737929165,-6.365761943116784,-0.41796955566622696,-0.004638945683836937,-0.0016962289810180664,7.3818638164877886,0.004111588001251221
1746232130404932900,10.974932861328124,0.16764581503258058,0.01084904745221138,-0.02720417972586996,-0.0019750380888581276,0.1891018412902047,0.8880774799655674,0.4958683237138116,right,0.0004603862762451172,-0.8524918577134323,1.0768990910958498,-6.3633636498034,-0.4181132563590693,-0.007807889953255653,-0.001050792634487152,7.383648946338892,0.003380417823791504
1746232130444932900,11.014932861328125,0.16817672641283518,0.002786717377603054,-0.027130602401925514,-0.002419008407741785,0.18927334710647423,0.8879886391372295,0.49653852419349426,right,-0.0008540153503417969,-0.8526637939736442,1.0800648616503923,-6.361539356985688,-0.41822922283822195,-0.0034457468427717686,-0.00031550973653793335,7.3847583688855165,0.006192147731781006
1746232130484932900,11.054932861328124,0.16806920841332268,-0.0009813467040657997,-0.02718275279559082,-0.0014743073843419552,0.1892891800472025,0.8879793018666495,0.49653233399299107,right,-0.0003548860549926758,-0.8527082942275406,1.0793259529165924,-6.361331851714849,-0.4182385066274315,-0.00011192820966243744,0.000044152140617370605,7.385045953655243,0.0058825016021728516
1746232130524932900,11.094932861328125,0.1678921816340598,-0.005602310877293348,-0.027209047795553696,-0.004025613889098167,0.1892347536794333,0.8880077896109548,0.4963156328553915,right,-0.0012618303298950195,-0.8526538380403227,1.0782670184481888,-6.361919296213984,-0.4182009773219339,0.0041273655369877815,-0.0017687752842903137,7.384694655999541,0.005239307880401611
1746232130564933000,11.13493310546875,0.16739060724218421,-0.003290931461378932,-0.027339207399107154,-0.004694667179137468,0.18918944077641997,0.8880598705592408,0.4959519823104233,right,0.0007787346839904785,-0.8525249197467114,1.0752345188844947,-6.3633975520730015,-0.4181023481411262,0.003251499030739069,-0.0023211315274238586,7.383862296828627,0.0017585158348083496
1746232130604933000,11.17493310546875,0.16716588966947335,0.0028012313414365053,-0.02739007007257776,-0.00271960673853755,0.1892484611860151,0.888121676541462,0.4959156340184469,right,-0.00011521577835083008,-0.8522023857986194,1.0742007919225842,-6.365987568566203,-0.41794107823980176,0.005367404781281948,-0.0033878982067108154,7.381780814379454,0.0010880231857299805
1746232130644932900,11.214932861328125,0.16727982293700033,-0.000281226122751832,-0.027329069194851386,0.0008282558992505074,0.1893354459581123,0.8881768134674078,0.4960923893585852,right,-0.001094043254852295,-0.8518328697018289,1.075380137900263,-6.368554204183816,-0.41778848050573697,0.003828308777883649,-0.002529934048652649,7.379394211503863,0.003310859203338623
1746232130684932900,11.254932861328125,0.16744216153262373,-0.006142552010715008,-0.027238564358238574,0.00801864080131054,0.18927320780774518,0.8881913389224823,0.4960226848307264,right,-0.00010466575622558594,-0.8518028074488061,1.0764509820021688,-6.368598627847433,-0.417791703615288,-0.003300741547718644,-0.0018275082111358643,7.379200150236487,0.005044519901275635
1746232130724932900,11.294932861328125,0.1674455875437379,-0.014902764931321144,-0.02709805320028918,0.014722784981131554,0.18889814303691826,0.8882252544659209,0.4952229428615039,right,0.0006044507026672363,-0.8520222332036402,1.076202925525233,-6.366998206913471,-0.41789847807066777,-0.0017965490696951747,-0.0010746270418167114,7.380617615818977,0.0034883618354797363
1746232130764932900,11.334932861328125,0.16709987825029907,-0.014764560386538506,-0.02699599422970911,0.013577627949416637,0.1884142863983179,0.8883312741570385,0.493977895697246,right,0.00034505128860473633,-0.8520579100766466,1.0739579230774194,-6.367110435116291,-0.41789823173923085,0.00848184060305357,-0.0025319457054138184,7.380847917443513,0.0021649599075317383
1746232130804933000,11.37493310546875,0.16701636522709104,-0.008944015949964523,-0.026811940961596024,0.010796035639941692,0.18807153777056837,0.8884705487025361,0.4931067670117312,right,-0.0010371804237365723,-0.8517508313779681,1.07380287864618,-6.369434494149685,-0.4177682914808519,0.013298900797963142,-0.002445325255393982,7.378864634671807,0.0034083127975463867
1746232130844933000,11.41493310546875,0.16712524752359523,0.0025094635784626007,-0.02662498351903207,0.00880722887814045,0.18788504125750227,0.8885830017517458,0.49266643771601587,right,-0.0007164478302001953,-0.8513848274164599,1.074945545875281,-6.37197950245738,-0.41762490026434884,0.00878390297293663,-0.0013327673077583313,7.3765002436280245,0.00325930118560791
1746232130884933000,11.45493310546875,0.16744217167584674,0.0035367775708436966,-0.026489297722457974,0.0017942977137863636,0.18786418416800363,0.8885976782121406,0.4927496025095645,right,-0.003187835216522217,-0.8512887076481254,1.0770830693606286,-6.372337814375758,-0.4176116728457623,-0.0043173301964998245,0.0012153759598731995,7.375878896859287,0.00858980417251587
1746232130924932900,11.494932861328126,0.16750291450566882,-0.002131374552845955,-0.02651934149650776,-0.0033115707337856293,0.18785306640605026,0.8885283841682571,0.4928186926456294,right,0.0007762908935546875,-0.8516230284660031,1.077058957832679,-6.369840736863017,-0.41776217877394206,-0.007149253506213427,0.0023406296968460083,7.37803928976357,0.008806467056274414
1746232130964932900,11.534932861328125,0.16689408924778143,-0.009002886712551117,-0.026741865839383417,-0.019994011148810387,0.1878677590296929,0.8885379659018404,0.4925712660719599,right,0.0019640326499938965,-0.8516522947053748,1.0731447800636291,-6.37028263541162,-0.4177210346923538,0.006092239636927843,0.0011679381132125854,7.378228090333939,0.010331690311431885
1746232131004932900,11.574932861328126,0.16538284878844978,-0.01124484371393919,-0.027163054698650903,-0.02811344340443611,0.18796653925635248,0.8887479533248913,0.4919109737917085,right,0.005661964416503906,-0.850768087666218,1.0645901560775934,-6.3783297482669346,-0.4172024334028312,0.03525109216570854,-0.0011577978730201721,7.372513219818472,0.007837235927581787
1746232131044933000,11.61493310546875,0.16341053239021414,-0.009162243455648422,-0.027595927390102554,-0.023959625512361526,0.18808791990136747,0.8891659769825947,0.4909021675383261,right,0.005621910095214844,-0.8489265671970148,1.0542149656008928,-6.393801458165049,-0.4162274664593562,0.05388356000185013,-0.0017470642924308777,7.3605924804002045,0.005515158176422119
1746232131084933000,11.65493310546875,0.16183619554099116,-0.010653856210410595,-0.027808673855949224,-0.01207004301249981,0.18813829991099063,0.889649911420385,0.48986548494361115,right,0.0064849853515625,-0.8467766687366572,1.046695091490075,-6.411056544348597,-0.4151551070498322,0.055637650191783905,-0.0016025081276893616,7.346644034546613,-0.0004583597183227539
1746232131124933000,11.69493310546875,0.16048716541314673,-0.018321864306926727,-0.02793045529174318,-0.007270310074090958,0.18801701807084617,0.8900809447223373,0.4886276166188719,right,-0.0023979544639587402,-0.845017958025439,1.040108552706614,-6.425207234776019,-0.41427705755069116,0.031433746218681335,-0.004310600459575653,7.335207863774896,0.0024155378341674805
1746232131164932900,11.734932861328126,0.15968906700662377,-0.008224088698625565,-0.02800220154173807,0.011429205536842346,0.1877502632709499,0.8902644308762816,0.48756184235043826,right,-0.0019500255584716797,-0.8445184551183521,1.0355626529052853,-6.4296513547033065,-0.4139986626865746,-0.0012380704283714294,-0.0021844208240509033,7.331955583980679,0.0016640424728393555
1746232131204932900,11.774932861328125,0.16018283874922096,-0.008878707885742188,-0.027693345890583886,0.019767912104725838,0.1874268566287962,0.8903005545486864,0.48708087320039245,right,-0.00010877847671508789,-0.8446021796034658,1.0386393569368868,-6.4285331643283365,-0.414088281674033,0.005156392697244883,-0.001073993742465973,7.332500942903756,-0.00005811452865600586
1746232131244932900,11.814932861328124,0.16081505084991055,-0.004207538906484842,-0.02730631392075728,0.016476737335324287,0.1871719776617674,0.890395517111798,0.4867470323232362,right,-0.0026589632034301758,-0.8443115614000184,1.0430444600280373,-6.429978102439642,-0.4140250197798607,0.008213987573981285,-0.00043154507875442505,7.330608261024952,0.0049800872802734375
1746232131284933000,11.85493310546875,0.1613127415647126,-0.002964115934446454,-0.026954237340729825,0.020604554563760757,0.18692426681630642,0.8905120926069834,0.48634905204299156,right,-0.0027982592582702637,-0.8439282715498501,1.0466957490772009,-6.432231434324383,-0.4139093377097684,0.010828789323568344,0.0027016475796699524,7.328111183512211,0.004735827445983887
1746232131324933000,11.89493310546875,0.16148325324853693,-0.0012733618495985866,-0.026724935446313474,0.0023480895906686783,0.18682364950718197,0.8906824909403347,0.48606019422260105,right,-0.005509078502655029,-0.8431820645327275,1.0486713599991053,-6.437447707667946,-0.4136028067062421,0.02313685044646263,0.0012503564357757568,7.323246207824349,0.0034565329551696777
1746232131364933000,11.93493310546875,0.16085115617322032,-0.005805673077702522,-0.02676250257714926,-0.016181988641619682,0.1868512165970047,0.8909419939349957,0.48560236365617915,right,-0.0044100284576416016,-0.8419908295096622,1.0459985605932771,-6.4467164712727065,-0.41302870490020877,0.029324572533369064,-0.0003441944718360901,7.315471482169627,0.002818763256072998
1746232131404932900,11.974932861328124,0.15967549678722617,-0.007308084983378649,-0.02700314066578754,-0.01354763749986887,0.18691274989455067,0.8912147824060235,0.4849662183767879,right,-0.0020952224731445312,-0.840777517535366,1.0398292973738164,-6.456700689670443,-0.4123963217650421,0.026485849171876907,-0.0013340935111045837,7.307541858214139,-0.0019402503967285156
1746232131444932900,12.014932861328125,0.158906030113386,-0.001916209701448679,-0.027191868657744842,-0.012615898624062538,0.18694386291920642,0.8913510005314673,0.48457054249177145,right,-0.0019701123237609863,-0.8401964749406271,1.0355324769627303,-6.461690168520808,-0.412075343464492,0.0052368417382240295,-0.004116490483283997,7.303740712365507,-0.0028322339057922363
1746232131484932900,12.054932861328124,0.15852724257881456,0.006852520164102316,-0.027425238159626424,-0.008499830961227417,0.18709132097559464,0.8912903204475924,0.48476361698017023,right,-0.000322878360748291,-0.840394769405307,1.0328560973603278,-6.460651473122835,-0.41212413672546994,-0.011999296024441719,-0.003622777760028839,7.305037766438722,-0.0020369887351989746
1746232131524932900,12.094932861328125,0.15880925619494757,0.005718803498893976,-0.02749670400406943,-0.0012859567068517208,0.18721394308391115,0.8911132624758963,0.4852998580199254,right,-0.0002276301383972168,-0.8410877513044984,1.0338773301668465,-6.455360380977392,-0.4124465491940476,-0.016983414068818092,-0.0035202354192733765,7.309570149171352,0.0005900263786315918
1746232131564933000,12.13493310546875,0.1591702888213989,0.006560583133250475,-0.02751236923573897,-0.0020456132479012012,0.18734388047110379,0.8909720970609736,0.4858528205248274,right,-0.0006139278411865234,-0.8415865829342696,1.0356296537268905,-6.451384463083744,-0.41269116161405994,-0.007959221489727497,-0.0015247315168380737,7.312830612272024,0.0028675198554992676
1746232131604933000,12.17493310546875,0.15936704683719363,0.0015695327892899513,-0.027484768632549703,-0.0003098371671512723,0.18744503879998256,0.8909520453185492,0.4861645774157623,right,-0.0002148747444152832,-0.8415524263487147,1.0369386174336075,-6.45142713318169,-0.41269036080322086,0.002554898150265217,-0.0009322240948677063,7.3126073249101635,0.005163669586181641
1746232131644932900,12.214932861328125,0.15923667617546458,-0.0017437022179365158,-0.02750293834668621,-0.0018986391369253397,0.18747038455676138,0.8909998380758369,0.4861159747617299,right,-0.0011930465698242188,-0.84131384964628,1.0363741154186428,-6.453284743747115,-0.41257440155410924,0.006006416864693165,-0.0014355629682540894,7.31104840503037,0.004050076007843018
1746232131684932900,12.254932861328125,0.15891074313955464,-0.0033777253702282906,-0.027546089053938568,0.0034086352679878473,0.1874007298868857,0.8910728443296986,0.48576423679691916,right,-0.0008854269981384277,-0.841078227945055,1.034543319794908,-6.455322971576452,-0.41244554490665075,0.0044586630538105965,-0.0004510954022407532,7.309508189851045,0.0036200284957885742
1746232131724932900,12.294932861328125,0.15885745503735377,-0.0007640351541340351,-0.027516263916260948,0.0010236897505819798,0.18732189387179105,0.8911060860885206,0.4855488288142971,right,-0.001738905906677246,-0.8410051088859832,1.0342838651411235,-6.455905739900469,-0.4124115134415778,0.0022172334138303995,-0.001672491431236267,7.309030050945282,0.00186234712600708
1746232131764932900,12.334932861328125,0.15897675045601703,0.008460521697998047,-0.027438366729080052,-0.003492499701678753,0.18741710340008857,0.8911833910687752,0.4857254564054841,right,-0.0012840032577514648,-0.8405162936393379,1.035619424593821,-6.4593094108641145,-0.41220628461860204,0.015427584759891033,-0.0019493848085403442,7.305833300730586,0.002189457416534424
1746232131804933000,12.37493310546875,0.15911897932237593,0.008312649093568325,-0.027379851218302532,-0.005836009979248047,0.1876520305179633,0.8912772058338528,0.4861835063615507,right,-0.0013469457626342773,-0.8398015088216981,1.0373653184130787,-6.46431642537117,-0.41190038613196395,0.012381913140416145,-0.0015851706266403198,7.301155372047424,0.0036097168922424316
1746232131844933000,12.41493310546875,0.15928405419874225,0.004367487505078316,-0.027354328461348755,-0.0045478371903300285,0.18781837370030288,0.8912931787503927,0.4865818441161867,right,-0.0022479891777038574,-0.8395303473916159,1.0387463975079356,-6.466099801656603,-0.41179170262446047,-0.0016646049916744232,-0.003257550299167633,7.299379594546556,0.0032488107681274414
1746232131884933000,12.45493310546875,0.15918635889902816,0.0019868381787091494,-0.027485809181070818,-0.005499390419572592,0.18791921856499014,0.8912113248264923,0.4868212587702255,right,0.0006255507469177246,-0.8398386265715467,1.0377579709924758,-6.46397974076271,-0.4119141866201382,-0.007251863833516836,-0.0029189959168434143,7.301397948631644,0.00030922889709472656
1746232131924932900,12.494932861328126,0.15934329232125063,0.005609198939055204,-0.027541279939841786,0.0012368503957986832,0.18796399855875662,0.891084573242079,0.4870974964393911,right,0.0006230473518371582,-0.8403844025936912,1.0381398829821498,-6.459880488750338,-0.41216407692447493,-0.013251947239041328,-0.003542684018611908,7.304969961899519,-0.0009825825691223145
1746232131964932900,12.534932861328125,0.1596935265980487,0.006071454845368862,-0.027564306874142495,-0.0009338760282844305,0.18802080197421994,0.8909125171394592,0.48752441657844364,right,0.0004929900169372559,-0.8411095670076051,1.0395596866521983,-6.454285445222258,-0.41250847634347027,-0.020157117396593094,-0.0032374784350395203,7.309712772512436,0.0001774430274963379
1746232132004932900,12.574932861328126,0.16051127925125697,0.01762419193983078,-0.027453728410019203,0.010313193313777447,0.18813056922619814,0.8907088244262753,0.4882931969647351,right,-0.002207040786743164,-0.8418651497749033,1.0439542683493346,-6.44797903855443,-0.41290540235194856,-0.023157190531492233,-0.0027046799659729004,7.314650228914618,0.005422234535217285
1746232132044933000,12.61493310546875,0.16185015673263223,0.010915538296103477,-0.027228072371130466,0.005027731880545616,0.18833622502828967,0.8904417420129329,0.48954545029430924,right,-0.00016450881958007812,-0.8427524184704391,1.051540120368451,-6.440167488020658,-0.41340232300436,-0.019225839525461197,-0.00042847543954849243,7.320442840841412,0.008815467357635498
1746232132084933000,12.65493310546875,0.16252206361904617,0.000281565822660923,-0.02709380945769049,0.007947474718093872,0.18834747031118915,0.890300506035598,0.48999258813386554,right,0.0014355182647705078,-0.8433255300440836,1.0551880484167486,-6.435318294423818,-0.41371006759242857,-0.010996270924806595,-0.0006540194153785706,7.324181442847848,0.009161055088043213
1746232132124933000,12.69493310546875,0.16264048024317332,-0.006778567098081112,-0.027043480360442258,0.011915244162082672,0.18817497104781547,0.8902446869417354,0.48974233256180527,right,0.003092050552368164,-0.8437540749507682,1.0554417309168727,-6.432095240724086,-0.41391191149564494,-0.006506559904664755,-0.0013139843940734863,7.3269754574805495,0.006572842597961426
1746232132164932900,12.734932861328126,0.1629494111168828,-0.0027687158435583115,-0.026887451737851193,0.010587166994810104,0.18797021596336447,0.8902201402842262,0.489480331230195,right,0.0022235512733459473,-0.8440369849632195,1.0570925668638198,-6.429723835417628,-0.4140680875742989,-0.0007519950158894062,-0.0012318864464759827,7.32881962404251,0.004999339580535889
1746232132204932900,12.774932861328125,0.16356983497815464,0.006997521035373211,-0.026632443937436405,0.010821176692843437,0.18788670974953256,0.8902186370443033,0.48958158756176995,right,0.0006291866302490234,-0.8440383987047912,1.0610798098690808,-6.429056311419606,-0.41412565766803605,0.0015981027390807867,-0.0020949095487594604,7.328828391870855,0.0014110803604125977
1746232132244932900,12.814932861328124,0.16380656887415548,0.006061924621462822,-0.02655158026315402,-0.0018406063318252563,0.18798265792872654,0.8902446617813642,0.489857623545547,right,0.0008046627044677734,-0.8437803856532298,1.062910167101398,-6.43067076087892,-0.41403145577854833,0.0075296154245734215,-0.0015705153346061707,7.3271473069161175,0.0016465187072753906
1746232132284933000,12.85493310546875,0.16426771750264973,0.006697259843349457,-0.02640245579977138,0.005419151857495308,0.18810938112194678,0.8902624243162093,0.4903021152588104,right,-0.0021272897720336914,-0.8434968551994803,1.0662151269309221,-6.432228511714935,-0.413945070550424,0.00032214727252721786,-0.0017029494047164917,7.325299048700928,0.0034323930740356445
1746232132324933000,12.89493310546875,0.16450542062915682,0.002175017260015011,-0.026379219658052375,0.0010691327042877674,0.18816991821357923,0.89020320799533,0.49058517862328443,right,-0.00035876035690307617,-0.8436861556435207,1.0675169302444905,-6.430607047992944,-0.41404640503718537,-0.006742619443684816,-0.0010150223970413208,7.326532974410057,0.0027582645416259766
1746232132364933000,12.93493310546875,0.16470543161043244,0.000024564797058701515,-0.026352339949413047,0.004036464728415012,0.1881388061546122,0.8901324844170426,0.49067476233726315,right,-0.00005716085433959961,-0.8440301862856293,1.068389840621501,-6.427906556862593,-0.41421433448508743,-0.007686020340770483,-0.0012602657079696655,7.328775200378894,0.0037291646003723145
1746232132404932900,12.974932861328124,0.16503597438028111,0.0036574662663042545,-0.026260267486680856,0.010112855583429337,0.18809019581174008,0.8900757911440256,0.4907724435785533,right,-0.000005543231964111328,-0.8443046988556463,1.0701839574966578,-6.425568469303846,-0.41436406198376535,-0.005575757939368486,-0.0013023093342781067,7.3305638373613355,0.003895401954650879
1746232132444932900,13.014932861328125,0.16566816453594427,0.0026470653247088194,-0.02603834751384112,0.01319563016295433,0.18802089630734822,0.8900329043026692,0.49094664729368065,right,-0.0005599856376647949,-0.8444884601170382,1.074023681790009,-6.4235618056565515,-0.4145015194733538,-0.0027253741864115,-0.0012155994772911072,7.331760353669524,0.0033553242683410645
1746232132484932900,13.054932861328124,0.16635338278654352,0.002978099277243018,-0.0258061328611067,0.00840854924172163,0.18798040561587018,0.8899888321229229,0.4912043094846262,right,-0.0019068717956542969,-0.8446404542993697,1.078240349636972,-6.421725237879157,-0.41462898230936635,-0.00380239961668849,-0.0009795725345611572,7.3327505337506524,0.004536330699920654
1746232132524932900,13.094932861328125,0.16677219326103188,-0.00007346691563725471,-0.025689580768429136,0.005819990299642086,0.1879473017299891,0.8899274549421139,0.49137705821471106,right,-0.0017129182815551758,-0.8449079661028829,1.0806040830936283,-6.419338050481676,-0.41478293784227166,-0.005653057713061571,0.00043942779302597046,7.334491824460029,0.003406524658203125
1746232132564933000,13.13493310546875,0.1672905545809829,0.0023942827247083187,-0.02556267974453777,0.00612042797729373,0.1879491548725225,0.8898458170657785,0.49168421005965945,right,-0.0014244914054870605,-0.8452229005228366,1.0835469316124915,-6.416499612185358,-0.4149651868730468,-0.010859641246497631,-0.00045208632946014404,7.33654174272716,0.0016294121742248535
