time,seconds_elapsed,roll,rotationRateZ,quaternionY,rotationRateY,quaternionZ,quaternionW,yaw,devicelocation,accelerationZ,pitch,gravityX,gravityZ,quaternionX,rotationRateX,accelerationX,gravityY,accelerationY
2025-04-30 01:17:54.851448600,0.449448486328125,1.03549315405759,0.0131208803504705,0.4615540796893237,0.0165852531790733,2.655007198137049e-17,0.8570960216186586,0.2316836135375131,left,-0.1788992285728454,-0.4030498362195342,7.75894590178728,-4.601544239400327,-0.2288107762458779,-0.0297090336680412,-0.816190242767334,3.8464191148146982,0.3748933970928192
2025-04-30 01:17:54.891448600,0.489448486328125,0.4315689651528925,0.0085811633616685,0.2147458879155112,0.0052857687696814,-0.1208203406643684,0.9011079969187654,-0.0898284723716642,left,0.0152251720428466,-0.7682582443814515,2.9499010677233337,-6.405568468326329,-0.3567787756353878,-0.0087464414536952,-0.3290741145610809,6.814481277650595,0.0695073008537292
2025-04-30 01:17:54.931448600,0.529448486328125,0.0924567879650927,0.0155716650187969,0.1084146323763916,-0.0266868360340595,-0.1662348315252987,0.8945248833316892,-0.3254965329350811,left,0.0129783153533935,-0.8520659150245269,0.5961424405818805,-6.429411116206645,-0.4005465398954873,-0.0123299434781074,-0.0938217118382453,7.380898770847916,0.0119725465774536
2025-04-30 01:17:54.971448300,0.5694482421875,-0.0114238478166818,0.0311678424477577,0.0785176153353683,-0.0177792645990848,-0.1777373168914103,0.8894508034525017,-0.3997633633676801,left,-0.0023193955421447,-0.8691595559482845,-0.0723099334646482,-6.329472486117482,-0.4136685823991947,-0.0281093008816242,-0.0256048031151294,7.490188582128286,0.0083622336387634
2025-04-30 01:17:55.011448600,0.609448486328125,-0.0309314483427516,0.0296394545584917,0.0730142364353463,0.003905551508069,-0.1796055657582863,0.8882507503590181,-0.4134469998082801,left,-0.0034660100936889,-0.8726454321072955,-0.1949524988609366,-6.300722776973247,-0.4164390396504051,-0.0269200317561626,-0.0094704497605562,7.512208106234669,0.0048506259918212
2025-04-30 01:17:55.051448600,0.649448486328125,-0.0407037845583307,0.0112253129482269,0.0702468804029994,0.0166224688291549,-0.1807131275369658,0.8877940040566535,-0.4206205008976609,left,0.0001100301742553,-0.8734275194547693,-0.2562757862864993,-6.292643515414,-0.4174085025979225,-0.0104110222309827,-0.0018712747842073,7.517136210286617,0.0021398663520812
2025-04-30 01:17:55.091448600,0.689448486328125,-0.0430464159031195,-0.006351675838232,0.0696501071075805,0.0223077870905399,-0.1812606530556286,0.887741356433256,-0.4229125542241235,left,0.0012267231941223,-0.8730719924844877,-0.2711314283791929,-6.294695771768689,-0.4173831581187088,0.0094773173332214,0.0043903682380914,7.514896322405338,0.0012479424476623
2025-04-30 01:17:55.131448600,0.729448486328125,-0.0437602936721275,-0.0227920450270175,0.0696517775061893,0.0316698662936687,-0.1819663970817999,0.887734615460614,-0.4247572111746373,left,-0.0012605190277099,-0.872407813212899,-0.2758433141308836,-6.29948651317656,-0.41709017699684,0.0256730783730745,0.0119294319301843,7.510709976631403,0.0021916031837463
2025-04-30 01:17:55.171448600,0.769448486328125,-0.04363281756224,-0.0419329926371574,0.0700117081342749,0.0089790802448987,-0.1828036575179502,0.887696206822883,-0.4265083601615466,left,0.0043058991432189,-0.8717920551683674,-0.2752419324379414,-6.304140476462244,-0.4167453209378302,0.0207416731864213,0.0058613345026969,7.506826413196324,0.0050676465034484
2025-04-30 01:17:55.211448300,0.8094482421875,-0.043317236210132,-0.030719056725502,0.0701925240959451,-0.026268059387803,-0.182975402596554,0.8876787583552647,-0.4267384414341598,left,0.0101142525672912,-0.8717205885598487,-0.27327571039889,-6.304763576796651,-0.4166767924854843,0.0119441738352179,-0.0070749800652265,7.506375162297487,0.0060456991195678
2025-04-30 01:17:55.251448600,0.849448486328125,-0.0435280930300028,-0.0110870283097028,0.0699945784003603,-0.0311101973056793,-0.182731654999951,0.8877453686169242,-0.4262779775282963,left,0.0007386803627014,-0.8716366182319648,-0.2746325135690159,-6.305335239204764,-0.4166751095822338,0.0172237455844879,-0.0097435545176267,7.505845000943541,0.0056647062301635
2025-04-30 01:17:55.291448600,0.889448486328125,-0.0434688303220869,0.0226384941488504,0.0698911409954397,0.0034692101180553,-0.1823383735832134,0.8877226737435099,-0.4254231095654545,left,-0.0010219812393188,-0.8721194570420955,-0.2741013110354542,-6.301729908189177,-0.4169129894889966,0.0266892369836568,-0.0096587147563695,7.508891529032588,-0.0012207627296447
2025-04-30 01:17:55.331448600,0.929448486328125,-0.0432045686718271,0.0375820212066173,0.0697804414626332,0.0261463988572359,-0.1820995107345166,0.8879283311678782,-0.4246734978050539,left,-0.0095793604850769,-0.8714018172171277,-0.2726686844164505,-6.307184081941843,-0.4165978943514324,0.02998923137784,-0.0002097450196743,7.504363237953186,0.0012364983558654
2025-04-30 01:17:55.371448600,0.969448486328125,-0.0419937430908169,0.0288212150335311,0.0700108112649919,0.0155911175534129,-0.1819211170122632,0.8881556329177367,-0.4236017598656633,left,-0.0050976872444152,-0.8705584878511289,-0.2652971510014497,-6.313830095827579,-0.4161523207335414,0.0082183983176946,0.0028606746345758,7.499036489972472,0.0026869773864746
2025-04-30 01:17:55.411448600,1.009448486328125,-0.0418878861513658,0.0083744246512651,0.0698996363905766,-0.0020974976941943,-0.1818231175717468,0.8883523579643356,-0.4232328568176524,left,-0.0015927553176879,-0.8697404040040397,-0.2648856110584922,-6.319985111325979,-0.415793784217019,0.0199702847748994,0.0006637778133153,7.4938640557706355,-0.0001149773597717
2025-04-30 01:17:55.451448300,1.0494482421875,-0.0418622703709104,0.0045410902239382,0.0697387432574269,-0.003109183628112,-0.1817709606340947,0.8886138943817007,-0.4229629032919416,left,0.0013321638107299,-0.8685728054763292,-0.265089700529538,-6.32872955879569,-0.4152843625066517,0.0193821582943201,-0.0008215494453907,7.486473360997438,0.0024230480194091
2025-04-30 01:17:55.491448300,1.0894482421875,-0.0412940592933146,0.0102771092206239,0.0698381857432749,0.007543918211013,-0.1816786709576803,0.8887317090792178,-0.4224368782884761,left,-0.0017235875129699,-0.8681320728929819,-0.2616298241329379,-6.332175899857282,-0.4150560232278127,0.0088261077180504,0.000982891768217,7.483681099930405,0.0038976669311523
2025-04-30 01:17:55.531448600,1.129448486328125,-0.0400029293298666,0.0107204942032694,0.0702227876743305,0.0186434593051671,-0.1815956338507458,0.8888019686491546,-0.4216227834810205,left,-0.0021581053733825,-0.8679277963808717,-0.2535150528688915,-6.334035848510265,-0.4148768835967528,0.0070627722889184,0.0083564836531877,7.48238638394475,0.0015351176261901
2025-04-30 01:17:55.571448600,1.169448486328125,-0.0392854756436737,-0.0019800225272774,0.0703848074226023,-0.0060445014387369,-0.1816519653309263,0.88899294656487,-0.4213056242795988,left,0.0020084977149963,-0.8670072497534004,-0.2492410470778122,-6.3410957038939,-0.4144153437186672,0.0349909290671348,0.0070868674665689,7.47654759478867,0.0002722144126892
2025-04-30 01:17:55.611448600,1.209448486328125,-0.0391069203530215,-0.0059786778874695,0.0702811046977794,-0.007364023476839,-0.181632685142621,0.8892704080405532,-0.4210286860033559,left,-0.0013917684555053,-0.8657352845073415,-0.2484803831699304,-6.350637439221144,-0.4138456057339729,0.0446206107735633,0.0086277313530445,7.4684695022732015,-0.0062570571899414
2025-04-30 01:17:55.651448600,1.249448486328125,-0.0393190883461421,-0.0109297940507531,0.0700181600564231,-0.0164648853242397,-0.1816942965393312,0.8896337446498451,-0.4210575848563744,left,0.0027214288711547,-0.8639700292663309,-0.2503456838514655,-6.363748849728703,-0.4130817785751072,0.0331558063626289,0.0012577529996633,7.457239083206653,-0.005588948726654
2025-04-30 01:17:55.691448600,1.289448486328125,-0.0399132860254378,-0.0114732179790735,0.0696877948815142,-0.027658250182867,-0.1816590235976933,0.8898211144618258,-0.42115200610135,left,0.0035637617111206,-0.8631056353499923,-0.2543840725220739,-6.370037720739841,-0.4127494236387393,0.020819729194045,-0.0062856916338205,7.451731133440137,-0.0014474391937255
2025-04-30 01:17:55.731448300,1.3294482421875,-0.0407506543146228,0.0025488436222076,0.0692357717089492,-0.0174209848046302,-0.1815040706923178,0.8899979763590007,-0.4211079444765075,left,-0.0077074170112609,-0.8623951656683814,-0.2599336329406127,-6.375110201698542,-0.4125121371750457,0.0131761254742741,-0.0066574122756719,7.447199919751286,0.0037727355957031
2025-04-30 01:17:55.771448600,1.369448486328125,-0.0406123155573011,0.0189458094537258,0.0690727874071986,0.0023365523666143,-0.1812779489193747,0.8902291840747779,-0.4204336477707382,left,-0.0084589719772338,-0.8615314469661999,-0.2593127976285294,-6.381571506667137,-0.4121399937583283,0.0290090627968311,-0.000447679311037,7.441686124765872,-0.0010927319526672
2025-04-30 01:17:55.811448600,1.409448486328125,-0.040324984790484,0.0162272304296493,0.068976171286382,-0.0037810145877301,-0.1810851170269249,0.8904570833837121,-0.4197641920370357,left,-0.0002580881118774,-0.8606549905517918,-0.25774202291416,-6.388160237407684,-0.4117484369906929,0.0320143140852451,0.0029049068689346,7.436085820540785,-0.0051936507225036
2025-04-30 01:17:55.851448600,1.449448486328125,-0.0403114474636575,0.0152503149583935,0.068607352303934,-0.0104899061843752,-0.1806539304896375,0.8908464621625026,-0.4186228908413999,left,-0.0040063858032226,-0.8592352931990962,-0.2580807168166153,-6.39870559681952,-0.4111567331725975,0.0270883776247501,0.0017900392413139,7.427001181331277,-0.0073070526123046
2025-04-30 01:17:55.891448600,1.489448486328125,-0.0403003816237032,0.0142733985558152,0.0682384736919612,-0.0171987973153591,-0.1802225519124852,0.8912351070064574,-0.4174833932406716,left,-0.0077561140060424,-0.8578156509313096,-0.2584344438914209,-6.409236927706003,-0.4105647182138829,0.0221624411642551,0.0006767027080059,7.417902513596415,-0.0094189643859863
2025-04-30 01:17:55.931448600,1.529448486328125,-0.0399258235666412,0.0090582827106118,0.0681719593440528,-0.0061968611553311,-0.1799523160993224,0.8914202635835706,-0.4166343312360869,left,-0.0081252455711364,-0.8572129754470903,-0.2562122195309959,-6.4137997055768965,-0.4102923663863719,0.0131400665268301,0.0005144476890563,7.414035316774249,-0.0111536383628845
2025-04-30 01:17:55.971448300,1.5694482421875,-0.0404121803446998,-0.0147057948634028,0.0679215787377048,-0.0162014383822679,-0.1799237187192728,0.8915375755796189,-0.416730652689987,left,-0.0017390847206115,-0.8566692964522544,-0.2594943830068223,-6.417700804668665,-0.4100914540816327,-0.0057457378134131,-0.0038053710013628,7.41054455204904,-0.0067481398582458
2025-04-30 01:17:56.011448600,1.609448486328125,-0.0423237497224681,-0.0258750282227993,0.0673885784215703,-0.0167366620153188,-0.1802001240960126,0.8914472592632234,-0.418241252774117,left,-0.0010924339294433,-0.856763327012316,-0.2717322803491726,-6.41649610505402,-0.4102542255127377,-0.023509107530117,-0.0051551070064306,7.411148363161087,0.0001388192176818
2025-04-30 01:17:56.051448600,1.649448486328125,-0.0430412383345254,-0.0070106647908687,0.0672231766113541,-0.0063739838078618,-0.1803006027204511,0.891351916513381,-0.4188357862343521,left,-5.69224357604e-05,-0.8570915399977306,-0.2762313270677812,-6.4138698482036585,-0.4104445168453895,-0.0130169074982404,-0.0041818711906671,7.413256149095297,0.0015268921852111
2025-04-30 01:17:56.091448600,1.689448486328125,-0.0430412383345254,0.0038896277546882,0.0672231766113541,-0.0060269692912697,-0.1803006027204511,0.891351916513381,-0.4188357862343521,left,-0.0033336281776428,-0.8570915399977306,-0.2762313270677812,-6.4138698482036585,-0.4104445168453895,0.0044630095362663,-0.0026982836425304,7.413256149095297,-0.0025339126586914
2025-04-30 01:17:56.131448600,1.729448486328125,-0.0430412383345254,-0.000986608210951,0.0672231766113541,-0.0091716293245553,-0.1803006027204511,0.891351916513381,-0.4188357862343521,left,0.000891625881195,-0.8570915399977306,-0.2762313270677812,-6.4138698482036585,-0.4104445168453895,-0.0062862643972039,-0.0029833503067493,7.413256149095297,-0.006132423877716
2025-04-30 01:17:56.171448600,1.769448486328125,-0.0447580202717303,-0.0331081226468086,0.0666480149667976,-0.0103639010339975,-0.1803096824784899,0.8912960419720928,-0.4196694913520013,left,0.0012444257736206,-0.8572813399348216,-0.2871791845995932,-6.411980088934302,-0.4106556124100874,-0.0034694604109972,-0.0052687581628561,7.414474292713403,-0.0146461725234985
2025-04-30 01:17:56.211448300,1.8094482421875,-0.0463997675171917,-0.033009797334671,0.0663727802104907,0.0096091218292713,-0.1809333727603434,0.8911327177710782,-0.4218387416368799,left,-0.0020785927772521,-0.8573900702064045,-0.2976681924480013,-6.410693556255102,-0.4107800393625856,-0.0144698321819305,-0.0024077706038951,7.415172211849689,-0.0011239647865295
2025-04-30 01:17:56.251448600,1.849448486328125,-0.0470195702275318,-0.0226115174591541,0.0664334847780101,0.0180134996771812,-0.1814244997137462,0.8909399510267774,-0.4232770012128855,left,-0.0034021139144897,-0.8578034413113165,-0.3014974136136472,-6.407445952636003,-0.4109717463499313,-0.0203847810626029,-0.0007190685719251,7.417824187663197,0.0027455687522888
2025-04-30 01:17:56.291448600,1.889448486328125,-0.0472118678091139,-0.0149796772748231,0.0666300270186228,0.0090484879910945,-0.1818502670687612,0.8907373189380342,-0.4243870773619873,left,-0.0005072951316833,-0.858341465616526,-0.3025411322466098,-6.403399892115592,-0.4111908410675642,-0.0139048714190721,-0.0004095844924449,7.421274620378017,0.0011189579963684
2025-04-30 01:17:56.331448600,1.929448486328125,-0.0473935872572504,0.0013891868293285,0.0667373671200269,-0.0008228998631238,-0.1820265259520463,0.8905484779945674,-0.4249538367670838,left,-0.0002610683441162,-0.859054294556592,-0.3034540641067549,-6.398059115609526,-0.4115044191108888,-0.0180335417389869,-0.0007631182670593,7.425842074424028,0.0005492568016052
2025-04-30 01:17:56.371448600,1.969448486328125,-0.0472851267329459,0.0031146006658673,0.0668349474036876,0.0029140065889805,-0.181929732982919,0.8903930067613431,-0.4247877477378415,left,-0.0089197158813476,-0.8598840435853345,-0.302468797662761,-6.39193566429317,-0.4118677761680469,-0.0131465001031756,0.0011256262660026,7.4311542093575,-0.0054457187652587
2025-04-30 01:17:56.411448600,2.009448486328125,-0.0469670995670666,-0.0072220303118228,0.0670279171577231,0.0116243297234177,-0.1819941458092027,0.8902948589388651,-0.4248357284605681,left,-0.0059289932250976,-0.8602967473941417,-0.300291965080332,-6.388967462137341,-0.4120201044746888,-0.017969699576497,0.0027364268898963,7.433794494733214,-0.0059953331947326
2025-04-30 01:17:56.451448300,2.0494482421875,-0.0470880180353315,-0.0257778875529766,0.06731401401262,0.0233836472034454,-0.1824841108138969,0.8900220609781275,-0.4260912236948934,left,-0.0010452270507812,-0.86110278404343,-0.30078236067947,-6.382943964064121,-0.4123460281246892,-0.0312799960374832,0.0081012621521949,7.438947639712691,-0.0037091374397277
2025-04-30 01:17:56.491448300,2.0894482421875,-0.0475224526623494,-0.035855296999216,0.0676480514945378,0.0216335095465183,-0.183246806662992,0.8896389094821157,-0.4281353985901472,left,0.0069798231124877,-0.8621475886502817,-0.3031858781572431,-6.375044735246896,-0.4127794967311604,-0.0347560308873653,0.0089490953832864,7.445619957083463,0.0002670884132385
2025-04-30 01:17:56.531448600,2.129448486328125,-0.0484669751617889,-0.0369963124394416,0.0676815173791857,0.0030754692852497,-0.1838320582317759,0.8893568191412026,-0.4299788317011215,left,0.0084903836250305,-0.8628656160317729,-0.3089480584131553,-6.369414620405435,-0.4131215969197279,-0.0237402580678462,0.0028259567916393,7.450200855132937,0.004090130329132
2025-04-30 01:17:56.571448600,2.169448486328125,-0.0502955803916634,-0.0274482201784849,0.0673157980457213,-0.0194281991571187,-0.1843033246874453,0.8891549159170485,-0.4319401355489715,left,-0.0011915564537048,-0.8632776028621815,-0.3204403432862833,-6.365773049032688,-0.4134059517778737,-0.0009594038128852,-0.0070526711642742,7.452827111983299,0.0056396126747131
2025-04-30 01:17:56.611448600,2.209448486328125,-0.0516120271689678,-0.0104436408728361,0.0669157932209937,-0.004815668798983,-0.1844909297507956,0.8891509616850704,-0.4329462274019856,left,-0.0104383826255798,-0.8630562985621875,-0.3289053162274882,-6.366992946216464,-0.413395689745832,0.0140215707942843,-0.0132910422980785,7.451416660663485,-0.0036268830299377
2025-04-30 01:17:56.651448600,2.249448486328125,-0.0523644882502733,-0.0154793802648782,0.0667109122283692,0.001532316673547,-0.1846771441605805,0.8891535141014273,-0.4336862275008343,left,-0.0061007142066955,-0.8628301677995166,-0.3337843935059383,-6.368426778411865,-0.4133403623089688,0.0024758139625191,-0.013762317597866,7.449974645161628,-0.0050423741340637
2025-04-30 01:17:56.691448600,2.289448486328125,-0.0535765081274201,-0.0265499837696552,0.0665836164556486,0.009753068909049,-0.1852172513341042,0.8889572979304087,-0.4355079617119939,left,0.0033634305000305,-0.8631676639609739,-0.3413680901005864,-6.365505922529101,-0.4135410063165579,-0.026726946234703,-0.0104885250329971,7.452126270237565,0.0001893043518066
2025-04-30 01:17:56.731448300,2.3294482421875,-0.0553031548486684,-0.0259755514562129,0.0665335483696318,0.0128393089398741,-0.1860277826742451,0.8884875681139163,-0.4383074940678482,left,0.0072505474090576,-0.8644943167752971,-0.3518117792362347,-6.355030121222138,-0.4141943057893001,-0.0412976145744323,-0.0070864520967006,7.460576703196764,0.008510410785675
2025-04-30 01:17:56.771448600,2.369448486328125,-0.055451811682831,0.0070490315556526,0.0668876351596894,0.0371358469128608,-0.1865405987542078,0.8881076313070346,-0.4396964278595397,left,-0.0041579008102416,-0.865760334536594,-0.3522327080620452,-6.345541577386856,-0.4147209651603719,-0.015889374539256,0.0019620768725872,7.468629076749086,0.0166929960250854
2025-04-30 01:17:56.811448600,2.409448486328125,-0.05351869911284,0.0381285399198532,0.0675076871354212,0.0335662588477134,-0.1864263142806817,0.8881473806097262,-0.4385385938592144,left,6.03199005126e-05,-0.8657763241274221,-0.3399589904876425,-6.346091027963161,-0.4145866928653139,0.0154262874275445,0.0039396546781063,7.468730199036002,0.0135482549667358
2025-04-30 01:17:56.851448600,2.449448486328125,-0.0497265720253991,0.0635402500629425,0.0683131739966094,0.010093992576003,-0.1855590178221935,0.8885425229807287,-0.4347112463419605,left,0.0019824504852294,-0.8649457041496562,-0.3161997465744614,-6.353529069009423,-0.4139969523532683,0.0310921501368284,0.0075880736112594,7.463449043762683,0.0033230185508728
2025-04-30 01:17:56.891448600,2.489448486328125,-0.0473980653054282,0.043843600898981,0.0685247398363999,-0.0250333603471517,-0.1845141361790055,0.888967925456701,-0.4311660118189516,left,0.0077776908874511,-0.8640697844469276,-0.3017142895010299,-6.360775971397757,-0.4135154778350955,0.027413323521614,0.0008584465831518,7.457873873978853,-0.0028332471847534
2025-04-30 01:17:56.931448600,2.529448486328125,-0.0469657434232459,0.0065850615501403,0.0682021362035913,-0.0146389277651906,-0.1836222707724557,0.889254352190229,-0.4289017113635333,left,-0.0078699588775634,-0.8636098309273857,-0.2991253141874447,-6.364330449008941,-0.4133496479414192,0.0059378799051046,0.0015823412686586,7.454944250267744,-0.0038924813270568
2025-04-30 01:17:56.971448300,2.5694482421875,-0.0469432594833071,-0.0197329819202423,0.0682601675054257,0.0196229852735996,-0.1837920332306988,0.8892677878208652,-0.4292451811970844,left,-0.0089156627655029,-0.8633839182622829,-0.2990612725079059,-6.366019717270135,-0.4132358525043645,0.0134988725185394,0.0056533515453338,7.453504572853445,-0.0076504945755004
2025-04-30 01:17:57.011448600,2.609448486328125,-0.0478350060642104,-0.0497727170586586,0.068288868639956,0.0149478390812873,-0.1847330937894475,0.8892283149434255,-0.4316810374088102,left,-0.0027253031730651,-0.8626189144423787,-0.3050105911000632,-6.371444664928316,-0.4128963280007782,0.0186041854321956,0.0082202143967151,7.4486273222059,-0.0051506161689758
2025-04-30 01:17:57.051448600,2.649448486328125,-0.0502770826719854,-0.0544425174593925,0.0678165456216464,-0.0183054283261299,-0.1859424711060646,0.8892552570634739,-0.4353570886306289,left,0.0026349425315856,-0.8612070360069034,-0.3210974189555272,-6.381177538913488,-0.4123729200256703,0.0258828233927488,0.0047789700329303,7.439613994666933,5.97238540649e-05
2025-04-30 01:17:57.091448600,2.689448486328125,-0.0527894262434757,-0.0059009082615375,0.0669445757445613,-0.0478686355054378,-0.1862785925297673,0.8894083139780365,-0.4371298795553474,left,0.0064619779586791,-0.860046475511182,-0.3375834569953382,-6.388968631181121,-0.412033590325396,0.0188513044267892,-0.0023773275315761,7.432193489277362,0.0051766633987426
2025-04-30 01:17:57.131448600,2.729448486328125,-0.0523955203065471,0.021850686520338,0.0664730623411465,-0.0385422557592392,-0.1850142120003886,0.8897144473709389,-0.434081626942625,left,3.55839729309e-05,-0.8598653813503573,-0.3351372694196179,-6.3904451334744685,-0.4120186007137268,0.008897672407329,-0.0021460056304931,7.431034966892003,4.23192977905e-05
2025-04-30 01:17:57.171448600,2.769448486328125,-0.0520025245039316,0.0496022850275039,0.0660014020557972,-0.0292158741503953,-0.1837494348210297,0.8900188983545005,-0.4310340153555809,left,-0.0063902735710144,-0.8596834517714745,-0.33269605027996,-6.391925727421045,-0.4120028000026704,-0.0010559596121311,-0.001914195716381,7.429870599287748,-0.005091369152069
2025-04-30 01:17:57.211448300,2.8094482421875,-0.0515571865000685,0.0332880206406116,0.0658526552694663,-0.023300040513277,-0.1829766298702799,0.8900938533205086,-0.4291437032459542,left,-0.0055228471755981,-0.8601001013696137,-0.3296899272665381,-6.388982075184583,-0.4122087083213201,-0.0102406777441501,-0.0017931945621967,7.432536603626608,-0.0047500133514404
2025-04-30 01:17:57.251448600,2.849448486328125,-0.0518910209605226,0.0046969670802354,0.065525231632432,-0.0228095334023237,-0.1823823536201016,0.8901051913240585,-0.428026467768251,left,0.0006536841392517,-0.8606056788595542,-0.3316278365265578,-6.3851183854937545,-0.4124997284989877,-0.0074925078079104,-0.0064282342791557,7.435770178720355,-0.0045825839042663
2025-04-30 01:17:57.291448600,2.889448486328125,-0.0524238622619621,0.0039535332471132,0.0652591448711322,-0.007854632101953,-0.1822216978422551,0.8901420438539424,-0.427907112816307,left,-0.0068889260292053,-0.8605632539586792,-0.3350465954614803,-6.385255748137832,-0.4125334104610094,-0.000571072101593,-0.0009117685258388,7.43549896056354,0.000143826007843
2025-04-30 01:17:57.331448600,2.929448486328125,-0.0524238622619621,-0.0072645405307412,0.0652591448711322,0.0126760089769959,-0.1822216978422551,0.8901420438539424,-0.427907112816307,left,0.0006681680679321,-0.8605632539586792,-0.3350465954614803,-6.385255748137832,-0.4125334104610094,0.0023094029165804,0.0043803099542856,7.43549896056354,-0.0038550496101379
2025-04-30 01:17:57.371448600,2.969448486328125,-0.0524238622619621,-0.0278738141059875,0.0652591448711322,-0.0194654986262321,-0.1822216978422551,0.8901420438539424,-0.427907112816307,left,0.0064166784286499,-0.8605632539586792,-0.3350465954614803,-6.385255748137832,-0.4125334104610094,-0.0024891309440135,0.0031359940767288,7.43549896056354,-0.0023760199546813
2025-04-30 01:17:57.411448600,3.009448486328125,-0.0541148841417559,-0.0206279940903186,0.0648114888969987,-0.0311643257737159,-0.1826068426052716,0.8901050043718638,-0.429521492355601,left,0.007628321647644,-0.8602884938875552,-0.3459541757818311,-6.386719390949606,-0.412513528890495,0.0064733298495411,-0.0039369277656078,7.4337418877631425,-0.0009658932685852
2025-04-30 01:17:57.451448300,3.0494482421875,-0.0552655632574398,0.0117362849414348,0.0643258365382195,-0.011217238381505,-0.1825440913802898,0.890196182557866,-0.4298599095181991,left,-0.0068141818046569,-0.8598655145903508,-0.3534766437085345,-6.38945553791523,-0.4124204441351041,0.0055283424444496,-0.0061748176813125,7.431036135935783,0.0045353174209594
2025-04-30 01:17:57.491448300,3.0894482421875,-0.0544040532439587,0.0246715024113655,0.0645002615673831,0.0058530922979116,-0.1822562990332699,0.8902529702603706,-0.4288207728017701,left,-0.0040675997734069,-0.8599167617186624,-0.3479512313505634,-6.389377796503901,-0.4123980032112447,0.0028839269652962,-0.0065983869135379,7.431364052715897,0.0021388530731201
2025-04-30 01:17:57.531448600,3.129448486328125,-0.0532863125586987,0.0123260896652936,0.0647334333914605,-0.0010960265062749,-0.1819124386271105,0.8903315733987555,-0.4275321654154728,left,0.0013469457626342,-0.8599294272519749,-0.3408043187379836,-6.389668303883076,-0.4123435050395035,-0.0006282969843596,-0.0070095732808113,7.4314447167366735,0.0023119449615478
2025-04-30 01:17:57.571448600,3.169448486328125,-0.0530343595826516,0.0115289911627769,0.0647312101407696,-0.0022253924980759,-0.181701242331664,0.89036474674457,-0.4269484781358819,left,-0.001114010810852,-0.8599881793147035,-0.3391713107086718,-6.389318759793043,-0.4123654775578089,0.0025010437238961,-0.0025418736040592,7.431820564311742,0.0027227997779846
2025-04-30 01:17:57.611448600,3.209448486328125,-0.0518721837104413,0.0226651914417743,0.0649234117222302,0.0141597473993897,-0.1813616133416393,0.8905404399095974,-0.4255914380103209,left,-0.005594253540039,-0.8595393248929956,-0.3319184535035863,-6.393038657099008,-0.4121051995558575,0.0261452011764049,0.0086831972002983,7.428948223745823,-0.0038005113601684
2025-04-30 01:17:57.651448600,3.249448486328125,-0.0508530721997837,0.023812836036086,0.0649726077939835,-0.0225334241986274,-0.180955553730267,0.8908335421439316,-0.4240908607337842,left,0.0054661035537719,-0.8585927600329462,-0.3257603692652657,-6.400393696036934,-0.4116422056380003,0.0204619746655225,0.0003214441239833,7.422884978184103,-0.0033046603202819
2025-04-30 01:17:57.691448600,3.289448486328125,-0.0506203811212323,0.0297658145427703,0.0645974660304572,-0.0393038764595985,-0.1801178081989959,0.8911228421930277,-0.4220345921022827,left,-0.001066505908966,-0.8580391615181272,-0.3244789146199822,-6.404572443026304,-0.4114424182604297,0.008008137345314,-0.0039422288537025,7.419336345791816,-0.0083171725273132
2025-04-30 01:17:57.731448300,3.3294482421875,-0.0499479661429752,0.0234476346522569,0.0645094788671956,0.0038557238876819,-0.1793154269832496,0.8912116352290526,-0.4199691317373016,left,-0.0132349133491516,-0.858412716099756,-0.3200339179098606,-6.402020420455933,-0.411614304988679,-0.0191449858248233,6.98193907737e-05,7.421731131973862,-0.0058616399765014
2025-04-30 01:17:57.771448600,3.369448486328125,-0.0489828120337821,-0.0153058227151632,0.0649982229498315,0.0263789501041173,-0.1793269752874656,0.8909712237315108,-0.4196909058159241,left,-0.0035555362701416,-0.8595758673228663,-0.3134319258289411,-6.393699166834354,-0.4120525364295628,-0.0295010432600975,0.0005550496280193,7.429182032501697,-0.007824420928955
2025-04-30 01:17:57.811448600,3.409448486328125,-0.0498586300714573,-0.0506277456879615,0.065096163995945,0.0096576325595378,-0.1801335920671619,0.8907472706003186,-0.4219376906755525,left,0.0001370310783386,-0.8598271303946101,-0.3189384873559698,-6.3915580631524325,-0.4121695218717305,0.0014135129749774,-0.0027182064950466,7.430790052220225,-0.0016029477119445
2025-04-30 01:17:57.851448600,3.449448486328125,-0.0516036107943087,-0.0257234293967485,0.0648027042763769,0.0009033204987645,-0.1809584702644947,0.8906721956375566,-0.4245341888792518,left,-0.0008701086044311,-0.8593170219834008,-0.3302866510506719,-6.394777025198936,-0.412016672831947,0.0098021598532795,-0.0035969763994216,7.427524912944436,0.0080071091651916
2025-04-30 01:17:57.891448600,3.489448486328125,-0.0516036107943087,0.0197698194533586,0.0648027042763769,0.0144140217453241,-0.1809584702644947,0.8906721956375566,-0.4245341888792518,left,-0.0036690235137939,-0.8593170219834008,-0.3302866510506719,-6.394777025198936,-0.412016672831947,0.005783078726381,-0.0006922110915184,7.427524912944436,0.0066080689430236
2025-04-30 01:17:57.931448600,3.529448486328125,-0.0496735328923468,0.022679278627038,0.065302991464315,0.0033738492056727,-0.1805992325044323,0.8907786092862665,-0.4228257923369777,left,0.0025490522384643,-0.8592431333446577,-0.3179708113675937,-6.395949576109647,-0.4118650749958175,-0.0088681802153587,-0.0013549588620662,7.427051450213789,-0.0086615681648254
2025-04-30 01:17:57.971448300,3.5694482421875,-0.0488825487924184,0.0087614804506301,0.0655327188466298,0.0016241923440247,-0.1803255729602237,0.8907069267086946,-0.4219230530086142,left,0.0013118982315063,-0.8598755661530696,-0.3126820573097095,-6.39150662522614,-0.4121035211265866,-0.0226625595241785,-0.0026390291750431,7.431100433343649,-0.0031208395957946
2025-04-30 01:17:58.011448600,3.609448486328125,-0.0478616104349891,0.0036211526021361,0.0660284063985552,0.0229340344667434,-0.180187941310726,0.8904002073333348,-0.4213385862857318,left,-0.0002803802490234,-0.8614919444016832,-0.3055815228558145,-6.379817356476187,-0.4127470255704362,-0.043159432709217,-0.0034778714179992,7.441434195831418,0.0004533529281616
2025-04-30 01:17:58.051448600,3.649448486328125,-0.0471373790709288,-0.0120765818282961,0.0665258998150837,0.0216113179922103,-0.1804150365977129,0.8901234365077643,-0.4216484011193098,left,-0.0013770461082458,-0.8626048660788805,-0.3005705445596948,-6.371759722226858,-0.4131645829287124,-0.0099540911614894,-0.0048635955899953,7.448537890356778,0.0020966529846191
2025-04-30 01:17:58.091448600,3.689448486328125,-0.0467961575948614,-0.0133226029574871,0.0668257145237067,0.0269711669534444,-0.1808389673017754,0.8900677966262116,-0.4224269618703067,left,-0.001613974571228,-0.8624763464345828,-0.2984411495818756,-6.37281887589097,-0.413050845771071,0.0078236814588308,-0.000407975167036,7.4477178061455485,0.0061970353126525
2025-04-30 01:17:58.131448600,3.729448486328125,-0.0466817273523213,-0.0208109021186828,0.0669897179947824,0.0101180542260408,-0.1813336677701943,0.8901474263874802,-0.4233829082149565,left,0.0043569803237915,-0.8616345844691465,-0.2980043473334983,-6.379113007599115,-0.4126355982366022,0.0250963233411312,-0.0021982286125421,7.44234488093555,0.0048038959503173
2025-04-30 01:17:58.171448600,3.769448486328125,-0.0476838927080934,-0.0230409801006317,0.0667150919501924,-0.0074096620082855,-0.1818008968038025,0.8902819051993407,-0.4247599638896702,left,-1.90734863281e-05,-0.8605140072824571,-0.3047944458650425,-6.387137324100732,-0.4121841009000718,0.0252303704619407,-0.001631636172533,7.435183903264999,0.0018812417984008
2025-04-30 01:17:58.211448300,3.8094482421875,-0.0492745103064696,-0.0346351750195026,0.0662616206678817,-0.0001273467205464,-0.1822539379178636,0.8903548348912492,-0.4264097662875224,left,-0.0057005286216735,-0.8596685721884686,-0.3152630502462387,-6.392919999155402,-0.4118994888398226,0.0153188537806272,-0.0005477406084537,7.429775322219729,-0.0007540583610534
2025-04-30 01:17:58.251448600,3.849448486328125,-0.051533137722873,-0.0540942661464214,0.0658491689471462,0.0081877745687961,-0.1831080813019494,0.8901879769878982,-0.4293565631793382,left,-0.0139393806457519,-0.8595310876600583,-0.3297540785439312,-6.3932122601002455,-0.4119475507459973,0.0068808440119028,0.0071087479591369,7.42889561677575,-0.0054954886436462
2025-04-30 01:17:58.291448600,3.889448486328125,-0.0545114361890761,-0.0625183880329132,0.0652317480571663,-0.0093472357839345,-0.1842856827819351,0.8901146240803878,-0.4332619174848328,left,0.0019824504852294,-0.8585957493458735,-0.3491718957193195,-6.399136973974108,-0.4116790444546779,0.0269617177546024,0.0020946599543094,7.422904267406463,0.0010855197906494
2025-04-30 01:17:58.331448600,3.929448486328125,-0.0556708456084209,-0.0073096677660942,0.0648446163105913,-0.0041126501746475,-0.1847735078240473,0.8903394713108962,-0.4346897153125483,left,0.0011832118034362,-0.857003163579644,-0.3572481616038829,-6.410522291341423,-0.4110346690790885,0.0475971922278404,0.0030372701585292,7.41268857834041,0.0034619569778442
2025-04-30 01:17:58.371448600,3.969448486328125,-0.0558677558808401,0.0065046865493059,0.0644449906632604,-0.0098268678411841,-0.1844952898653625,0.8907247228310385,-0.4339561129368753,left,-0.005989134311676,-0.8554465590883359,-0.3591543240187689,-6.4219648918539285,-0.4103873329341847,0.031309962272644,0.0033127255737781,7.4026856552422045,0.0020261406898498
2025-04-30 01:17:58.411448600,4.009448486328125,-0.0560660351326609,0.020319040864706,0.0640453311079239,-0.0155410850420594,-0.1842169313098516,0.8911092705216216,-0.4332233939266486,left,-0.0131632685661315,-0.853890169588729,-0.3610728709911927,-6.433389372187852,-0.4097397007012994,0.0150227379053831,0.0035894103348255,7.392665781009197,0.0005919933319091
2025-04-30 01:17:58.451448300,4.0494482421875,-0.0542913884964206,0.0759332180023193,0.0642792816612004,-0.0063324989750981,-0.1834027339180562,0.8913205690890006,-0.4305652482598055,left,0.0050663352012634,-0.8537703332971495,-0.3497034087801351,-6.43490503744781,-0.4096087587013307,-0.0155872590839862,-0.005949605256319,7.391893627592921,0.0093849301338195
2025-04-30 01:17:58.491448300,4.0894482421875,-0.0498612954052447,0.1364997774362564,0.0650076778055882,-0.011474385857582,-0.1812699889362043,0.8915477368048251,-0.42389197956952,left,0.0050020217895507,-0.8549607914696448,-0.3207540123453363,-6.427596760261059,-0.4099484940300389,-0.0221101753413677,-0.0040350034832954,7.39956021669805,0.0027593374252319
2025-04-30 01:17:58.531448600,4.129448486328125,-0.0446003547302017,0.0835441872477531,0.0659511579742091,0.0014663338661193,-0.1791410959341287,0.8919008472295917,-0.4167687192713625,left,0.0032418370246887,-0.8555423000592827,-0.2867426563458517,-6.424896853652596,-0.4099657205924508,0.0091047063469886,0.0021276846528053,7.403301156792044,-0.0022037625312805
2025-04-30 01:17:58.571448600,4.169448486328125,-0.0429236050933303,0.0153038948774337,0.0660837099797169,-0.0270987208932638,-0.1783003937450533,0.8922058204033703,-0.4140449754468568,left,0.0044693946838378,-0.8549597072871438,-0.276154334575124,-6.429675904622673,-0.4096470539435462,0.0381553843617439,-0.0014090593904256,7.399553202435373,-0.0039308667182922
2025-04-30 01:17:58.611448600,4.209448486328125,-0.0447886158760306,-0.0209936127066612,0.0651523826182203,-0.0495984256267547,-0.1781394721576802,0.8925696599007412,-0.4143471321882242,left,-0.0038349628448486,-0.8533167219076144,-0.2886892055700533,-6.441286262917518,-0.4090732970844359,0.0420572683215141,-0.0036051478236913,7.388969849100708,0.0044465065002441
2025-04-30 01:17:58.651448600,4.249448486328125,-0.0481638540639599,-0.0600589551031589,0.0639536882876172,-0.0329902693629264,-0.178603003617841,0.8928258704764075,-0.4167183254671247,left,-0.0108593702316284,-0.851523109299978,-0.3110659638825804,-6.453502185890078,-0.4085007739276602,0.053597342222929,-0.0006654486060142,7.377392808553576,0.0008735656738281
2025-04-30 01:17:58.691448600,4.289448486328125,-0.0493361420481112,-0.0318179801106452,0.0634832959428193,-0.0156746488064527,-0.1793293101169455,0.8933277815028696,-0.4185043120749505,left,-0.0044770836830139,-0.8483905907335136,-0.3197692390916868,-6.476183388775587,-0.4071564958335927,0.0489419661462307,0.0010887533426284,7.357117497766017,-0.0013010501861572
2025-04-30 01:17:58.731448300,4.3294482421875,-0.0504959120375843,-0.0035770051181316,0.0630126864176817,0.0016409698873758,-0.1800550881367572,0.893827173299078,-0.4202783942290574,left,0.0018991827964782,-0.8452566067743329,-0.3284420826299116,-6.498804385906458,-0.405811054725361,0.044286586344242,0.0028398465365171,7.336760353913903,-0.0034672617912292
2025-04-30 01:17:58.771448600,4.369448486328125,-0.0501707388404606,-0.0025086631067097,0.0629446990951417,0.0074749328196048,-0.1802308178343022,0.8942355394843872,-0.4202692222179962,left,-0.0017191171646118,-0.8431447459035935,-0.3271050984051078,-6.514370203828811,-0.4048426025875556,0.0432590134441852,0.0034194141626358,7.32300187767446,-0.0057129859924316
2025-04-30 01:17:58.811448600,4.409448486328125,-0.0503153940035872,-0.0116322617977857,0.0628473300525621,0.010634297505021,-0.1805261020264641,0.8944747812421138,-0.4208215020021307,left,-0.0089675188064575,-0.8417044106696588,-0.3285775821104645,-6.524850681310892,-0.4041972544736554,0.0336727201938629,0.0041887499392032,7.313599843078851,-0.0075346827507019
2025-04-30 01:17:58.851448600,4.449448486328125,-0.0500584445195672,-0.0100819384679198,0.0629204572545998,0.0068725203163921,-0.1809054791122594,0.8947168954752615,-0.4213705417744366,left,0.0015833377838134,-0.8401832717277538,-0.327457272843644,-6.536037845757603,-0.4034796521949085,0.0379701890051364,-0.0031234510242938,7.303653618603945,-0.0042718052864074
2025-04-30 01:17:58.891448600,4.489448486328125,-0.0498052976673726,0.0067446129396557,0.062895973379459,0.0045706555247306,-0.1809790878440247,0.8949509264636729,-0.4212784771964886,left,0.0060384273529052,-0.8389966141271227,-0.3262339781263842,-6.544772940877079,-0.4029312051406511,0.0156531855463981,-0.0017951913177967,7.295882400080561,0.0035426616668701
2025-04-30 01:17:58.931448600,4.529448486328125,-0.049527660839487,0.0043672467581927,0.0628706997237821,0.0013704921584576,-0.1809195881877673,0.8951281239686772,-0.4209266275361576,left,0.0026252269744873,-0.8382125877133377,-0.3246999734921381,-6.550573736110329,-0.4025679667175978,0.0227219797670841,-0.002244122326374,7.290742699104547,0.0007795691490173
2025-04-30 01:17:58.971448300,4.5694482421875,-0.0501496834678392,0.0045890775509178,0.0624807039828458,-0.0194071717560291,-0.1807936679567538,0.8953330260241945,-0.4208178647465672,left,-0.0031786561012268,-0.837318705249557,-0.329101057995297,-6.55687663564682,-0.4022294099315165,0.0223007481545209,-0.0018283538520336,7.284877021941543,0.0040786266326904
2025-04-30 01:17:59.011448600,4.609448486328125,-0.0501598539472642,0.0268811881542205,0.0622279045539479,-0.0072305463254451,-0.1804128969953237,0.8955399602131255,-0.4198967267696086,left,-0.008874237537384,-0.8366899791255907,-0.3293973375281319,-6.561446427780389,-0.4019788774352194,0.0140455411747097,-0.0007287897169589,7.280747959312796,-0.0018947720527648
2025-04-30 01:17:59.051448600,4.649448486328125,-0.0490194321365534,0.0173331182450056,0.0623607607777997,0.0064745023846626,-0.1799374710471561,0.8957494430970788,-0.4182641654642179,left,-0.0095466971397399,-0.8361917036675078,-0.3220920925486832,-6.5654416348963975,-0.4017048296469952,0.0168145783245563,-0.0048917569220066,7.277473467686772,-0.0160405039787292
2025-04-30 01:17:59.091448600,4.689448486328125,-0.0490194321365534,0.0064917607232928,0.0623607607777997,-0.0037829093635082,-0.1799374710471561,0.8957494430970788,-0.4182641654642179,left,0.0010074377059936,-0.8361917036675078,-0.3220920925486832,-6.5654416348963975,-0.4017048296469952,-0.0084915105253458,-0.0116719491779804,7.277473467686772,-0.0051991939544677
2025-04-30 01:17:59.131448600,4.729448486328125,-0.0480824762859888,0.0069265789352357,0.0626921456830911,0.0266074314713478,-0.1797339108367108,0.8956517944674172,-0.4174731643463228,left,-0.0071695446968078,-0.8369013662323127,-0.3156920527806505,-6.560579581817985,-0.4019617450545681,-0.0428215265274047,-0.0006190687417984,7.2821367833226915,-0.0017241239547729
2025-04-30 01:17:59.171448600,4.769448486328125,-0.0466764055951533,-0.0129012186080217,0.0635674836886913,0.049716230481863,-0.1801472268836666,0.8952660460696815,-0.4179438019178909,left,0.0012920498847961,-0.8384219695452868,-0.3059500821735709,-6.549947713166475,-0.4024981780247292,-0.0313659124076366,0.0073168911039829,7.292115741023421,-0.0011442899703979
2025-04-30 01:17:59.211448300,4.8094482421875,-0.0456677132614038,0.0061734393239021,0.064182392044632,0.0347224734723567,-0.180698858237257,0.8951523340871528,-0.4187291199089303,left,0.0018418431282043,-0.8384762230025861,-0.2993249832116998,-6.549858281317353,-0.4024062687518819,0.0307867191731929,0.0056543685495853,7.29247171485424,0.0029578804969787
2025-04-30 01:17:59.251448600,4.849448486328125,-0.0428829155116075,0.0675983875989914,0.0648244071017097,0.0207887571305036,-0.180326151235468,0.8955655768529558,-0.4164697048390837,left,0.0005581974983215,-0.8369564651684924,-0.2815586230377666,-6.561731674462557,-0.401550246463805,0.0145271383225917,-0.0029905587434768,7.282498602372407,0.0174359679222106
2025-04-30 01:17:59.291448600,4.889448486328125,-0.0403073592784565,0.0298650860786438,0.0652791545039526,-0.036159262061119,-0.1789129258434614,0.8955819095068541,-0.4123162937766165,left,0.0091868638992309,-0.8383419211374983,-0.2642507837536744,-6.552347175523638,-0.4020720015537199,-0.0113552585244178,-0.0148918312042951,7.291590840366482,-0.0244607925415039
2025-04-30 01:17:59.331448600,4.929448486328125,-0.0402236393410026,-0.0250672027468681,0.0652707249450714,0.0137310214340686,-0.1786571224237244,0.8955015466817532,-0.4117794993571367,left,-0.0053688883781433,-0.8389790422270125,-0.2635153821512125,-6.547727114507556,-0.4023662066882001,-0.0094120586290955,-0.0013741180300712,7.295767249268293,-0.0156502127647399
2025-04-30 01:17:59.371448600,4.969448486328125,-0.0412141058058703,-0.0789561420679092,0.0655597900059006,0.0393022112548351,-0.1797797533098082,0.8950317957737536,-0.4148628049757415,left,0.0025124549865722,-0.840122139602407,-0.2696567344504408,-6.539125290378927,-0.4028638958510186,-0.042488120496273,0.0076125171035528,7.303253221109509,-0.0095040798187255
2025-04-30 01:17:59.411448600,5.009448486328125,-0.0451539537182928,-0.1243905574083328,0.0652095473927553,0.0092396792024374,-0.1818240000458519,0.894360846571725,-0.4213342698838505,left,-0.0011789798736572,-0.8412095506748943,-0.29505908766184,-6.53007513796091,-0.4034929449587496,-0.0105433985590934,0.0090156402438879,7.310365683463216,-0.0102167129516601
2025-04-30 01:17:59.451448300,5.0494482421875,-0.0503637447507302,-0.0730408877134323,0.0640698882498469,-0.0154533069580793,-0.1836971254112455,0.8941464561365056,-0.4277496990458007,left,0.0036497712135314,-0.8401765650231199,-0.3294552051952109,-6.535986407831311,-0.4033019677082869,0.036775168031454,-0.0049866773188114,7.303609779462218,0.0175784826278686
2025-04-30 01:17:59.491448300,5.0894482421875,-0.0514590172993186,0.027648702263832,0.0635814394307466,-0.0021444456651806,-0.1839284802653855,0.8944205924285152,-0.4285654614157783,left,-0.0062670707702636,-0.8385785790316986,-0.337213600769639,-6.547269433867931,-0.4026655655203897,0.0481144525110721,-0.0078957490622997,7.2931427459836,0.0163770914077758
2025-04-30 01:17:59.531448600,5.129448486328125,-0.0477221539738066,0.0824908018112182,0.0642120683203604,0.0308092907071113,-0.1828833747600749,0.8950544284862119,-0.4243253179812439,left,-0.0004871487617492,-0.8367220089051768,-0.3133904247747734,-6.561997631922364,-0.4016317464183835,0.0519340224564075,-0.0050207488238811,7.280958387193083,-0.0031212568283081
2025-04-30 01:17:59.571448600,5.169448486328125,-0.0425651976644678,0.071921557188034,0.065327414044549,0.0439096391201019,-0.1817149412694781,0.8956816300728393,-0.4192090284819286,left,-0.0074773430824279,-0.8350512858286866,-0.2800637083048932,-6.575670767965913,-0.4005826256507605,0.0392363518476486,0.002465397119522,7.269972882798314,-0.0154116153717041
2025-04-30 01:17:59.611448600,5.209448486328125,-0.039213207513534,0.0226231329143047,0.0661375178512654,0.0134417805820703,-0.1811365095349373,0.8960507229637801,-0.4162950837678751,left,-0.0011725425720214,-0.8339559299065958,-0.2583326274847611,-6.584525105550885,-0.3998855726804121,0.0154697485268116,0.0010922066867351,7.262759298157691,-0.0233621597290039
2025-04-30 01:17:59.651448600,5.249448486328125,-0.0402622628062803,-0.0325012579560279,0.0657999854533949,-0.0341091826558113,-0.1811330934947825,0.8959748975017165,-0.4167935209026362,left,-0.000569999217987,-0.8342888895528865,-0.2651426728257909,-6.5818345512926575,-0.4001127347663719,-0.0362230464816093,-0.0021336618810892,7.264952424287795,-0.0174635648727417
2025-04-30 01:17:59.691448600,5.289448486328125,-0.0419848201310693,-0.0196950025856494,0.0655389844201356,-0.0072934925556182,-0.1813076691654702,0.8954537853149614,-0.4182151060155933,left,-0.0020492672920227,-0.8365733893142172,-0.2757825055880472,-6.564768265679478,-0.4012413528767151,-0.0488744750618934,0.0023311357945203,7.279982235637306,-0.0069488883018493
2025-04-30 01:17:59.731448300,5.3294482421875,-0.0437166238300101,-0.0068887453526258,0.065277874796707,0.0195221956819295,-0.1814819335372296,0.8949313169121264,-0.4196462699756836,left,-0.0035329461097717,-0.838856583111236,-0.2864238544539548,-6.547658725446462,-0.4023693894799765,-0.0615259036421775,0.0067961085587739,7.294964700713753,0.0035706162452697
2025-04-30 01:17:59.771448600,5.369448486328125,-0.0435277230589856,-0.0047095362097024,0.0656514952210612,0.0106399059295654,-0.1815916135369043,0.8944763709330525,-0.4200501330803409,left,0.004960298538208,-0.8409452714445744,-0.284523318062257,-6.532475184839964,-0.4032695676990642,-0.0325834229588508,0.0086810830980539,7.308638421279191,0.0034806728363037
2025-04-30 01:17:59.811448600,5.409448486328125,-0.0437009947746746,0.0090807452797889,0.0657044375165552,-0.0065461415797472,-0.181595964352936,0.8942835431885053,-0.4202451572778795,left,0.0048210024833679,-0.8418608692006728,-0.2853627828273922,-6.525738570061326,-0.4036866020262886,-0.0139887202531099,0.0026456862688064,7.314622171863913,0.0045083165168762
2025-04-30 01:17:59.851448600,5.449448486328125,-0.0434191322880369,0.0087999617680907,0.0657184866031687,-0.0246822331100702,-0.1811732494961535,0.8941943137631327,-0.4192719507501617,left,0.0053315162658691,-0.842711588131122,-0.2832532250612042,-6.519599921175837,-0.4040717939022205,-0.044038102030754,-0.0068375263363122,7.320176298859715,0.0118913054466247
2025-04-30 01:17:59.891448600,5.489448486328125,-0.0456731403595394,-0.0590477511286735,0.0654032953575092,-0.0232156049460172,-0.1814062157885622,0.8934852721225272,-0.4211768088059253,left,-0.0041826963424682,-0.8457907514213424,-0.2969171731512993,-6.496396740242838,-0.4055839635628134,-0.1013274639844894,-0.0038841739296913,7.34023533654809,-0.0019772052764892
2025-04-30 01:17:59.931448600,5.529448486328125,-0.0505088996286433,-0.1142740100622177,0.0648812022057427,-0.0001325402408838,-0.1828894431577593,0.8922802724694524,-0.4271969798170766,left,0.0106589198112487,-0.8498888166138114,-0.3268071383718401,-6.464788719058037,-0.4076492946756062,-0.119689255952835,-0.0037216916680336,7.366824068266153,0.0137539505958557
2025-04-30 01:17:59.971448300,5.5694482421875,-0.0562347034991154,-0.0896800309419632,0.0641200368048341,0.0094198947772383,-0.1847887346503814,0.8911985246811102,-0.4344572704809716,left,0.004526138305664,-0.8528980162529342,-0.3625700507463887,-6.440648549535871,-0.4092761311865832,-0.0434285849332809,0.0027489699423313,7.386269357970357,0.0175757408142089
2025-04-30 01:18:00.011448600,5.609448486328125,-0.0583310196403753,-0.0123235583305358,0.0638811394348418,0.0215078275650739,-0.1858855934965581,0.8909576154435361,-0.4378763346218183,left,-0.009134292602539,-0.8528535833861515,-0.3760900055222213,-6.440201974812149,-0.4093412980787189,0.0213465020060539,0.0069293454289436,7.38598235772252,0.0154181718826293
2025-04-30 01:18:00.051448600,5.649448486328125,-0.0579236832078929,0.0368707105517387,0.0638324815272762,-0.0261602159589529,-0.1856395980251926,0.8911401759982611,-0.4370591500365327,left,0.001524806022644,-0.8522520202134104,-0.3737238243801519,-6.44478930260241,-0.4090630976966031,0.0195459313690662,0.0003200508654117,7.382100547853112,-0.0007981061935424
2025-04-30 01:18:00.091448600,5.689448486328125,-0.0583560103490542,0.0361875295639038,0.0631468912479315,-0.0448404811322689,-0.1846491136627604,0.8914686136205785,-0.4349568777840129,left,-0.0009462237358093,-0.8516476812540704,-0.3767701698061078,-6.44907969327271,-0.408902108587947,0.010951766744256,0.0008729100227355,7.378197695195674,-0.0032135248184204
2025-04-30 01:18:00.131448600,5.729448486328125,-0.0586850084303094,0.0156077854335308,0.0626187951736122,-0.0101599209010601,-0.1839721058753999,0.8917696590715751,-0.4334883634426712,left,-0.0116282701492309,-0.8508658972022424,-0.3792300936462357,-6.45471214620173,-0.4086320779905922,0.0333168990910053,0.0016595758497714,7.373145087981223,-0.0117087364196777
2025-04-30 01:18:00.171448600,5.769448486328125,-0.0588591404907582,-0.0221016034483909,0.0624031414786641,0.0001381831243634,-0.1841430212737864,0.8921080113810714,-0.4337213353039167,left,-0.0082400441169738,-0.8490791947446608,-0.381128365015611,-6.467785562786459,-0.4078486884307271,0.0465210080146789,-0.0024934746325016,7.361580906915664,-0.009588599205017
2025-04-30 01:18:00.211448300,5.8094482421875,-0.0599951179923619,-0.017507005482912,0.0619518358277738,-0.0045095793902873,-0.1846353393830159,0.8924361100778392,-0.4350716602236361,left,-0.0058633089065551,-0.8469706865502292,-0.3894052315061911,-6.482828818139433,-0.406976286906167,0.048151422291994,-0.0022636204957962,7.347903679218888,-0.0045493245124816
2025-04-30 01:18:00.251448600,5.849448486328125,-0.0606002406544673,-0.001544902101159,0.0615641912651733,-0.0078269401565194,-0.184893835231604,0.8928419452080661,-0.435638208415895,left,-0.0025968551635742,-0.8447425748964331,-0.394318539847806,-6.498916614109278,-0.4060262576814394,0.0484415553510189,-0.0020773485302925,7.333414550617337,-0.0039053559303283
2025-04-30 01:18:00.291448600,5.889448486328125,-0.0605443103777885,0.0182142741978168,0.0612179160390497,-0.0235660821199417,-0.184683235495491,0.893318287573903,-0.4348740031656149,left,0.0043985247611999,-0.8426733526951351,-0.3948724839361384,-6.514072682186961,-0.4051260255934097,0.0439756773412227,-0.0066243596374988,7.319926708012819,-0.0049580931663513
2025-04-30 01:18:00.331448600,5.929448486328125,-0.0603054178948605,0.0299965217709541,0.0608982535600044,-0.0258677173405885,-0.1837619964430174,0.8934894575955092,-0.4327164918121171,left,0.0006253719329833,-0.8427758376600045,-0.3932710400888696,-6.513417433148622,-0.4052154402820767,0.0042684935033321,-0.005237191915512,7.320595401054621,-0.0054660439491271
2025-04-30 01:18:00.371448600,5.969448486328125,-0.0600661174222003,0.0417787693440914,0.0605785465040731,-0.0281693525612354,-0.1828405440129162,0.893659812133965,-0.4305586744524647,left,-0.0031477808952331,-0.8428782350443506,-0.3916673677518963,-6.512762768632173,-0.4053045181086055,-0.0354386866092681,-0.003850270062685,7.321263509574532,-0.005973994731903
2025-04-30 01:18:00.411448600,6.009448486328125,-0.0595143390428425,0.0363414399325847,0.0605368898748875,-0.0247753504663705,-0.1818893891228543,0.8935456559119169,-0.4283714122452022,left,-0.0016118884086608,-0.8443853750315437,-0.3874169802984222,-6.501956127935648,-0.4059898811359353,-0.0441880375146865,-0.0067390836775302,7.331088738018273,-0.0028469562530517
2025-04-30 01:18:00.451448300,6.0494482421875,-0.0587608107094536,0.0408679917454719,0.0606401368158459,-0.011417749337852,-0.1809783797817409,0.8933306834811813,-0.4262370250216891,left,-0.0034934282302856,-0.8463389217668524,-0.3816756601674482,-6.487937539455294,-0.4068538290148149,-0.0447756052017211,-0.0081925876438617,7.343799166509509,-0.0007274746894836
2025-04-30 01:18:00.491448300,6.0894482421875,-0.0579554563882988,0.0236359275877475,0.0608603183738221,-0.0164813827723264,-0.1802010515863618,0.8930212215002499,-0.424415546750331,left,-0.0023964643478393,-0.8486080702656682,-0.3754842216487973,-6.47158963124454,-0.4078440820900638,-0.058614332228899,-0.0109483711421489,7.358527364563941,0.0027742385864257
2025-04-30 01:18:00.531448600,6.129448486328125,-0.0593870315058503,-0.0505457557737827,0.0606228825798748,-0.0254078153520822,-0.180116934247012,0.8925190918749774,-0.4251854878747948,left,-0.0006440877914428,-0.8510060223408378,-0.3837000056019052,-6.4534121695190665,-0.4090139772778309,-0.0714359879493713,-0.0103817284107208,7.374051096910238,-0.0010985136032104
2025-04-30 01:18:00.571448600,6.169448486328125,-0.0627856835166322,-0.0292763765901327,0.0599988320823784,0.0127407927066087,-0.1806503765965547,0.8918380336930376,-0.4282685460397435,left,-0.025409996509552,-0.8535470323838997,-0.404453674490936,-6.433349624699354,-0.4103542374620098,-0.0370288081467151,-0.0019901543855667,7.390454534700512,-0.0134641528129577
2025-04-30 01:18:00.611448600,6.209448486328125,-0.0629687276904838,0.0294460970908403,0.0602519642159523,0.0096795503050088,-0.1806154303574296,0.8913003838712834,-0.428608873166788,left,-0.0004231929779052,-0.8561164934688374,-0.404434933257848,-6.414301809880137,-0.4114988918074082,-0.0709926933050155,-0.0037520304322242,7.406992997047305,-0.0007744431495666
2025-04-30 01:18:00.651448600,6.249448486328125,-0.0587333283857598,0.1098329201340675,0.0615530285134969,0.0568376630544662,-0.1797205465500729,0.8911512022431562,-0.4248739281794305,left,-0.003770112991333,-0.8578997043506329,-0.3764883206574246,-6.402761594212055,-0.4120209292840054,-0.0037031546235084,-0.0032109729945659,7.418442027300596,-0.0064650177955627
2025-04-30 01:18:00.691448600,6.289448486328125,-0.0500681942158148,0.0870348438620567,0.0640040106589834,0.0822647586464881,-0.1782448611415064,0.8913722128262351,-0.4176529210819822,left,-0.0085639953613281,-0.8586629789615099,-0.3207106481276452,-6.400126569533348,-0.4118104539360843,-0.0161748025566339,0.008713137358427,7.423335060039162,-0.0070142149925231
2025-04-30 01:18:00.731448300,6.3294482421875,-0.0503398797625519,0.0430750101804733,0.0642809810460555,0.0518092662096023,-0.1786697284239773,0.8909854895422077,-0.4189041490299835,left,-0.0064210891723632,-0.8600727527579686,-0.321922544668056,-6.389581210121512,-0.4124196775863226,-0.0220796950161457,0.0103995911777019,7.432361831581592,-0.0044024586677551
2025-04-30 01:18:00.771448600,6.369448486328125,-0.0506146937101227,-0.0008848309516906,0.0645579068562407,0.0213537719100713,-0.1790944551096217,0.8905980624286207,-0.4201579886327532,left,-0.0042792558670043,-0.8614822487074689,-0.3231481409402564,-6.379023575749993,-0.413028564374422,-0.0279845874756574,0.0120874419808387,7.441372236511111,-0.0017891526222229
2025-04-30 01:18:00.811448600,6.409448486328125,-0.0508927105998543,-0.044844664633274,0.0648347730369011,-0.0091017168015241,-0.17951904119844,0.8902099314854743,-0.4214144976602265,left,-0.0021387934684753,-0.8628915270790072,-0.3243878022704273,-6.36845366641879,-0.4136371400219017,-0.0338894799351692,0.0137767121195793,7.450365690305828,0.0008258819580078
2025-04-30 01:18:00.851448600,6.449448486328125,-0.0520756821894114,-0.0179844107478857,0.064765275443068,0.0005638087168335,-0.1799659761665442,0.8898799073060047,-0.4231021501582027,left,-0.0027748942375183,-0.8639643135328424,-0.3315050869297236,-6.36008039034903,-0.4141637369734845,-0.0145737454295158,0.0084856525063514,7.457202258327602,-0.002471387386322
2025-04-30 01:18:00.891448600,6.489448486328125,-0.0520005733254373,-0.0011835824698209,0.0649458099549468,0.0004899070481769,-0.1800565759438454,0.8896730507264388,-0.4233814867019927,left,-0.0041737556457519,-0.8648509815616043,-0.3306835779463872,-6.353499842914939,-0.4145403499167044,-0.0273581705987453,0.0059023350477218,7.462846401694416,-0.0029399991035461
2025-04-30 01:18:00.931448600,6.529448486328125,-0.0523080186806167,-0.0069997897371649,0.0649929594503589,-0.0111243957653641,-0.1800338940325116,0.8893967231055361,-0.4236364949543892,left,0.0023867487907409,-0.8661514923727209,-0.3321291736448183,-6.343699748912453,-0.4151352105859963,-0.0343931652605533,-0.0010556876659393,7.471113879302144,-0.0068597197532653
2025-04-30 01:18:00.971448300,6.5694482421875,-0.0530804877869161,-0.0003197770565748,0.0648483822014855,-0.0161760114133358,-0.179934818148237,0.8891223047831602,-0.4239429802924442,left,0.0060153603553771,-0.8674927548166762,-0.3364974153243005,-6.33342911478877,-0.4157880363471493,-0.0367875061929225,-0.0032383352518081,7.479627440625428,-0.0056549310684204
2025-04-30 01:18:01.011448600,6.609448486328125,-0.0533080068913057,0.0268879327923059,0.0648029585846749,-0.0227213874459266,-0.1794443547383616,0.8887749875114259,-0.4232071472575664,left,0.0029152631759643,-0.86956507682986,-0.3371117843629792,-6.317860374256968,-0.4167485443285225,-0.0602867007255554,-0.0074306242167949,7.492755217745899,-0.0067889690399169
2025-04-30 01:18:01.051448600,6.649448486328125,-0.0528648813959721,0.038793034851551,0.0649215114300956,-0.0119174411520361,-0.1786188821026591,0.8883472949431537,-0.4214916834185421,left,-0.0122047066688537,-0.8723490642932222,-0.333208639444597,-6.29715427083671,-0.4179948284096043,-0.0723175406455993,-0.007136408239603,7.510339974275231,-0.0032878518104553
2025-04-30 01:18:01.091448600,6.689448486328125,-0.0513954572924829,0.0392504185438156,0.0653989608296139,0.0047352844849228,-0.1777647611875154,0.8878958617807896,-0.4192459145549576,left,-0.0139394402503967,-0.8753024777067256,-0.3228141597455367,-6.275457987335324,-0.4192417856186815,-0.0689684525132179,-0.0069556236267089,7.528931277498603,-0.0076995491981506
2025-04-30 01:18:01.131448600,6.729448486328125,-0.0494398829068222,0.0348748974502086,0.066110351864836,0.0205019302666187,-0.1771409228798585,0.8874645521690507,-0.4172456678317714,left,-0.0095458030700683,-0.8779563740917513,-0.3095528559058904,-6.256098037827014,-0.4203060688197219,-0.0604943521320819,-0.007062591612339,7.545580799004435,-0.0045982003211975
2025-04-30 01:18:01.171448600,6.769448486328125,-0.0470056493578456,0.0260343998670578,0.0669690471775257,0.021736891940236,-0.1766529426738909,0.8871423760806159,-0.4152419401092105,left,-0.0006295442581176,-0.8799893414074357,-0.293601746726688,-6.241497265544534,-0.4210550354483917,-0.0427273958921432,-0.0066800322383642,7.558299410802125,-0.0145042538642883
2025-04-30 01:18:01.211448300,6.8094482421875,-0.0453696738772333,-0.0006662886589765,0.0676629785470449,0.038042988628149,-0.1766398014847193,0.8869158309642725,-0.414571746845002,left,-0.0055254101753234,-0.8811072086781631,-0.2830070317477919,-6.233524971491098,-0.4214266389815201,-0.0254017245024442,-0.0042938273400068,7.565279771208763,-0.0163588523864746
2025-04-30 01:18:01.251448600,6.849448486328125,-0.0441144564814933,-0.0024370118044316,0.0684455302748115,0.0448269546031951,-0.1770796516766142,0.8865867021322742,-0.4151074003918356,left,-0.002418041229248,-0.8822639322533979,-0.2747962710296735,-6.22512831454575,-0.4218080117862592,-0.0435433536767959,-0.0064876656979322,7.572492186805605,-0.0027122497558593
2025-04-30 01:18:01.291448600,6.889448486328125,-0.0421631046247841,0.019090212881565,0.0694380122558158,0.0197083353996276,-0.1772509107899419,0.8861389947391886,-0.4148022810418522,left,0.0168757438659667,-0.8842321257227622,-0.2620196454344317,-6.21075024510324,-0.422514173798641,-0.0657962262630462,-0.0106926541775465,7.584742012047767,0.0064212679862976
2025-04-30 01:18:01.331448600,6.929448486328125,-0.0397901322073965,0.0432901680469512,0.0703666344133699,0.0041941255331039,-0.176739176598971,0.8856134827906558,-0.4128675204022968,left,0.0108742713928222,-0.887186223575236,-0.2463885619898326,-6.188938226267695,-0.4236749899951014,-0.080916941165924,-0.0125121790915727,7.603072033986448,0.0102208852767944
2025-04-30 01:18:01.371448600,6.969448486328125,-0.0374099615182904,0.0321162715554237,0.0712099187309835,0.021169539541006,-0.1759965738550417,0.8850787613511703,-0.4104274151881922,left,-0.0005455017089843,-0.8903776822017904,-0.2307484549885615,-6.165228849378228,-0.4249587941915305,-0.0824918821454048,-0.0037581212818622,7.622800816807151,0.0024071931838989
2025-04-30 01:18:01.411448600,7.009448486328125,-0.0354802972866302,0.0006335042417049,0.0722791367326394,0.0361181050539016,-0.1758286570013957,0.8842240673167076,-0.4096002530494479,left,0.0037927627563476,-0.8944736075340631,-0.2177418565623462,-6.134408763700724,-0.4266238872615703,-0.1198332011699676,-7.36750662326e-05,7.648007154256105,0.0055908560752868
2025-04-30 01:18:01.451448300,7.0494482421875,-0.0344246121509088,0.0062109930440783,0.0732705699047775,0.0255555305629968,-0.1758810892133099,0.8831029501082059,-0.4098008417577013,left,0.0063884258270263,-0.8995299497258773,-0.2099320778605528,-6.095908644914627,-0.4287500227398421,-0.1270399242639541,-0.0058945603668689,7.678946482399105,0.018198549747467
2025-04-30 01:18:01.491448300,7.0894482421875,-0.0328542870394717,0.0132548250257968,0.0743029671752658,0.0336693525314331,-0.1757403605023562,0.8820834340494197,-0.4092748846221297,left,-0.0049721598625183,-0.9042879215599904,-0.1991568004166707,-6.059644322356581,-0.4307240251985464,-0.0962727293372154,-0.0019254051148891,7.707880315938591,0.018818974494934
2025-04-30 01:18:01.531448600,7.129448486328125,-0.0304516792901114,0.0136824883520603,0.0754444877470052,0.0458600744605064,-0.1757379131731595,0.8814701893749057,-0.4084219157360183,left,-0.0066621899604797,-0.9070998835876434,-0.1839366358605213,-6.038417409932613,-0.431780667932817,-0.0421178266406059,0.0039257407188415,7.724898670756817,0.0137498378753662
2025-04-30 01:18:01.571448600,7.169448486328125,-0.0279357943698068,0.0163736511021852,0.0764005716032302,0.0243649408221244,-0.1757359610000577,0.8812684243855571,-0.4072956426952019,left,0.0108049511909484,-0.9080625630447232,-0.1685363472308032,-6.031425359088182,-0.4320252990799362,-0.0117102973163127,0.0042077014222741,7.730711156427859,0.0106670260429382
2025-04-30 01:18:01.611448600,7.209448486328125,-0.0270591942313354,0.0067439647391438,0.076671411852945,-0.0044196434319019,-0.1755337216189623,0.8811681647306406,-0.4064807559322105,left,0.0119327902793884,-0.9087099005044434,-0.1631137011275626,-6.026566813141107,-0.4322639444901839,-0.0194142386317253,0.0052295895293354,7.734615178129077,0.0084455609321594
2025-04-30 01:18:01.651448600,7.249448486328125,-0.0271685908536684,-0.0068709310144186,0.0766791360926566,-0.0082569858059287,-0.175448290272392,0.8810214833918495,-0.4064237578938096,left,0.0053884387016296,-0.9094392661651972,-0.1636196961546316,-6.020908056727051,-0.4325961598534444,-0.0063632829114794,-0.0013479329645633,7.73901019821763,0.0038662552833557
2025-04-30 01:18:01.691448600,7.289448486328125,-0.0266042883783472,-0.0015296647325158,0.076786155783472,0.0028055096045136,-0.1755203067023278,0.8812314470657697,-0.4061974105773541,left,0.0038943886756896,-0.9084483649678072,-0.1604259598809294,-6.028662324115634,-0.4321199746002607,0.0119186704978346,-0.0011846609413623,7.733038138070702,0.0002403855323791
2025-04-30 01:18:01.731448300,7.3294482421875,-0.0260410202440512,0.0038116020150482,0.0768931691891642,0.0138680050149559,-0.1755922804567377,0.8814412476430599,-0.4059723243189971,left,0.0023996829986572,-0.9074575717599896,-0.1572296297913417,-6.03640840819776,-0.4316436820772433,0.0302006229758262,-0.0010216478258371,7.727059063661098,-0.0033847093582153
2025-04-30 01:18:01.771448600,7.369448486328125,-0.0254788307915237,0.0091528678312897,0.0770001656408533,0.0249304994940757,-0.1756642203031352,0.8816507521323659,-0.4057484293581624,left,0.0009041428565979,-0.906466579130256,-0.1540309981468133,-6.0441480625391,-0.4311672415102348,0.0484825745224952,-0.0008588843047618,7.7210712214231485,-0.0070089697837829
2025-04-30 01:18:01.811448600,7.409448486328125,-0.0248567302623904,0.0126439090818166,0.0770044162745055,-0.0019020214676856,-0.1756972746783461,0.8820659544183878,-0.4053081461619567,left,-0.0041133761405944,-0.9045869654708985,-0.1506313366380054,-6.058740066993236,-0.4303028738658668,0.0567364245653152,-0.0019096052274107,7.709693502840399,-0.0092312097549438
2025-04-30 01:18:01.851448600,7.449448486328125,-0.0240287989516559,0.0362406596541404,0.0768850272007482,-0.0041786199435591,-0.1753455313941661,0.8825704713966644,-0.4038912717749882,left,-0.0077092051506042,-0.9026501344184918,-0.1459735648268833,-6.073779230692982,-0.4294323454057281,0.0333972424268722,-0.0019725291058421,7.697940521204471,-0.0058143734931945
2025-04-30 01:18:01.891448600,7.489448486328125,-0.0224640616016867,0.0348064228892326,0.0770165522337002,-0.0082489736378192,-0.1746093418279937,0.8827946864000225,-0.4014263573215866,left,-0.0027312636375427,-0.9023264616906655,-0.1365254717329982,-6.076490827739239,-0.4292477814704196,-0.0218833722174167,-0.0012746984139084,7.695973605045676,-0.0040390491485595
2025-04-30 01:18:01.931448600,7.529448486328125,-0.0212034037632203,0.007253685966134,0.0773500645486548,0.00719297491014,-0.1741032867200161,0.882600400136676,-0.3998132726730602,left,-0.0034137964248657,-0.9036716298245162,-0.1286453860076609,-6.066302611202001,-0.4297925455237006,-0.0351702868938446,0.0023571262136101,7.704142298454045,-0.0098161697387695
2025-04-30 01:18:01.971448300,7.5694482421875,-0.0220104645454804,-0.0126128792762756,0.0774680445793876,0.001275360584259,-0.174659395442878,0.8822587132936821,-0.401579318857121,left,0.0036079883575439,-0.9046993417361834,-0.1333668981042224,-6.058277710178494,-0.4302470194019794,-0.0334007889032363,0.0004783775657415,7.710374470841884,0.000862717628479
2025-04-30 01:18:02.011448600,7.609448486328125,-0.0228215270390886,-0.0324794426560401,0.0775859499279568,-0.0046422532759606,-0.1752153334636377,0.8819163740641675,-0.4033488255962245,left,0.0106293559074401,-0.9057260062710744,-0.1380997627118602,-6.050249886545538,-0.4307012078611579,-0.0316312909126281,-0.0013992143794894,7.71659144566059,0.0115430951118469
2025-04-30 01:18:02.051448600,7.649448486328125,-0.0240650428488387,-0.0109325870871543,0.0774270131374954,-0.0017564017325639,-0.1756185376057225,0.881713590176264,-0.4049294753696598,left,0.0030597448348999,-0.9062525440326116,-0.1455254466000478,-6.0460103492796415,-0.4309806421668428,0.0010505132377147,-0.0058072041720151,7.719777089959383,0.018032968044281
2025-04-30 01:18:02.091448600,7.689448486328125,-0.0234225755065811,0.0273537673056125,0.0775138847150672,-0.0046412972733378,-0.1754468895899409,0.8818361374140701,-0.4041834429257844,left,0.0007184743881225,-0.9058688702327454,-0.1417104274896904,-6.049064476153254,-0.4307843455644784,0.0186823308467865,-0.0077502494677901,7.717455953535437,0.0201611518859863
2025-04-30 01:18:02.131448600,7.729448486328125,-0.0221444908379545,0.027152681723237,0.0774035396130566,-0.0245727598667144,-0.1746942873387056,0.882321467047174,-0.4016891743537923,left,0.0065205693244934,-0.9043843250288088,-0.1342326480880845,-6.060688278451561,-0.4301157958534876,0.0422245971858501,-0.0038804421201348,7.708464837828278,0.0131124854087829
2025-04-30 01:18:02.171448600,7.769448486328125,-0.0208748161220902,0.0269515980035066,0.0772930965897566,-0.0445042252540588,-0.173941467907106,0.8828056336661042,-0.3992026566354563,left,0.0123217701911926,-0.9028977540940578,-0.1267764777300879,-6.072303312921524,-0.4294467054095717,0.0657668635249137,-8.4210187196e-06,7.699444496026635,0.0060667991638183
2025-04-30 01:18:02.211448300,7.8094482421875,-0.0219980803118367,0.0104920919984579,0.0762817909613038,-0.0655881464481353,-0.1731971664518745,0.883472203149799,-0.3978066737795042,left,0.0032362341880798,-0.9005349463968706,-0.133996985301841,-6.0903282144337885,-0.4285566329933887,0.0632050037384033,0.0058305887505412,7.685072271803021,-0.0006411075592041
2025-04-30 01:18:02.251448600,7.849448486328125,-0.0251335735448087,-0.012530455365777,0.0749136591787098,-0.0622603371739387,-0.173165430151401,0.8840285643850779,-0.3989763456211352,left,0.0027227997779846,-0.8979916167117469,-0.1535831995803862,-6.109398241084814,-0.4276626446308985,0.0650965720415115,0.0035902373492717,7.669553800153732,-0.0046285390853881
2025-04-30 01:18:02.291448600,7.889448486328125,-0.0282542796869667,-0.0355530008673667,0.0735452932617718,-0.0589325316250324,-0.1731331226961084,0.8845822432934726,-0.4001293287038971,left,0.002200961112976,-0.8954458381079581,-0.173199060078524,-6.128385850149392,-0.4267673452102528,0.0669881403446197,0.0013529155403375,7.653971031096577,-0.0086095333099365
2025-04-30 01:18:02.331448600,7.929448486328125,-0.0320005866199636,-0.0373282693326473,0.0720897520977059,-0.0463901087641716,-0.1734045310551248,0.8850993648211726,-0.4022464029608238,left,-0.0005037784576416,-0.8927649864992185,-0.1968124109813012,-6.148180683943629,-0.4258322518915776,0.0603459402918815,-0.0013314820826053,7.637507972073554,-0.0040537118911743
2025-04-30 01:18:02.371448600,7.969448486328125,-0.034616243290359,-0.024290531873703,0.0711036819171476,-0.0175248607993125,-0.1737459985117226,0.8854999576240565,-0.4040238252224457,left,-0.0035451650619506,-0.8905660237188238,-0.2134740065174177,-6.164415194907784,-0.4250253872163302,0.0469639487564563,-0.0034566894173622,7.623962846323847,-0.0012218952178955
2025-04-30 01:18:02.411448600,8.009448486328125,-0.0359705427538972,-0.0263125132769346,0.0706496713804488,0.0051062665879726,-0.1742525951820662,0.8858250172744951,-0.4055892793842566,left,-0.0062213540077209,-0.8885894653139597,-0.2223637442093342,-6.179167358359694,-0.4242154914695971,0.0529187247157096,-0.007462665438652,7.611756275701523,-0.0048112273216247
2025-04-30 01:18:02.451448300,8.0494482421875,-0.0363826552724566,-0.0143792498856782,0.0705316909893453,0.02400435321033,-0.1748827652135643,0.8862080983535024,-0.4069387384073196,left,-0.0104521512985229,-0.88625711280283,-0.2255553798574954,-6.196798876640201,-0.4231742740908437,0.0580550469458103,-0.0074391160160303,7.597314493373036,-0.0017587542533874
2025-04-30 01:18:02.491448300,8.0894482421875,-0.0350875155567747,0.000356487929821,0.0709439891257516,0.0455679520964622,-0.1753825954748952,0.8866098615924508,-0.4071884885674615,left,-0.007135272026062,-0.8840009041018825,-0.2181302348254248,-6.214201262339949,-0.422055536804749,0.0485358387231826,-0.0004779435694217,7.583304672721028,-0.0036593675613403
2025-04-30 01:18:02.531448600,8.129448486328124,-0.0333847595704557,-0.0064255357719957,0.0715315433365567,0.0288264732807874,-0.1758406429053511,0.8869217029197486,-0.4072057438123459,left,0.0118250250816345,-0.8821995846626572,-0.2080042698694393,-6.228205237773061,-0.4211094246395234,0.0339762903749942,-0.0017112530767917,7.57209120478928,-0.0051608085632324
2025-04-30 01:18:02.571448600,8.169448486328125,-0.033616196689555,-0.0178830195218324,0.071492052143815,0.0059229452162981,-0.1762342151087949,0.8871101765326522,-0.4080624300637272,left,0.0054886937141418,-0.8809673657170837,-0.2097591507127508,-6.237478093031048,-0.4205544050194932,0.0194027125835418,0.0016353279352188,7.56440708002746,-0.0028179883956909
2025-04-30 01:18:02.611448600,8.209448486328125,-0.0341110938808883,-0.0274533722549676,0.0714900137911804,0.0265931095927953,-0.1767943474317303,0.8871726419640489,-0.4094665682562757,left,-0.0067583918571472,-0.8801529454731165,-0.2130560916326008,-6.243529063633084,-0.4201878097505171,0.0223179757595062,0.0070346137508749,7.559321739587188,-0.0050494670867919
2025-04-30 01:18:02.651448600,8.249448486328125,-0.0345079644641127,-0.0381084121763706,0.0716144878939186,0.0200948789715766,-0.1776402705666313,0.8872532537212522,-0.4114277888922395,left,0.0003204941749572,-0.8789910230509178,-0.2158368083923123,-6.2522173970013855,-0.4196391383948297,0.0317418947815895,0.004444308578968,7.552057886064052,-0.0043330192565917
2025-04-30 01:18:02.691448600,8.289448486328125,-0.0360139555129223,-0.0425352305173873,0.071309277183623,-0.0043756626546382,-0.1784809886512331,0.8874047147962508,-0.4138582643609704,left,-0.0003727674484252,-0.877469214101569,-0.2256658727609552,-6.263363060393929,-0.4190135607032431,0.0388492830097675,0.0007023941725492,7.542528425696492,-0.0036284923553466
2025-04-30 01:18:02.731448300,8.3294482421875,-0.0386445863451762,-0.0400418303906917,0.0705181726843708,-0.0256539434194564,-0.1791903044039494,0.8876319022294371,-0.4164876558367408,left,-0.0033249855041503,-0.875676588750013,-0.2426636597151868,-6.27624826093018,-0.418362989355051,0.0430077239871025,-0.0064076986163854,7.531281640017032,-0.0054286122322082
2025-04-30 01:18:02.771448600,8.369448486328125,-0.0410046316555219,-0.0171740762889385,0.0697211468877915,-0.0184318907558918,-0.1796255002581761,0.887855577247054,-0.4183989929741325,left,-0.0061572790145874,-0.8741552801326351,-0.2579445962815545,-6.287098740768433,-0.417835058378767,0.0236750580370426,-0.0053006261587142,7.5217176928579805,-0.0055947303771972
2025-04-30 01:18:02.811448600,8.409448486328126,-0.0426404929225019,-0.0100219240412116,0.0691322612826876,-0.0294636581093072,-0.1796909053782333,0.8879247236688457,-0.419263458367852,left,0.0013789534568786,-0.8737164003020866,-0.2683697816461324,-6.289966405159235,-0.4177579415001298,-0.0054062511771917,-0.0053477678447961,7.518955242407322,-0.0025299787521362
2025-04-30 01:18:02.851448600,8.449448486328125,-0.0443450518096889,0.0018418384715914,0.0685303255667914,-0.0410280711948871,-0.1794590618536529,0.8877909098309419,-0.4196374514861183,left,0.0021283626556396,-0.8744917233936441,-0.2788324677431956,-6.283674027016758,-0.4182408353723069,-0.0231540128588676,-0.0062505323439836,7.523834246620535,-0.0007719993591308
2025-04-30 01:18:02.891448600,8.489448486328126,-0.0452739140095976,0.0184213481843471,0.0680579659594507,-0.024966262280941,-0.1789860738301435,0.8877551330969992,-0.4190794301589645,left,-0.0114763975143432,-0.8750650738629938,-0.2844737432994879,-6.279101896795631,-0.4185964850013996,-0.0072233024984598,-0.0052881762385368,7.527438993114233,0.0028702020645141
2025-04-30 01:18:02.931448600,8.529448486328125,-0.0444587360600791,0.0489464811980724,0.0679988058174185,-0.0207759756594896,-0.1782168273162709,0.8878778199181468,-0.4169837866665286,left,-0.0004970431327819,-0.8752436043610047,-0.279295299481973,-6.277988382595777,-0.4186739152300879,0.0003343243151903,-0.0072237756103277,7.5285612751424305,0.0072333812713623
2025-04-30 01:18:02.971448300,8.5694482421875,-0.0428364741188222,0.0622349604964256,0.0679832459938454,-0.0218735206872224,-0.1770386810652374,0.8881620429187757,-0.4135456852942992,left,0.0005601048469543,-0.875077774223105,-0.2691638546332717,-6.2796799889445305,-0.4185734069952209,0.0069895614869892,-0.0036844424903392,7.52751907261312,0.0027588009834289
2025-04-30 01:18:03.011448600,8.609448486328125,-0.040735906283523,0.0568861812353134,0.0680800703090102,-0.0220024790614843,-0.1757367817616247,0.8884643137533094,-0.4096096691406336,left,0.0065072774887084,-0.8749489962300073,-0.2560118929196149,-6.281201499423385,-0.4184650140441235,-0.0034173685126006,-0.0070259533822536,7.526709509795904,-0.0006520152091979
2025-04-30 01:18:03.051448600,8.649448486328126,-0.0395349233087018,0.0250731967389583,0.0680664459693979,-0.0155587326735258,-0.174753395186584,0.8886052605086066,-0.4068637938444089,left,-0.0036764740943908,-0.8752346953887319,-0.2483830785416066,-6.279354994773865,-0.4185796934253484,-0.0022761397995054,-0.008615531027317,7.5285051610410205,-0.0094716548919677
2025-04-30 01:18:03.091448600,8.689448486328125,-0.0395349233087018,-0.0094059184193611,0.0680664459693979,0.007348520681262,-0.174753395186584,0.8886052605086066,-0.4068637938444089,left,-0.0063903927803039,-0.8752346953887319,-0.2483830785416066,-6.279354994773865,-0.4185796934253484,-0.0049879029393196,-0.0071707256138324,7.5285051610410205,-0.0064172744750976
2025-04-30 01:18:03.131448600,8.729448486328126,-0.0398928144149419,-0.0255318339914083,0.0681611198961259,0.0199841260910034,-0.1750935237118668,0.8884313099657889,-0.4078543490899154,left,-0.0037533640861511,-0.8757186516005833,-0.2504850557895377,-6.275624576073884,-0.4187914179402352,-0.0187893770635128,-0.0029138103127479,7.531545843911171,0.0016040802001953
2025-04-30 01:18:03.171448600,8.769448486328125,-0.0399339600004883,-0.0159771814942359,0.0685024269730116,0.0363943427801132,-0.1756736712192239,0.8881695062484439,-0.4092593590524424,left,-0.0041182041168212,-0.8763988091686227,-0.2505387039392255,-6.270494227448105,-0.4190479589808604,-0.0159408934414386,0.0036399140954017,7.535815776315331,0.0063954591751098
2025-04-30 01:18:03.211448300,8.8094482421875,-0.0389577025908806,0.0013211667537689,0.0690557372929604,0.0271553769707679,-0.1760664667432619,0.8880431591196785,-0.409713304589382,left,0.00197434425354,-0.8766557132708293,-0.2443415663321502,-6.268801452055573,-0.4190601265821794,-0.0011111535131931,0.0059170257300138,7.537427887687087,0.007378876209259
2025-04-30 01:18:03.251448600,8.849448486328125,-0.0378671631481151,0.013029689900577,0.0694044483124749,0.015051488764584,-0.1761279279612295,0.888140522532373,-0.4092824907529412,left,-0.0006096363067626,-0.8761841570294715,-0.2376396027417853,-6.272616041907668,-0.4187703762196403,0.022145640105009,0.0091918250545859,7.534468453359604,0.0024254918098449
2025-04-30 01:18:03.291448600,8.889448486328124,-0.0368521249503842,0.0061238664202392,0.0695826817032166,0.0011792685836553,-0.1759962595202438,0.8883722403601468,-0.408401321987366,left,0.0009973645210266,-0.8752633236652407,-0.2315280245263129,-6.279783449319004,-0.4183042018231465,0.0183072462677955,0.0070896316319704,7.528685193783044,-0.0010744333267211
2025-04-30 01:18:03.331448600,8.929448486328125,-0.0367675869326328,-0.0123678147792816,0.0695451693486294,0.0015516963321715,-0.1760111314026277,0.888502836498015,-0.4083241275071361,left,-0.00411057472229,-0.8746471923292367,-0.231167611982394,-6.28443741260469,-0.4180267228574493,0.0172354839742183,0.0045752190053462,7.524812151741981,-0.0084621906280517
2025-04-30 01:18:03.371448600,8.969448486328124,-0.0375856811673952,-0.0214817114174366,0.0693571226623298,0.0005193657707422,-0.176375096303065,0.8885621734946735,-0.4094548652703979,left,-0.0014474987983703,-0.8740116898738111,-0.2364884234126657,-6.289022986829281,-0.4177782419568686,0.0086026061326265,0.0008788295090198,7.520814022016525,-0.0025588274002075
2025-04-30 01:18:03.411448600,9.009448486328123,-0.0385609258802148,-0.0262100398540496,0.0692170647059484,0.0008981403079815,-0.176826698718664,0.8884924096982116,-0.4109155669806931,left,0.0007909536361694,-0.8738878823756953,-0.2426575405016541,-6.2897197369217865,-0.4177589507979763,0.0007139220833778,-0.001860624179244,7.520034854337573,-0.0045288205146789
2025-04-30 01:18:03.451448300,9.0494482421875,-0.0400409229184954,-0.0265647042542696,0.0689638667992302,-0.0064543210901319,-0.1773591812231744,0.8883607925704557,-0.4128184378943905,left,-0.0012376904487609,-0.8739574704057433,-0.2519451001384295,-6.288831263649463,-0.4178550445738888,-0.0087671969085931,-0.0053611379116773,7.520472661232948,0.0044982433319091
2025-04-30 01:18:03.491448300,9.0894482421875,-0.0414098750463855,-0.0084748119115829,0.0686626337461404,-0.0105163697153329,-0.17759617173146,0.888196097641627,-0.4140549826042465,left,-0.0019042491912841,-0.8744548487811695,-0.2603990950278937,-6.284742533031106,-0.4181540023455816,-0.0099316444247961,-0.0068025738000869,7.52360219143033,0.0065807700157165
2025-04-30 01:18:03.531448600,9.129448486328124,-0.0410624559590669,0.0212289672344923,0.0687157300469517,0.0145879723131656,-0.1774717451631056,0.8882385442653129,-0.4136031559577141,left,-0.0079350471496582,-0.8743860155891041,-0.258236930291634,-6.285351020318269,-0.4181081755805381,0.0126284677535295,-0.001417813822627,7.523169060710072,0.0009317398071289
2025-04-30 01:18:03.571448600,9.169448486328124,-0.0390320316719452,0.0284286215901374,0.0691970952419445,0.0111937150359153,-0.1771093974672789,0.888414823373973,-0.4117832502246073,left,0.0017211437225341,-0.8739714871617335,-0.2455961147041991,-6.288976809599995,-0.417807589239043,0.0054544964805245,-0.0029774960130453,7.520560924038291,-0.0008086562156677
2025-04-30 01:18:03.611448600,9.209448486328125,-0.037652023899553,0.0118331797420978,0.0695297474970437,0.0045954124070703,-0.1767495912017115,0.8884524647518744,-0.410347863452782,left,0.0010262727737426,-0.8741739342459282,-0.2368597592093981,-6.287789061120152,-0.4178248445614627,-0.0066614905372262,-0.0012045688927173,7.521834597235918,-0.0006836652755737
2025-04-30 01:18:03.651448600,9.249448486328124,-0.037652023899553,-0.0038142558187246,0.0695297474970437,0.0116679519414901,-0.1767495912017115,0.8884524647518744,-0.410347863452782,left,-0.0020838975906372,-0.8741739342459282,-0.2368597592093981,-6.287789061120152,-0.4178248445614627,0.0052683837711811,0.0015282221138477,7.521834597235918,-0.0006824135780334
2025-04-30 01:18:03.691448600,9.289448486328125,-0.037392995805579,-0.0231245048344135,0.0697610234488233,0.0194633435457944,-0.1771586306689954,0.888463455966254,-0.411098129925303,left,-0.0010207295417785,-0.8737532592194961,-0.2353493181138299,-6.291011530297994,-0.4175896089141464,0.0162320658564567,0.0069566965103149,7.519187297597527,-0.0018929839134216
2025-04-30 01:18:03.731448300,9.3294482421875,-0.0383961733629559,-0.0476587563753128,0.0697035397824592,-0.0024464838206768,-0.1779138582578972,0.8884217229553691,-0.4132069141649663,left,0.0077401399612426,-0.873214356226979,-0.2418156645837239,-6.294819690409303,-0.4173666720294632,0.0092355404049158,0.0055001527070999,7.515793563506007,-0.0036398768424987
2025-04-30 01:18:03.771448600,9.369448486328125,-0.0416393311963096,-0.0282650887966156,0.0687811735947133,-0.0169877801090478,-0.1784495502918761,0.8883816254232797,-0.4158868868696436,left,0.0033063292503356,-0.8727931712813554,-0.2623612254137173,-6.297164792230725,-0.4173764426742351,0.0102891791611909,-0.0008285585790872,7.51313983412683,0.0009323358535766
2025-04-30 01:18:03.811448600,9.409448486328126,-0.0448790679862643,-0.0088714230805635,0.0678587094856769,-0.0315290763974189,-0.178985016377977,0.8883404978683702,-0.4185632578511042,left,-0.0011301040649414,-0.8723661881132629,-0.2829048682812601,-6.29948592865467,-0.4173856725860816,0.0113428188487887,-0.0071574579924345,7.510447526302933,0.0055083632469177
2025-04-30 01:18:03.851448600,9.449448486328125,-0.0457845374296101,0.0328797027468681,0.0673284518800366,-0.0337914898991584,-0.1785847943593212,0.8884636038736646,-0.4180595340255488,left,-0.0015775561332702,-0.8721341772394784,-0.2886884931840002,-6.300968276166915,-0.4173810220092843,0.0065768491476774,-0.011744825169444,7.508984468013048,0.0064194798469543
2025-04-30 01:18:03.891448600,9.489448486328126,-0.0452139528542779,0.0477720536291599,0.0670158844358363,-0.036169845610857,-0.177556811407228,0.8887218230107814,-0.415451041169245,left,-0.0037190914154052,-0.8719130928424603,-0.2851682283696718,-6.302789646375179,-0.4173200645684367,0.0098118493333458,-0.0097959972918033,7.507589798784256,0.0017098188400268
2025-04-30 01:18:03.931448600,9.529448486328125,-0.0446345002030938,0.0318107157945632,0.0666846456122711,-0.028872787952423,-0.1765694088736625,0.8890432243478733,-0.4128903499567148,left,-0.0086832046508789,-0.8713547721380979,-0.2817029634119011,-6.307139658278227,-0.4171073301871983,0.0213165301829576,-0.0054463315755128,7.504066300833225,-0.0054364800453186
2025-04-30 01:18:03.971448300,9.5694482421875,-0.0442425796003937,0.0128059890121221,0.0664754584970864,-0.0059931501746177,-0.1761204375225513,0.8893721258623568,-0.4115653874896404,left,-0.0092580914497375,-0.87025273253652,-0.2795966205161064,-6.31550767365098,-0.4166290386455466,0.0274577531963586,-0.0026157330721616,7.497104060605168,-0.0073505640029907
2025-04-30 01:18:04.011448600,9.609448486328125,-0.0446929921887612,-0.0088242050260305,0.066165749189251,-0.0172767732292413,-0.1760541782246062,0.8895967489897387,-0.411508072419705,left,-0.0011729598045349,-0.8692503662173663,-0.2827768031884916,-6.322885508942604,-0.4162266927066356,0.0147526999935507,-0.0066819433122873,7.490763751667737,-0.0044134855270385
2025-04-30 01:18:04.051448600,9.649448486328126,-0.045845400664923,-0.0096378633752465,0.0657686509565664,-0.0089254779741168,-0.1761580191154519,0.8896461232258649,-0.4122364413731241,left,-0.0022202730178833,-0.8688800001804722,-0.2901902943153865,-6.325326472353935,-0.41614012712348,-0.0031027840450406,-0.0072763655334711,7.488418649846315,0.0011245012283325
2025-04-30 01:18:04.091448600,9.689448486328123,-0.0456644701985041,0.0142119927331805,0.0658647004874868,0.0144268302246928,-0.1761300891440593,0.8895721811927645,-0.4121342512869048,left,-0.00222909450531,-0.8692580132839758,-0.2889166211177594,-6.322551162421703,-0.4162949215706478,-0.0133069073781371,-0.0077180787920951,7.490811682462692,0.0045269727706909
2025-04-30 01:18:04.131448600,9.729448486328126,-0.0439270540924702,0.0272962693125009,0.066399219986766,0.0207009427249431,-0.1758734701272774,0.8895471424584221,-0.4107939923914772,left,-0.0002368688583374,-0.8696769209005807,-0.2777934435516596,-6.319907369914651,-0.416371887073758,-0.0031156595796346,-0.0075164288282394,7.493462489232421,0.0036538243293762
2025-04-30 01:18:04.171448600,9.769448486328123,-0.0417855644146989,0.0373999997973442,0.0669497429441069,0.0207381807267665,-0.17548580971582,0.8896616466056416,-0.4089086807357383,left,-0.0011388063430786,-0.8695776752653619,-0.2642898736550472,-6.321230727472901,-0.4162026573781435,0.0124035319313406,-0.0053978692740201,7.492834712722897,0.0045850872993469
2025-04-30 01:18:04.211448300,9.8094482421875,-0.039082372709524,0.0446924455463886,0.0675356606449387,0.0151186566799879,-0.174913933018617,0.8899487326321385,-0.4062760208747522,left,0.000337541103363,-0.8688566535472965,-0.247412479943782,-6.327319691997766,-0.4157348026252657,0.0288718342781066,-0.0055188424885272,7.488270765808224,0.0032750368118286
2025-04-30 01:18:04.251448600,9.849448486328123,-0.0359018963912643,0.048935193568468,0.0681714117423727,0.0313645936548709,-0.1742794475829325,0.8904119563527747,-0.4031982698983976,left,-0.0103922486305236,-0.8673755259689346,-0.2276852132267318,-6.339150999566912,-0.4149047072620301,0.0457713343203067,0.0012242160737514,7.478883928781747,0.0010526776313781
2025-04-30 01:18:04.291448600,9.889448486328124,-0.0325058760845982,0.0265943296253681,0.068959900422794,0.0318649858236312,-0.1739054041075367,0.8909123318014599,-0.4005672456472327,left,-0.0006594657897949,-0.8654757957861375,-0.2066174551535397,-6.354076766020059,-0.4138559837379963,0.0498524196445941,0.0024100430309772,7.466819981500506,-0.0064937472343444
2025-04-30 01:18:04.331448600,9.929448486328123,-0.0310101768041225,-0.0122469812631607,0.0693059733369539,0.0115845091640949,-0.1740045541301025,0.8913112416526038,-0.3998860093857779,left,0.0077368021011352,-0.8635552797154143,-0.1975576763906516,-6.368699750134349,-0.4128963159921479,0.044281467795372,-0.0009344927966594,7.454597044265269,-0.0116587281227111
2025-04-30 01:18:04.371448600,9.969448486328124,-0.0315572675757007,-0.0265553034842014,0.0692006258175687,0.0132463471964001,-0.1745573497292191,0.8915113341201734,-0.4012202756719294,left,0.0014920234680175,-0.8620935898902962,-0.2013854910505004,-6.379474826648831,-0.4122481979263275,0.0277076810598373,-0.0028330832719802,7.445275089168548,-0.0060641169548034
2025-04-30 01:18:04.411448600,10.009448486328123,-0.0318003837377034,-0.0078603867441415,0.0692635828461218,0.0208648424595594,-0.1750893394322639,0.891584125762705,-0.4024343411770336,left,-0.0082820057868957,-0.8612544261053953,-0.2031350198652595,-6.38566842059195,-0.4118544452804143,0.0121234701946377,-0.0033869836479425,7.439916777005791,0.0024940967559814
2025-04-30 01:18:04.451448300,10.0494482421875,-0.0301641574514757,0.0228482689708471,0.0698866880291161,0.0415465161204338,-0.1752220355411463,0.8915892674447947,-0.4019650710195375,left,-0.0103640556335449,-0.8611511203998493,-0.1927095422397367,-6.386760307481884,-0.4116815590125143,-0.007687265984714,0.0047251200303435,7.439256851792335,0.0045948028564453
2025-04-30 01:18:04.491448600,10.089448486328124,-0.027222770804496,0.0260246340185403,0.070877354372467,0.0345431752502918,-0.1750790342348125,0.8915868657768595,-0.4003094728572715,left,0.0009117126464843,-0.8613666639800481,-0.1738791330308653,-6.385695893120765,-0.411578090891933,-0.003149454947561,0.0142738688737154,7.440633400842547,-0.0049737095832824
2025-04-30 01:18:04.531448600,10.129448486328124,-0.0260673088675872,0.0064474940299987,0.0712242799595361,-0.0092720314860343,-0.1749039434579318,0.8915853672585338,-0.3994041161375995,left,0.0070042014122009,-0.861562108692805,-0.1664627010282129,-6.384439171057939,-0.4115960334067719,-0.0077895959839224,0.0145203173160552,7.441881939598917,-0.0063450336456298
2025-04-30 01:18:04.571448600,10.169448486328124,-0.0268894733487468,0.0013431180268526,0.0708783414777587,-0.03303187713027,-0.174666821888014,0.8915316142174117,-0.3992999616853601,left,-0.0002306699752807,-0.8620148974630683,-0.171621106704697,-6.38093203971982,-0.4118729034685175,-0.0125204306095838,0.0069616269320249,7.444772984865307,-0.0061501860618591
2025-04-30 01:18:04.611448600,10.209448486328125,-0.02805766064352,0.0083391685038805,0.0703492045879748,-0.030505396425724,-0.1742224371516708,0.8914538055631808,-0.3989226662489424,left,-0.0097965002059936,-0.8627615930929102,-0.1789191182257607,-6.37516865388751,-0.412320085051557,-0.0242029689252376,0.002813434228301,7.449537422788143,-0.0060452818870544
2025-04-30 01:18:04.651448600,10.249448486328124,-0.0283843576151387,-0.0086729079484939,0.0702527225699564,-0.0097449291497468,-0.1739271024664957,0.8912230287722119,-0.3985552893905812,left,-0.0025290250778198,-0.8641072553275985,-0.1807171806236729,-6.365083313202858,-0.4129595856982096,-0.042646650224924,0.0009159222245216,7.458112943431734,-0.0119971632957458
2025-04-30 01:18:04.691448600,10.289448486328125,-0.0305558018065907,-0.0517514534294605,0.0698696528021869,-0.032779149711132,-0.1742022636501436,0.8906985567409484,-0.4004131224347151,left,0.0124884843826293,-0.8662575531795004,-0.194047768573556,-6.348631944617629,-0.4140387632290557,-0.0651034787297248,-0.0065377783030271,7.471787833040953,-0.0038599967956542
2025-04-30 01:18:04.731448300,10.3294482421875,-0.0345018748320037,-0.0610975362360477,0.0690984197594338,-0.0175189040601253,-0.1749266919334238,0.890044114172114,-0.404130633973698,left,-0.0027539134025573,-0.8685426888051726,-0.2185088040805421,-6.330736222442984,-0.4152682350487211,-0.0447090826928615,-0.0024512857198715,7.4862828068614,0.0066627264022827
2025-04-30 01:18:04.771448600,10.369448486328125,-0.0373710153938203,-0.0455075874924659,0.0686392181543561,0.006160095334053,-0.1758797153129609,0.8896675796166023,-0.4077020374607701,left,-0.003802478313446,-0.8693350571512171,-0.2364499362994916,-6.324152752399444,-0.4157482636966439,-0.0023485049605369,0.0014511030167341,7.49129975824058,0.0119151473045349
2025-04-30 01:18:04.811448600,10.409448486328126,-0.0390975539080547,-0.0261186882853508,0.0683057070088869,-0.0132454819977283,-0.1765434917547536,0.8896016789276977,-0.4099593867661502,left,0.0050309300422668,-0.8689732987473223,-0.2474743661988526,-6.326442324641347,-0.4156627913066362,0.0117956362664699,0.0001582596451044,7.489009601476788,0.0104482769966125
2025-04-30 01:18:04.851448600,10.449448486328125,-0.0411107508244668,-0.0195071846246719,0.0676419776973034,-0.0340056233108043,-0.1767637091643552,0.8896614234359659,-0.4113308196013554,left,0.0077632665634155,-0.868422387027478,-0.2603797510066069,-6.330052331832051,-0.4155498858010709,0.0162804499268531,-0.0060231294482946,7.485520590317249,0.0006077289581298
2025-04-30 01:18:04.891448600,10.489448486328126,-0.0426937527741643,-0.0012934952974319,0.0669977209073778,-0.0196791402995586,-0.1767610424544845,0.8898129022730676,-0.4119747097240593,left,-0.0012416839599609,-0.8676622101661708,-0.2706427498131059,-6.335317120492458,-0.4153312482639291,0.0170843247324228,-0.0096909701824188,7.480702376380562,0.0036703944206237
2025-04-30 01:18:04.931448600,10.529448486328125,-0.0428073204895603,0.0196774266660213,0.0667464827190876,-0.0155501663684844,-0.1764265748837579,0.889976353469963,-0.4112220547393941,left,-0.0033897757530212,-0.8672044210984187,-0.2715087372589856,-6.338706762930751,-0.4151636049795583,0.011905238032341,-0.0099647883325815,7.4777984716326,0.0044184923171997
2025-04-30 01:18:04.971448300,10.5694482421875,-0.0425350860209624,0.011481262743473,0.0665332637219526,-0.0159050300717353,-0.1760862232435408,0.8903092902638668,-0.4101856657379953,left,-0.0012730360031127,-0.865972040173835,-0.2701747487088665,-6.347981956276297,-0.414627946733733,0.023104652762413,-0.0071389209479093,7.469974061617255,-7.65323638916e-05
2025-04-30 01:18:05.011448600,10.609448486328125,-0.0422652484116693,0.0032850988209247,0.0663200064330525,-0.0162598919123411,-0.1757458163575481,0.8906418494214713,-0.4091514829775325,left,0.0008426904678344,-0.8647396458218366,-0.2688506056993268,-6.357247797271609,-0.4140920588956019,0.034304067492485,-0.0043120272457599,7.462137961164115,-0.0045703053474426
2025-04-30 01:18:05.051448600,10.649448486328126,-0.0432748173975633,-0.0094612473621964,0.0657474948674111,-0.0323676690459251,-0.1756449058822946,0.8909593162476438,-0.4092265920265296,left,0.0035159587860107,-0.8633072833994611,-0.2757306658029556,-6.367645272645354,-0.4135428921113837,0.0333367735147476,-0.0088984388858079,7.453016497075557,-0.0080394148826599
2025-04-30 01:18:05.091448600,10.689448486328123,-0.0449154757681671,-0.0004400564357638,0.0650005575610074,-0.0249075628817081,-0.1755174345433361,0.8911719432069848,-0.4095909217841797,left,-0.007897675037384,-0.862364242211199,-0.2864928280369378,-6.374201854681968,-0.4132566711890745,0.0098309013992547,-0.011610709130764,7.447002351352572,0.0031461715698242
2025-04-30 01:18:05.131448600,10.729448486328126,-0.0448353825745564,0.0259822532534599,0.0648695482401418,0.0063681453466415,-0.1751790422068921,0.891242972807532,-0.4087923996412778,left,-0.0134692192077636,-0.8623470283725184,-0.2859880933851935,-6.374353830373287,-0.4132678827507931,-0.0010473793372511,-0.010856494307518,7.446892461237311,0.0056899189949035
2025-04-30 01:18:05.171448600,10.769448486328123,-0.0424793830930836,0.0386339798569679,0.0654822123354022,0.0309822633862495,-0.1747589741558349,0.8913741470326035,-0.4067412702513252,left,-0.0058709979057312,-0.8622063301824314,-0.2710138298815116,-6.376057127159833,-0.4130661650908207,0.0135087994858622,-0.0052334070205688,7.445994635614753,-0.0002789497375488
2025-04-30 01:18:05.211448300,10.8094482421875,-0.0396927388537209,0.017895009368658,0.066252743130079,0.038886122405529,-0.1745883461067561,0.8916534383720416,-0.4049467521459558,left,-0.0033265948295593,-0.8611480402173374,-0.2535575403037481,-6.384657197722793,-0.41241201032838,0.0386640802025795,0.0018735080957412,7.439236978048085,-0.0092243552207946
2025-04-30 01:18:05.251448600,10.849448486328123,-0.038323100927011,-0.0218144059181213,0.0667090350500344,0.0394777283072471,-0.1751102919133714,0.8920349946389196,-0.405231268009663,left,-0.0038434267044067,-0.8589145206374684,-0.2454486325249075,-6.401585536170005,-0.4112904966541059,0.0631230622529983,0.0044420808553695,7.424946586889028,-0.0013888478279113
2025-04-30 01:18:05.291448600,10.889448486328124,-0.0380801058425095,-0.0170005988329648,0.0668113400996629,0.0381976328790187,-0.1759962018712326,0.8925589679909244,-0.40673342574228,left,0.0003601312637329,-0.8556236682294548,-0.2448219702602364,-6.42602731898725,-0.4097560912092794,0.0795280560851097,0.0040288716554641,7.403824303883313,0.0032189488410949
2025-04-30 01:18:05.331448600,10.929448486328123,-0.0378304500081481,-0.0121867917478084,0.0669134304513456,0.0369175411760807,-0.1768814854285001,0.8930798813797465,-0.4082310494261251,left,0.0045564770698547,-0.8523330562345345,-0.2441377873883582,-6.450398374655842,-0.4082202824891021,0.095933049917221,0.0036098081618547,7.382623694944381,0.0078347921371459
2025-04-30 01:18:05.371448600,10.969448486328124,-0.0365144103602607,-0.0007434021681547,0.0671828727090519,0.0373631343245506,-0.1774720187129032,0.8937943262088354,-0.4085141359865687,left,0.009365975856781,-0.8484194030357975,-0.2367016095056198,-6.479539128944277,-0.4063519527792072,0.1019241362810134,0.0060004852712154,7.357304544770717,0.0049914121627807
2025-04-30 01:18:05.411448600,11.009448486328123,-0.0351973481070285,-0.0009184429654851,0.0673755020969329,0.0201886408030986,-0.1778387531114102,0.894509430900605,-0.408323701068072,left,0.0101691484451293,-0.8446958824362913,-0.2291298773434013,-6.507178246498108,-0.4045822490398189,0.0872309282422065,0.005329331383109,7.3331105992347,0.0007882714271545
2025-04-30 01:18:05.451448300,11.0494482421875,-0.0347897833184088,-0.0186507925391197,0.0672917953393901,0.0080645428970456,-0.1782144661802999,0.8951398034084773,-0.408608351956466,left,0.0013299584388732,-0.8413269210287152,-0.2273358152671717,-6.5319251497417685,-0.4030339110716765,0.0855220779776573,0.0038244258612394,7.311133160704374,-0.0072124004364013
2025-04-30 01:18:05.491448600,11.089448486328124,-0.0358232908954372,-0.0249954983592033,0.0668091215706449,-0.010643552057445,-0.1787568367622475,0.8956511999000606,-0.4099520944069593,left,0.0004695057868957,-0.8383113893754729,-0.2348750151329673,-6.553688653260469,-0.4017355191676793,0.0643426105380058,-0.0041742790490388,7.291390933880209,-0.0017240047454833
2025-04-30 01:18:05.635194400,11.2331943359375,-0.0342928594968971,0.0395527109503746,0.0661931363643335,-0.0002900898107327,-0.1780673066019272,0.8972994818865355,-0.4069372505877078,left,0.0038372757844626,-0.831043853754309,-0.2266556509832851,-6.606825784686207,-0.3984521266090182,0.0661724731326103,-0.006438061594963,7.243539049381018,0.0014144964516162
2025-04-30 01:18:05.675194400,11.2731943359375,-0.0336010024076079,0.0155427008867263,0.0659010982562948,-0.019618110731244,-0.1776281754035368,0.8979998206480969,-0.405333525215189,left,0.0059747099876403,-0.828078164832413,-0.2228053322306834,-6.628422114944458,-0.39711657458206,0.0762965083122253,-0.0020836014300584,7.223901451975107,-4.10676002502e-05
2025-04-30 01:18:05.715194000,11.313194091796875,-0.0338746757484579,0.0068486100062727,0.0653788209425183,-0.0150412684306502,-0.177425215310944,0.8986240738002573,-0.4046968526841988,left,0.0043092966079711,-0.8252153633510005,-0.2253188494215719,-6.649003130680322,-0.3958797785924258,0.0668651461601257,-0.0041232574731111,7.204885785859823,-0.0008082389831542
2025-04-30 01:18:05.755194000,11.353194091796874,-0.0337782530784487,0.0127115659415721,0.0650857799234465,0.0004365006461739,-0.1772591188753285,0.8991044987626934,-0.4040517849682379,left,-0.0018002986907958,-0.8230238935580865,-0.225210420611035,-6.664788728833198,-0.3949103541922068,0.037812877446413,-0.0042812339961528,7.190289105230569,-0.0043709874153137
2025-04-30 01:18:05.795194000,11.393194091796875,-0.0325675227404024,0.0125514594838023,0.0654613154052617,0.0024573067203164,-0.1771190367205872,0.8991437227501681,-0.4032064414021199,left,-0.0007213354110717,-0.8230044481422341,-0.2171455711696296,-6.6651967251122,-0.3948219382206266,0.0100557189434766,-0.002319611608982,7.190159341371059,-0.0062431097030639
2025-04-30 01:18:05.835194400,11.4331943359375,-0.0313569034490123,0.0123913520947098,0.0658368144966776,0.0044781127944588,-0.1769789118903205,0.8991827836410121,-0.4023611458945166,left,0.0003572106361389,-0.8229843091241427,-0.2090809409239329,-6.665600045216083,-0.3947334664222514,-0.0177014395594596,-0.0003579594194889,7.190024901336432,-0.008114755153656
2025-04-30 01:18:05.875194400,11.4731943359375,-0.0313569034490123,0.01223124563694,0.0658368144966776,0.0064989188686013,-0.1769789118903205,0.8991827836410121,-0.4023611458945166,left,0.0013946294784545,-0.8229843091241427,-0.2090809409239329,-6.665600045216083,-0.3947334664222514,-0.0454585961997509,0.0024260394275188,7.190024901336432,-0.0100001096725463
2025-04-30 01:18:05.915194400,11.5131943359375,-0.0300430521713133,0.0063196825794875,0.0663902757716457,-0.0146161438897252,-0.1765393481518954,0.8987972284602193,-0.4010504799089218,left,-0.000117003917694,-0.825334485060182,-0.1998149903307668,-6.648959291538596,-0.3957142355239891,-0.0641791447997093,0.0027137827128171,7.2056778130203485,-0.0168263912200927
2025-04-30 01:18:05.955194000,11.553194091796875,-0.0308562125214692,-0.0013893591240048,0.0662798901348519,-0.0121467057615518,-0.17631037935069,0.8983300814626697,-0.4011579603946856,left,-0.0145357847213745,-0.8278145583374863,-0.2046696090213954,-6.630911593672633,-0.3968936686040832,-0.0683757588267326,0.0032962206751108,7.222153147003054,-0.0163764357566833
2025-04-30 01:18:05.995194000,11.593194091796876,-0.0317845450098315,0.0017356977332383,0.0663764272238454,-0.0107015445828437,-0.1760769180520692,0.8974168639292959,-0.4015376352777988,left,-0.0127195119857788,-0.8324575517167265,-0.2097573240818455,-6.597132073667645,-0.399041403414307,-0.1015903279185295,0.0022984184324741,7.25287737109065,-0.015335738658905
2025-04-30 01:18:06.035194000,11.633194091796875,-0.0327203413083246,0.0048607550561428,0.0664725876803222,-0.0092563834041357,-0.175842502680941,0.8964986681459678,-0.4019257484245471,left,-0.0109183192253112,-0.8371002912465064,-0.2148268824310973,-6.563207007712125,-0.4011869495713118,-0.1348049044609069,0.0012988112866878,7.283443189746141,-0.0142789483070373
2025-04-30 01:18:06.075194400,11.6731943359375,-0.0336637723873314,0.0079858116805553,0.0665683715042817,-0.0078112222254276,-0.1756071545750681,0.8955755756609997,-0.4023225507131744,left,-0.0091317892074584,-0.8417428987236822,-0.2198782658028416,-6.5291363958060735,-0.4033303070750973,-0.1680194735527038,0.0002973247319459,7.313851187491417,-0.0132060050964355
2025-04-30 01:18:06.115194400,11.7131943359375,-0.0334414546677222,0.0031634126789867,0.0672444298541968,0.0078873373568058,-0.1752159385351557,0.8942645802360756,-0.4020677079742492,left,-0.0104150176048278,-0.8483936522180241,-0.2167955156229436,-6.4804252641290425,-0.4062861809204969,-0.1687741875648498,0.0030420925468206,7.357137371510267,-0.0055709481239318
2025-04-30 01:18:06.155194400,11.7531943359375,-0.0337365618700901,-0.0096239112317562,0.0678760510256989,0.0012958110310137,-0.1751135595506243,0.8928708199582059,-0.4027056835206405,left,-0.0045506358146667,-0.8551045336950012,-0.2170376355494372,-6.430870082843303,-0.4092795165961491,-0.1648937314748764,0.001038372516632,7.400484930327535,0.0066270232200622
2025-04-30 01:18:06.195194400,11.7931943359375,-0.0345085752821017,-0.0213349275290966,0.0683249685643329,0.0127270463854074,-0.1754252968058517,0.8917623630421323,-0.4043029237868619,left,-0.0052875876426696,-0.8600275217791122,-0.2207426275472156,-6.394212377053499,-0.4114821916038714,-0.1241171583533287,0.0006423499435186,7.432072493246197,0.0083370208740234
2025-04-30 01:18:06.235194000,11.833194091796877,-0.0352972108648351,-0.0330459438264369,0.0687734328869203,0.0241582803428173,-0.1757359180539819,0.8906481424982295,-0.405915201593464,left,-0.0060401558876037,-0.8649495275451761,-0.224491604817193,-6.357400942006707,-0.4136822187737634,-0.083340585231781,0.0002508237957954,7.463473593682051,0.0100659132003784
2025-04-30 01:18:06.275194000,11.873194091796876,-0.036166330215846,-0.0310466475784778,0.0691405976146503,0.0173655450344085,-0.1765399387599315,0.8899505682837658,-0.4084077548418733,left,0.0030262470245361,-0.8674420890388257,-0.2293435018277727,-6.338593365684151,-0.4147785854844845,-0.0618423037230968,-0.0023507289588451,7.47930653810799,0.0130884051322937
2025-04-30 01:18:06.315194400,11.9131943359375,-0.0370475866565621,-0.0290473494678735,0.0695076329954783,0.0105728078633546,-0.1773435765481911,0.8892506981462316,-0.4109110354171489,left,0.0120893120765686,-0.8699330001620845,-0.2342385255940258,-6.319750718048215,-0.4158738751131115,-0.0403440222144126,-0.004947880282998,7.495082199388742,0.0161166787147521
2025-04-30 01:18:06.355194400,11.9531943359375,-0.0377000554834272,-0.0014135688543319,0.0696109330438765,0.0038696331903338,-0.1776892571433471,0.8888778548613144,-0.412155203795665,left,0.0171514153480529,-0.8713268792375667,-0.2379679579133167,-6.309151582622528,-0.4165058432253163,-0.0203242357820272,-0.0038068033754825,7.5038897752225395,0.0193122625350952
2025-04-30 01:18:06.395194400,11.9931943359375,-0.0377000554834272,0.0161623656749725,0.0696109330438765,-0.0140078766271471,-0.1776892571433471,0.8888778548613144,-0.412155203795665,left,0.0113107562065124,-0.8713268792375667,-0.2379679579133167,-6.309151582622528,-0.4165058432253163,0.0037952382117509,-0.0030015595257282,7.5038897752225395,0.0153591632843017
2025-04-30 01:18:06.435194400,12.0331943359375,-0.0373227542969545,0.0126777403056621,0.0694719818388741,-0.0108880884945392,-0.177076707722595,0.8889718697549588,-0.4106166918838848,left,0.0022416710853576,-0.8714695573551586,-0.2355475075670517,-6.308170170369744,-0.4165890994481748,0.0226986091583967,-0.0054170284420251,7.504790523454546,0.0156564116477966
2025-04-30 01:18:06.475194000,12.073194091796877,-0.0376348996821684,0.0081743570044636,0.0689995045812695,0.0009364681318402,-0.1768700369840727,0.8894887022306118,-0.410041558477987,left,-0.008413553237915,-0.8692453570072158,-0.2381440451325848,-6.3247618242084975,-0.4156512690325784,0.0603950843214988,-0.0024637822061777,7.4907316029638045,0.0086219310760498
2025-04-30 01:18:06.515194000,12.113194091796874,-0.0379482010599127,0.0036709732376039,0.0685268930119752,0.0127610256895422,-0.1766630461791083,0.8900043114815381,-0.4094667050041599,left,-0.0190722346305847,-0.8670212536790676,-0.2407570954415015,-6.34131957577765,-0.4147128420572621,0.0980915576219558,0.0004911385476589,7.476636442115902,0.0015910863876342
2025-04-30 01:18:06.555194400,12.1531943359375,-0.0369662502715137,-0.0221219770610332,0.0686325346061505,0.0375581420958042,-0.1772011182241148,0.8907721716105936,-0.409753746082398,left,-0.0027828216552734,-0.8629553353376843,-0.2356516255286522,-6.371877795648574,-0.4128125696876109,0.1062036678194999,0.0065038967877626,7.450772517541051,-0.0083450675010681
2025-04-30 01:18:06.595194400,12.1931943359375,-0.038354842156889,-0.0144634405151009,0.0680203356795278,0.0241451226174831,-0.1778638828342161,0.8913967043551215,-0.4114717638683987,left,-0.0038835406303405,-0.8593531873250284,-0.2455269036591984,-6.398322734981775,-0.4112779831690114,0.0976198613643646,0.0021354369819164,7.427756383612752,-0.0041573047637939
2025-04-30 01:18:06.635194400,12.2331943359375,-0.0397282644596468,-0.0068049044348299,0.0674079007171983,0.0107321040704846,-0.1785260599165131,0.8920179927020738,-0.4131750847215718,left,-0.0049926042556762,-0.8557493617414355,-0.2553757687068544,-6.42468467220664,-0.4097419118267461,0.0890360623598098,-0.0022357050329446,7.4046326976567505,4.13060188293e-05
2025-04-30 01:18:06.675194400,12.2731943359375,-0.0410867643892757,0.000853631645441,0.0667952102827653,-0.0026809135451912,-0.1791876105982167,0.8926362210858432,-0.414864010496668,left,-0.0061103701591491,-0.8521443320707124,-0.2651982389379292,-6.45096243827939,-0.4082044478780112,0.0804522559046745,-0.0066095609217882,7.381404966804385,0.0042505860328674
2025-04-30 01:18:06.715194000,12.313194091796875,-0.0400948607729314,0.0220443550497293,0.0667350701835248,0.0137112019583582,-0.1791163307413988,0.8933138476259327,-0.413892081289013,left,-0.0073699355125427,-0.849024746556479,-0.2597211227010935,-6.474198936960101,-0.4067605787446888,0.074269987642765,-0.0028201881796121,7.361227855694294,0.0010570883750915
2025-04-30 01:18:06.755194000,12.353194091796874,-0.0385678102954666,0.0157801155000925,0.0668246222220547,0.0107552586123347,-0.1790224797400696,0.8940550611446832,-0.4126014418629828,left,0.0007340312004089,-0.8456299620227328,-0.2507965328915044,-6.499522178786993,-0.4051556227131708,0.0936589390039444,-0.0036959256976842,7.33918962688744,-0.0070255398750305
2025-04-30 01:18:06.795194000,12.393194091796875,-0.0376534754915481,0.0188231002539396,0.0666291002012933,0.0079172244295477,-0.1787304995087027,0.8947969705477762,-0.4111696605794677,left,-0.0006154775619506,-0.842385887350777,-0.2457486566510982,-6.523505696442723,-0.4036760344558637,0.0809786617755889,-0.0033907946199178,7.318050392746925,-0.0080037713050842
2025-04-30 01:18:06.835194400,12.4331943359375,-0.036749435963225,0.0218660850077867,0.0664333867217114,0.0050791907124221,-0.1784380422410817,0.8955363908258915,-0.4097476433995219,left,-0.001971960067749,-0.8391410655106585,-0.240722243323829,-6.54742082503736,-0.40219529823703,0.0682983845472335,-0.0030834842473268,7.296829325541854,-0.0089736580848693
2025-04-30 01:18:06.875194400,12.4731943359375,-0.035855544973698,0.0249090697616338,0.0662375181737101,0.0022411567624658,-0.1781451380424832,0.8962732705359912,-0.4083353177270926,left,-0.0033356547355651,-0.8358956103723864,-0.2357171833118423,-6.571265811005234,-0.400713469883465,0.0556181147694587,-0.0027740094810724,7.275527009794115,-0.0099353194236755
2025-04-30 01:18:06.915194400,12.5131943359375,-0.03512366837489,0.0290297754108905,0.066097801466931,-0.0258637368679046,-0.1776015549015107,0.8966656579306962,-0.406647798847122,left,0.0058867931365966,-0.8345418865014449,-0.2312533905697055,-6.581272825756669,-0.4000994168876512,0.0115822367370128,-0.0069724079221487,7.266618896195292,-0.0120149850845336
2025-04-30 01:18:06.955194000,12.553194091796875,-0.0343203399591774,0.0283802021294832,0.0660591673335389,0.011329423636198,-0.1769532843489135,0.8968659097799603,-0.4048085234567574,left,-0.0156643986701965,-0.8342177308694825,-0.2260472002287395,-6.583810235279798,-0.3999441066482511,-0.00141819473356,0.0030815564095973,7.264484222254157,-0.0100944638252258
2025-04-30 01:18:06.995194000,12.593194091796876,-0.0340023649598131,0.0148365898057818,0.0663510301256544,0.0108159119263291,-0.1770624970051575,0.8966186333384851,-0.4050293288495116,left,-0.0115728378295898,-0.8353210695897593,-0.2236811104182153,-6.575867751842737,-0.4004017892418784,-0.0161311626434326,0.0031992699950933,7.271748075777292,-0.0059990286827087
2025-04-30 01:18:07.035194000,12.633194091796875,-0.0336844157136082,0.0012929765507578,0.0666428652948866,0.0103024002164602,-0.1771716845209026,0.8963709278176721,-0.4052499191429273,left,-0.0074820518493652,-0.8364242319927574,-0.2213200073100626,-6.56791708509922,-0.4008592830173574,-0.0308441333472728,0.0033174902200698,7.279001992428302,-0.0019025802612304
2025-04-30 01:18:07.075194400,12.6731943359375,-0.0333664606243406,-0.0122506357729434,0.0669346684574769,0.0097888894379138,-0.1772808080233592,0.8961229776519138,-0.4054703273428511,left,-0.0033923387527465,-0.8375276064824961,-0.2189636351759545,-6.559956481483578,-0.4013166544703647,-0.0455571003258228,0.0034362040460109,7.286248310294747,0.0021947026252746
2025-04-30 01:18:07.115194400,12.7131943359375,-0.0335359551232478,-0.0090018128976225,0.0671568687426009,0.0102310422807931,-0.1775228619435938,0.8957651813941877,-0.4062477314087614,left,-0.0004361867904663,-0.8390163487513156,-0.2197115309338085,-6.549069761288166,-0.4019705527011151,-0.0277117025107145,0.0030924286693334,7.296012163940071,-0.0001206398010253
2025-04-30 01:18:07.155194400,12.7531943359375,-0.0343952047650348,-0.0187426693737506,0.0670720927862152,-0.0089498870074749,-0.1777929827298543,0.8955274710481052,-0.4073304621315023,left,-0.0006632804870605,-0.8398771193516797,-0.2251226875286549,-6.542599688491225,-0.4023948033509661,-0.0215014442801475,0.0005217734724283,7.301649877566099,0.0005678534507751
2025-04-30 01:18:07.195194400,12.7931943359375,-0.0344661497370152,-0.0052994759753346,0.0671878178888314,-0.0002101045101881,-0.177901035533772,0.8953423614611431,-0.4076895222078416,left,0.003141164779663,-0.8406621330584092,-0.225389247776661,-6.536853253793716,-0.4027394280637285,-0.0178903993219137,-3.62023711204e-05,7.306786655932664,3.54647636413e-05
2025-04-30 01:18:07.235194000,12.833194091796877,-0.0345376518937984,0.0081437183544039,0.0673035066010476,0.0085296779870986,-0.1780090669999267,0.8951571703258657,-0.4080490886341615,left,0.0069451332092285,-0.8414472555360866,-0.2256585114384069,-6.53110214292109,-0.4030839969496955,-0.0142793543636798,-0.0005938988178968,7.311919342646003,-0.0004964470863342
2025-04-30 01:18:07.275194000,12.873194091796876,-0.0346094722293854,0.0215869136154651,0.0674192404711795,0.0172694623470306,-0.1781170557905558,0.8949718160939587,-0.4084089543786761,left,0.0107485651969909,-0.8422323704591228,-0.225928871078696,-6.525346940395235,-0.4034284886711049,-0.0106683084741234,-0.0011515114456415,7.317047937706112,-0.0010278820991516
2025-04-30 01:18:07.315194400,12.9131943359375,-0.0345548017048557,0.0101471580564975,0.0673311515784685,-0.030284184962511,-0.1777513567179372,0.8949436467120621,-0.4076203336284939,left,0.0153023600578308,-0.8427178005552807,-0.2254493621997535,-6.521808244875073,-0.4036667526591158,-0.0147507032379508,-0.0008991044014692,7.320216630870103,0.004870593547821
2025-04-30 01:18:07.355194400,12.9531943359375,-0.0356804514850249,-0.0056137330830097,0.066838001961034,-0.0291496217250823,-0.1774186688700118,0.8948997820265815,-0.4074389660212347,left,0.0009804964065551,-0.8432100768892736,-0.2326619421933777,-6.517948646837472,-0.4039923142849114,-0.0013251323252916,-0.0054205767810344,7.323427994132041,0.0015007257461547
2025-04-30 01:18:07.395194400,12.9931943359375,-0.0358686246177815,0.0096991630271077,0.0665158686503671,-0.0283105131238698,-0.177227750920821,0.8952343958570322,-0.4069395114782093,left,-0.0020088553428649,-0.8417791440656645,-0.2342639888288453,-6.528370672130585,-0.4033873927769561,0.0135013777762651,-0.0097105335444211,7.31408791885674,-0.0002628564834594
2025-04-30 01:18:07.435194400,13.0331943359375,-0.0360575841430459,0.02501205727458,0.0661936970479365,-0.0274714045226573,-0.1770367350503296,0.8955684689545538,-0.4064405036667147,left,-0.004999816417694,-0.8403483463314807,-0.2358745840969495,-6.5387774998545645,-0.4027822416766956,0.0283278878778219,-0.0139995943754911,7.304733815056085,-0.0020250678062438
2025-04-30 01:18:07.475194000,13.073194091796877,-0.0362473337249844,0.0403249524533748,0.0658714658159796,-0.02663229778409,-0.176845621258537,0.895902001319146,-0.4059418988451336,left,-0.0079920291900634,-0.8389174527702388,-0.2374938558618538,-6.549170883575082,-0.4021767794358148,0.0431543998420238,-0.0182877760380506,7.2953639291644095,-0.0037856698036193
2025-04-30 01:18:07.515194000,13.113194091796874,-0.0343908685468323,0.0562867671251297,0.0659864401696854,0.010083295404911,-0.1759091368644725,0.8963279248907299,-0.402898882984356,left,-0.0183141231536865,-0.837811619816164,-0.225612425540667,-6.557660479500889,-0.4016194409444477,0.0102876648306846,-0.0082418378442525,7.288112350600957,-0.0007379055023193
2025-04-30 01:18:07.555194400,13.1531943359375,-0.0316687608607066,0.0432626232504844,0.066732967844977,0.0293379966169595,-0.1755183119039143,0.8965175802457456,-0.4007582174552778,left,-0.0082657933235168,-0.8373470247574702,-0.2078681493343785,-6.561634059306979,-0.4012436784946377,0.0183186717331409,-0.0042905658483505,7.285062899902463,-0.0025833845138549
2025-04-30 01:18:07.595194400,13.1931943359375,-0.0289495571198159,0.0302384756505489,0.0674794402745024,0.0485926978290081,-0.1751273337762807,0.896706317231533,-0.3986204833222539,left,0.0017804503440856,-0.836878330862305,-0.1901237817965447,-6.56558659632504,-0.4008675384085317,0.0263496786355972,-0.0003392808139324,7.2819853921532625,-0.0044261217117309
2025-04-30 01:18:07.635194400,13.2331943359375,-0.0262332413720972,0.0172143299132585,0.0682258681271409,0.0678474009037017,-0.1747362150518205,0.8968943503877612,-0.3964858564710475,left,0.0118243098258972,-0.8364059197350537,-0.1723791219977662,-6.569516921511292,-0.4004910614602867,0.0343806892633438,0.0036119669675827,7.278881580919027,-0.0062659978866577
2025-04-30 01:18:07.799511000,13.397510986328124,-0.0267205678168974,0.0487640760838985,0.067431856334131,-0.0628374889492988,-0.1734030075367743,0.8971941832130635,-0.3937094640593159,left,-0.0142794968560338,-0.8361951388324205,-0.175621574517712,-6.570965366753936,-0.4005333364247357,-0.0125896483659744,0.0104191955178976,7.27749626404047,-0.0041842116042971
2025-04-30 01:18:07.839511000,13.437510986328125,-0.0257689195207465,0.039466768503189,0.0673657619552876,-0.0043040141463279,-0.1722263993284034,0.8972078960947781,-0.3907681260956513,left,-0.0151423811912536,-0.8372471501851788,-0.1691708822746761,-6.563472380650043,-0.4010210753545914,-0.0268553756177425,0.020480703562498,7.284407650864124,-0.0118984580039978
2025-04-30 01:18:07.879511000,13.477510986328124,-0.0250257780401582,-0.0138349719345569,0.0675715215681566,-0.0127464365214109,-0.1718728961741697,0.8970984657244772,-0.3897355638480069,left,-0.0004220008850097,-0.8381203279278011,-0.1641340206186287,-6.557234947565197,-0.401382788677257,-0.0227493830025196,0.0203906055539846,7.2901377189487215,-0.0140723586082458
2025-04-30 01:18:07.919511000,13.517510986328125,-0.0281886163018251,-0.0190610103309154,0.0667006640066458,-0.0161189325153827,-0.1721987535511463,0.8968030413553678,-0.3919850820237099,left,-0.0004460215568542,-0.8391690580041273,-0.1846570773558691,-6.549037612584233,-0.4020485348551909,-0.0271464213728904,0.0097555294632911,7.297012280893325,-0.0085965991020202
2025-04-30 01:18:07.959511000,13.557510986328126,-0.03135863854298,-0.024287050589919,0.0658297129076038,-0.0194914303719997,-0.1725243510722332,0.8965062908754547,-0.394242058800538,left,-0.0004738569259643,-0.8402128026629188,-0.2051777777392417,-6.540803452724218,-0.4027136738045234,-0.0315434597432613,-0.0008797608315944,7.303847095349431,-0.0031167268753051
2025-04-30 01:18:07.999511000,13.597510986328125,-0.0345359118999756,-0.0295130908489227,0.0649586532183919,-0.0228639282286167,-0.1728497100751929,0.8962082958330527,-0.3965066289568043,left,-0.00050550699234,-0.8412517052795678,-0.2256964870949275,-6.532530714419484,-0.4033782312467734,-0.0359404981136322,-0.0115152858197689,7.310641577795147,0.0023671984672546
2025-04-30 01:18:08.160220200,13.75822021484375,-0.0289365789473398,0.0917718186974525,0.0666457799744474,0.0020865220576524,-0.1695439713153345,0.894674625265161,-0.3876932442649373,left,-0.0073958518914878,-0.8517713416482606,-0.1868798497055657,-6.456459282130003,-0.4078854370670797,-0.1942948251962661,-0.0108266388997435,7.378996736618876,-0.0393269136548042
2025-04-30 01:18:08.200220200,13.79822021484375,-0.0258439081872982,0.074957475066185,0.0681036139085712,0.0062256040982902,-0.1678728045015769,0.8928475256555225,-0.3835837827278268,left,-0.0091974139213562,-0.861983211890955,-0.1649554200041108,-6.381342958608269,-0.4123153634650511,-0.302459716796875,-0.0065125524997711,7.444570740291476,0.0100922584533691
2025-04-30 01:18:08.240220200,13.83822021484375,-0.0235673034958171,0.0240553319454193,0.0694614288036312,-0.0077473535202443,-0.1665014575876421,0.8907791705693283,-0.380562268214857,left,-0.0087498426437377,-0.8729109567806016,-0.1485011836083606,-6.299992709133028,-0.4170909718806803,-0.2301227748394012,-0.0072540873661637,7.513881592404842,-0.0011627674102783
2025-04-30 01:18:08.280220000,13.878219970703125,-0.0246782956676996,-0.0028991606086492,0.0697043157617886,0.0012523946352303,-0.1665237685933296,0.8895557570147533,-0.3817105021972371,left,-0.0082350969314575,-0.8785429164130427,-0.1544536440056748,-6.257419057297707,-0.4196447620033073,-0.1569687724113464,-0.0041126813739538,7.549253934559226,0.0053650140762329
2025-04-30 01:18:08.320220000,13.918219970703126,-0.0258071497714606,-0.0298536550253629,0.0699466132908438,0.0102521423250436,-0.1665447338413052,0.8883252022785061,-0.3828765066946949,left,-0.0077406167984008,-0.8841740152932835,-0.1604177583081647,-6.214645498976111,-0.4221951339628725,-0.0838147699832916,-0.0009700525552034,7.584380777519941,0.011917769908905
