time,seconds_elapsed,roll,rotationRateZ,quaternionY,rotationRateY,quaternionZ,quaternionW,yaw,devicelocation,accelerationZ,pitch,gravityX,gravityZ,quaternionX,rotationRateX,accelerationX,gravityY,accelerationY
2025-04-30 01:18:56.892334300,0.495334228515625,1.5528262435108695,0.012847788631916,0.693917850264825,-0.0032511227764189,1.9803293760820448e-19,0.7133696567248827,-0.1376271110642766,left,-0.6487781405448914,0.140114653068776,9.708975807711482,-0.1744876568506471,0.0978851873730554,-0.0266076177358627,-1.0323119163513184,-1.3695640136301517,0.8756377696990967
2025-04-30 01:18:56.932334000,0.535333984375,0.293284280346158,-0.0151713714003562,0.2389425125869117,0.0014647445641458,-0.321354219753912,0.8594819890220731,-0.5951903396603918,left,0.0079250931739807,-0.7749386717518995,2.02556416259706,-6.707315618917345,-0.3176924574445612,0.0013311877846717,-0.2529211044311523,6.861442350789904,0.0352832674980163
2025-04-30 01:18:56.972334000,0.575333984375,0.0679995992292255,-0.0133480662479996,0.1752770286698507,0.0062844143249094,-0.3498121804571482,0.8476379837098723,-0.7532923412029884,left,0.0045607089996337,-0.8185283070344057,0.4553049600018188,-6.6853627303063865,-0.3583563683198688,-0.0083377948030829,-0.0965765640139579,7.160238834881782,0.0116789937019348
2025-04-30 01:18:57.012334000,0.615333984375,-0.0347672704354611,0.0234632939100265,0.1469039433709536,0.0027538374997675,-0.361659434936056,0.8411768962005663,-0.8273574133550977,left,0.0113488435745239,-0.8268978641091912,-0.2308312013685703,-6.636673225939274,-0.3742232317900884,-0.0368859954178333,-0.0279001798480749,7.216070612218975,0.0129250288009643
2025-04-30 01:18:57.052334000,0.655333984375,-0.0523312431605952,0.0371134728193283,0.142164837461321,0.0001325635239481,-0.3632483053972278,0.8399027410331948,-0.8394186309626513,left,0.0010672807693481,-0.8288863261085386,-0.3466047486450523,-6.617253070676326,-0.3773633651706667,-0.0398408137261867,-0.0109814740717411,7.229260933181643,0.0064550042152404
2025-04-30 01:18:57.092334000,0.695333984375,-0.0620527860852933,0.0403516739606857,0.1398746974964056,0.0210029035806655,-0.3638220370494275,0.8388875188710978,-0.8458420223540853,left,-0.0011163353919982,-0.8318707604024901,-0.4095774837780743,-6.592007570260763,-0.3799160202341445,-0.0294274743646383,-0.0008623264729976,7.249004329049587,-1.03712081909e-05
2025-04-30 01:18:57.132334300,0.735334228515625,-0.0660210419204306,0.0301475804299116,0.1390393387286883,0.0182145331054925,-0.3639235713290558,0.8383849190220071,-0.8483108371498717,left,-0.0022947788238525,-0.8337228360907104,-0.4348464746670797,-6.576922813853621,-0.3812325958823983,-0.029903158545494,0.0054230168461799,7.261224343675375,-0.0051469802856445
2025-04-30 01:18:57.172334000,0.775333984375,-0.0654109794656788,-0.0045362655073404,0.1391431650661219,-0.0020913071930408,-0.3636995269318887,0.8384876127596858,-0.8475018172554339,left,0.0021729469299316,-0.8337347380696772,-0.430828434664756,-6.577101093029976,-0.3811827906991746,-0.0311281867325305,-0.0013418234884738,7.261303254130482,-0.0043110847473144
2025-04-30 01:18:57.212334000,0.815333984375,-0.0652188999945705,-0.0225921384990215,0.1393582586257126,0.008469003252685,-0.3638041744432759,0.8383487502769291,-0.8477647055315195,left,-0.0009501576423645,-0.8341702433520423,-0.429358983166702,-6.574027092412114,-0.3813097531211487,-0.0245803706347942,-0.0011208355426788,7.2641726720869535,-0.0006566047668457
2025-04-30 01:18:57.252334000,0.855333984375,-0.065771671916164,-0.0403808020055294,0.1395750636559678,0.0266015008091926,-0.3645424975302134,0.8379609160751005,-0.8498406798359318,left,8.33272933959e-05,-0.8344411752561711,-0.4328634476236999,-6.571824613931775,-0.3813777160992748,-0.0094474935904145,0.0020121224224567,7.265957217416167,0.0001087188720703
2025-04-30 01:18:57.292334000,0.895333984375,-0.0670558650882622,-0.0432299934327602,0.1395631442448351,0.0280804727226495,-0.3657440196412516,0.837542029668974,-0.8531648974796611,left,-0.0033178925514221,-0.8338881632953179,-0.4415717278014868,-6.575270954993367,-0.3811516439495347,0.0090488465502858,0.0024818666279315,7.26231389247775,0.0037773847579956
2025-04-30 01:18:57.332334000,0.935333984375,-0.0683366312226613,-0.0460791811347007,0.1395509729342547,0.0295594446361064,-0.3669450005524502,0.8371217651747185,-0.8564862638473498,left,-0.006718099117279,-0.8333322837185494,-0.4502683540740981,-6.5787260638833045,-0.3809249205268111,0.0275451876223087,0.0029504634439945,7.258649524751305,0.007448136806488
2025-04-30 01:18:57.372334300,0.975334228515625,-0.0672521001158893,-0.0016558580100536,0.1400519971633533,0.0416278541088104,-0.3676326992515655,0.8369920735607079,-0.8574689949175206,left,0.0015509128570556,-0.8326188160586423,-0.4434811416193843,-6.584376052469015,-0.380362518796356,0.0278521198779344,-0.0022135637700557,7.253942954495549,0.0146892070770263
2025-04-30 01:18:57.412334000,1.015333984375,-0.0650162783935076,0.0243243016302585,0.1406792671583976,0.0509526208043098,-0.3677110363746162,0.8371259816287695,-0.8564942559967526,left,-0.0002781152725219,-0.8319900072631857,-0.4290548491209745,-6.589901537892222,-0.379760210794729,0.0322803370654583,0.0041846372187137,7.249792264556884,0.0124815106391906
2025-04-30 01:18:57.452334000,1.055333984375,-0.0615555141647074,0.0232874359935522,0.1416597931904258,0.0550229363143444,-0.3677138837684915,0.8373271282971833,-0.8547666690430044,left,0.0026402473449707,-0.8312714896599304,-0.4065666115242987,-6.5965452136904,-0.3789488630104655,0.0379304401576519,0.012294128537178,7.24504536229074,0.0038727521896362
2025-04-30 01:18:57.492334000,1.095333984375,-0.0596951565171717,0.0039131548255681,0.1421601737587945,0.0370061174035072,-0.3680896168356587,0.8374514988348979,-0.8545445624058403,left,0.0022948384284973,-0.8300591260667197,-0.3948177215415984,-6.606053631269932,-0.3781209453168698,0.0396688804030418,0.0122908242046833,7.237027475529909,0.002240240573883
2025-04-30 01:18:57.532334000,1.135333984375,-0.0578377663718936,-0.0154611244797706,0.142660376858856,0.0189893003553152,-0.3684649766360207,0.8375749254664876,-0.8543261878360713,left,0.0019465088844299,-0.8288464595266889,-0.3830540358485654,-6.6155316537112,-0.3772926216769995,0.041407324373722,0.0122860148549079,7.228996729287505,0.0006090402603149
2025-04-30 01:18:57.572334000,1.175333984375,-0.057136206786931,-0.009913039393723,0.1427487272973505,-0.0011429674923419,-0.3686267750159144,0.8377139301991341,-0.8541872740395797,left,0.0043219327926635,-0.8279260317660433,-0.3787925424791872,-6.6224389488816255,-0.3767921753818162,0.0369649715721607,0.0082223527133464,7.222894320759177,0.0012856721878051
2025-04-30 01:18:57.612334000,1.215333984375,-0.0567149179493604,-0.0095941983163356,0.1426313258270345,-0.019970029592514,-0.3685686256799639,0.8379587736474595,-0.8536373361630136,left,0.0024635791778564,-0.82694859508292,-0.3764025786027312,-6.629643765693903,-0.3763489183401128,0.0177090130746364,0.0014952048659324,7.216407296827435,0.0021166801452636
2025-04-30 01:18:57.652334300,1.255334228515625,-0.0567149179493604,-0.0083828624337911,0.1426313258270345,-0.0141696520149707,-0.3685686256799639,0.8379587736474595,-0.8536373361630136,left,-0.0017359256744384,-0.82694859508292,-0.3764025786027312,-6.629643765693903,-0.3763489183401128,0.0195543654263019,-0.0001453757286071,7.216407296827435,0.0008962750434875
2025-04-30 01:18:57.692334000,1.295333984375,-0.0568942369173621,-0.00948585011065,0.1423190283024209,-0.0018313806504011,-0.368599067058896,0.8381888673134201,-0.8535365932625238,left,-0.0029186606407165,-0.8258277286367289,-0.3780511129947379,-6.637647623929381,-0.3759247432433528,0.031042056158185,0.0028812289237976,7.208959903430938,-0.0006895065307617
2025-04-30 01:18:57.732334000,1.335333984375,-0.0573036914396023,-0.0161595456302166,0.141939793083957,-0.0034063346683979,-0.3688875686093475,0.8383994109700471,-0.8540540787657012,left,0.0064818859100341,-0.8242626935880097,-0.3814145250132307,-6.648747110092639,-0.375314927276189,0.0292935539036989,0.0042954571545124,7.198546061444282,-0.0054994821548461
2025-04-30 01:18:57.772334000,1.375333984375,-0.0587570940571928,-0.0459592752158641,0.1413719993680332,-0.0252886340022087,-0.3693917584693686,0.8384416531144725,-0.8556152272346783,left,0.008014976978302,-0.8229749395520767,-0.391621519316174,-6.657434858939051,-0.3749389435423802,0.0198791269212961,-0.0047648847103118,7.189964111059903,-0.0068365931510925
2025-04-30 01:18:57.812334000,1.415333984375,-0.0612340213753345,-0.0419569388031959,0.1406045138382229,-0.0240046810358762,-0.3698929975972618,0.8383378243906323,-0.8577648182032105,left,-0.0038365721702575,-0.8222995960009593,-0.4084073074875399,-6.661289196279645,-0.3749654732339113,0.0155898742377758,-0.010501068085432,7.185458616334199,0.001846969127655
2025-04-30 01:18:57.852334000,1.455333984375,-0.062503887545539,-0.006923858076334,0.1402562664818413,0.0133237931877374,-0.3703414711136485,0.8382359936625126,-0.859284917307066,left,-0.0128633975982666,-0.8217852336687738,-0.4170967368343845,-6.664452628746629,-0.3748808025869516,0.0095730740576982,-0.0059406459331512,7.182025134754181,0.0054747462272644
2025-04-30 01:18:57.892334300,1.495334228515625,-0.0621911602361103,-0.0029498431831598,0.1403877279244025,0.0128281833603978,-0.3705718954643494,0.838207740025101,-0.8596217838380242,left,0.000992476940155,-0.8214662960394777,-0.4151549185842275,-6.666869042238592,-0.3746671969049915,0.010140748694539,-0.0031610056757926,7.179894552466273,-0.0011446475982666
2025-04-30 01:18:57.932334000,1.535333984375,-0.0635738785887891,-0.0108323087915778,0.1397762627002643,-0.0315772257745265,-0.370766022734071,0.8383171472101086,-0.8604782619242314,left,0.0018935203552246,-0.8204885893745738,-0.4248187093885615,-6.673291184240579,-0.3744588146494397,0.0241744276136159,-0.0047258138656616,7.1733607667833565,-0.0042612552642822
2025-04-30 01:18:57.972334000,1.575333984375,-0.0648900541498579,0.0089946938678622,0.1389997519400065,-0.0204305797815322,-0.3706353503809094,0.8386081490618218,-0.8604892384417953,left,-0.0079108476638793,-0.81933718603408,-0.4341368285603821,-6.680963618564605,-0.3742254595233265,0.0184132829308509,-0.0028103403747081,7.165656768277287,-0.0031773447990417
2025-04-30 01:18:58.012334000,1.615333984375,-0.0650930654752585,0.0093067148700356,0.1387939293111108,-0.0136079397052526,-0.3704408692362117,0.8387374980412348,-0.8600673500734766,left,-0.0031361579895019,-0.8191254739501126,-0.4355918131416663,-6.682389267453551,-0.3742047087588748,0.0050782011821866,-0.0013836920261383,7.164238718172907,-0.0054933428764343
2025-04-30 01:18:58.052334000,1.655333984375,-0.0657365551646634,-0.0128449508920311,0.1385829474943135,-0.0052531128749251,-0.370401540132875,0.8387257891814178,-0.8602824976384612,left,-0.0022812485694885,-0.8192199724693431,-0.4398473151616752,-6.681432405120134,-0.3743480823832194,-0.0133355529978871,-0.0006375201046466,7.164871755379438,-0.0051482915878295
2025-04-30 01:18:58.092334000,1.695333984375,-0.0666626473675225,-0.0175657179206609,0.1384017263991187,-0.0079763047397136,-0.3705929412771607,0.8385887943171341,-0.861194941368552,left,-0.0028998255729675,-0.8194040289005411,-0.445946910678409,-6.679706311979889,-0.3745326161712967,-0.0105530526489019,-0.0041635446250438,7.166103927522897,4.67896461486e-05
2025-04-30 01:18:58.132334300,1.735334228515625,-0.0666626473675225,0.0081514958292245,0.1384017263991187,0.0095664616674184,-0.3705929412771607,0.8385887943171341,-0.861194941368552,left,-0.0051321983337402,-0.8194040289005411,-0.445946910678409,-6.679706311979889,-0.3745326161712967,-0.00477612670511,-0.0008984431624412,7.166103927522897,0.0068022012710571
2025-04-30 01:18:58.172334000,1.775333984375,-0.0666626473675225,0.0107579845935106,0.1384017263991187,0.0103261498734354,-0.3705929412771607,0.8385887943171341,-0.861194941368552,left,0.001222550868988,-0.8194040289005411,-0.445946910678409,-6.679706311979889,-0.3745326161712967,0.0104093737900257,0.0025515183806419,7.166103927522897,-0.0031667351722717
2025-04-30 01:18:58.212334000,1.815333984375,-0.0666626473675225,-0.0117385368794202,0.1384017263991187,7.87982717156e-05,-0.3705929412771607,0.8385887943171341,-0.861194941368552,left,0.0021295547485351,-0.8194040289005411,-0.445946910678409,-6.679706311979889,-0.3745326161712967,0.0082268184050917,0.0037689320743083,7.166103927522897,-0.005246877670288
2025-04-30 01:18:58.252334000,1.855333984375,-0.0678083802104859,-0.027066446840763,0.1381401850792961,-0.0165838599205017,-0.3709701902608643,0.8384473086050674,-0.8625626338848265,left,0.0038632154464721,-0.819214880349279,-0.4536915699884295,-6.680542178282141,-0.3745722547097431,-0.0042850440368056,0.0005729831755161,7.1648378531098365,-0.0002188086509704
2025-04-30 01:18:58.292334000,1.895333984375,-0.0695666428732581,-0.0085349138826131,0.1377494241301043,-0.0169642101973295,-0.371221172485588,0.8382335505456666,-0.8640309900096593,left,-0.0002943873405456,-0.8195740607679801,-0.4652580891415476,-6.677166564369201,-0.374945725302945,-0.0109691647812724,-0.0046445690095424,7.1672419916421175,0.0060128569602966
2025-04-30 01:18:58.332334000,1.935333984375,-0.06966455046874,0.0297852400690317,0.1376780542161736,-0.0042410288006067,-0.3709518191351911,0.838277785781774,-0.8635113113840274,left,-0.0054863095283508,-0.8199129908952394,-0.4657427673859521,-6.674698128429055,-0.3751397381855706,0.0015442324802279,-0.0030589997768402,7.169510521095991,0.0070933103561401
2025-04-30 01:18:58.372334300,1.975334228515625,-0.0683392892625299,0.0446341969072818,0.1378605532962206,-0.0082471184432506,-0.3702289133251695,0.838560353557997,-0.8612532640676956,left,0.0041284561157226,-0.8201681269493367,-0.4567716715535149,-6.673484076464176,-0.3751552233652862,0.0012940985616296,-5.54770231246e-05,7.171217325013876,0.0006041526794433
2025-04-30 01:18:58.412334000,2.015333984375,-0.0681267367403408,0.0230560731142759,0.1377318965557253,-0.017326183617115,-0.3698071804000034,0.838759605627244,-0.8601416181278808,left,0.0010199546813964,-0.8201213257685986,-0.45537608900927,-6.673916038140654,-0.3751731142645595,0.0061608189716935,0.0027681961655616,7.170904021281004,-0.0028414726257324
2025-04-30 01:18:58.452334000,2.055333984375,-0.0688056988220891,0.0049850456416606,0.137261540636201,-0.028621757403016,-0.3695101056498284,0.8389800057808051,-0.8596312158134597,left,-0.001840054988861,-0.8196655656084706,-0.4601319052342325,-6.676864366552233,-0.3751451604968159,0.0174974650144577,-0.0043707825243473,7.1678545705825085,-0.0026413202285766
2025-04-30 01:18:58.492334000,2.095333984375,-0.0685820743194729,0.0270623825490474,0.1370980290990471,0.0080831330269575,-0.3692026836616717,0.8392098085371055,-0.8587010678012651,left,-0.01255464553833,-0.8192450454413741,-0.4588452994897961,-6.679973438483477,-0.3749936240412543,0.00587809830904,-0.0014314763247966,7.165039513161778,0.0035390257835388
2025-04-30 01:18:58.532334000,2.135333984375,-0.0672228698201011,0.021804641932249,0.1374518064230256,0.0160486921668052,-0.3689460343212999,0.8393308082866873,-0.8574938556940921,left,-0.0006700158119201,-0.8192947553190291,-0.4497415902536362,-6.680237057855725,-0.3748461935815201,-0.0014399671927094,0.0004700720310211,7.1653726906389,-0.0006917715072631
2025-04-30 01:18:58.572334000,2.175333984375,-0.0672228698201011,-0.0111420266330242,0.1374518064230256,0.0022012405097484,-0.3689460343212999,0.8393308082866873,-0.8574938556940921,left,0.00798761844635,-0.8192947553190291,-0.4497415902536362,-6.680237057855725,-0.3748461935815201,0.0014092540368437,0.0015118196606636,7.1653726906389,-0.0046498179435729
2025-04-30 01:18:58.612334000,2.215333984375,-0.0678983274134058,-0.0301113910973072,0.1373356808035451,-0.0008534591179341,-0.3693017014002281,0.8392085200897956,-0.8585968010612306,left,0.0017243027687072,-0.8190944287020193,-0.4543510202778503,-6.6813628470152615,-0.3748121675653011,0.0042514577507972,0.0010535418987274,7.164031212902069,-0.0023444294929504
2025-04-30 01:18:58.652334300,2.255334228515625,-0.0690264953387407,-0.0229811165481805,0.1371813101386154,0.0089144501835107,-0.3698954787082415,0.8389679677838541,-0.8604767478278952,left,-0.0032674074172973,-0.8189249869023808,-0.4619721262734383,-6.68205667449832,-0.374821531955277,0.0066366670653223,0.0017798021435737,7.162896071392297,0.0027459263801574
2025-04-30 01:18:58.692334000,2.295333984375,-0.0695062889058412,-0.0148598672822117,0.1372104106674751,0.0072696786373853,-0.3703881127145247,0.8387707660938588,-0.8618367628063858,left,-0.0025150179862976,-0.8188008260451225,-0.4652398228324949,-6.682720691365003,-0.3747656795093411,-0.0022488962858915,0.005471970885992,7.1620642967432735,-0.0022577047348022
2025-04-30 01:18:58.732334000,2.335333984375,-0.0704871741691137,-0.0192403569817543,0.1369515498813031,-0.0185720846056938,-0.3705866420221306,0.8386856899490543,-0.8627308587172805,left,-0.001538872718811,-0.8187248734209075,-0.4718329374872148,-6.682804862517118,-0.3748546652940551,-0.0006817005341872,0.0010739266872406,7.161555762699246,-0.0056291818618774
2025-04-30 01:18:58.772334000,2.375333984375,-0.0721858491310012,-0.0014557931572198,0.1363864926908639,-0.0270526222884655,-0.3705934484170987,0.8386564067945645,-0.8635083573384738,left,-0.0034697651863098,-0.8187323640661169,-0.4831802974643185,-6.6819397701203815,-0.3751193862091501,-0.0079277707263827,-0.0047404207289218,7.161606031581759,-0.0035773515701293
2025-04-30 01:18:58.812334000,2.415333984375,-0.0728863421414149,0.0352381467819213,0.1360327106919943,-0.0325379930436611,-0.3699725265334389,0.8387776338213129,-0.862495090327274,left,-0.0030663609504699,-0.8193887700687744,-0.4875183997338637,-6.676909959259629,-0.375589394861522,-0.0228582248091697,-0.009494811296463,7.1660016361922025,-0.0035687685012817
2025-04-30 01:18:58.852334000,2.455333984375,-0.0722351526052947,0.0516378730535507,0.1360945686612686,-0.0228123068809509,-0.369166105248877,0.8389585800351004,-0.8604790060743477,left,-0.0053046941757202,-0.8202351187803241,-0.4827324440989643,-6.671174045956135,-0.3759561102477808,-0.029361680150032,-0.0105361379683017,7.171665653303265,-0.0035123229026794
2025-04-30 01:18:58.892334300,2.495334228515625,-0.0707578997190048,0.049539778381586,0.1364144301341893,-0.008917735889554,-0.3680012331405104,0.8391787746025805,-0.8573758937260477,left,-0.0074235796928405,-0.8216739967090522,-0.4721468622745945,-6.661579703658819,-0.3764903873442147,-0.0307800434529781,-0.0095259025692939,7.181282207432389,-0.0072778463363647
2025-04-30 01:18:58.932334000,2.535333984375,-0.0693583670040735,0.0207236800342798,0.1368743460910031,0.0179384984076023,-0.3672230814792728,0.8392311135463975,-0.8552222695650921,left,-0.0064652562141418,-0.8230901232244783,-0.4621180375501513,-6.652082391995191,-0.3769662698744501,-0.0289661698043346,-0.0034817978739738,7.190732172822952,-0.0074533820152282
2025-04-30 01:18:58.972334000,2.575333984375,-0.0689245953161559,-0.0081972014158964,0.1372823650225207,0.028066948056221,-0.3673312009869381,0.838995344247672,-0.85549225191405,left,-0.0023044347763061,-0.8239828336238713,-0.4587902813669294,-6.645875938570499,-0.3772374956238744,-0.0351219661533832,-0.0007651448249816,7.196682021138072,-0.0072548985481262
2025-04-30 01:18:59.012334000,2.615333984375,-0.0691021333216526,-0.0267232600599527,0.1378034556734418,0.028068296611309,-0.3679342713381898,0.8384476497923421,-0.8573093126677039,left,0.0011574029922485,-0.825269004692076,-0.4593306718539446,-6.636554567995667,-0.3776771648947959,-0.0411544889211654,0.0017282254993915,7.205244097778201,-0.0015328526496887
2025-04-30 01:18:59.052334000,2.655333984375,-0.0696445915752697,-0.0193118341267108,0.1384056517686624,0.0185240041464567,-0.3686271185296878,0.8377080693178783,-0.859663898467954,left,0.0019416809082031,-0.8272222892216257,-0.4619503893656655,-6.622251901876926,-0.3784216644506948,-0.0543037801980972,0.0023531094193458,7.218224575382471,0.003853440284729
2025-04-30 01:18:59.092334000,2.695333984375,-0.0696167586529244,0.0011022128164768,0.1388813725063056,0.0172405019402503,-0.368780814784111,0.8372803345631323,-0.8604041478127461,left,-0.0007293820381164,-0.8288658321759136,-0.4609402259424328,-6.61042117882967,-0.3790438379258365,-0.0587136633694171,0.0032492391765117,7.229125324103236,0.0075789093971252
2025-04-30 01:18:59.132334300,2.735334228515625,-0.0684056981401841,0.0268166828900575,0.1397171128453837,0.0155887827277183,-0.3684556314642891,0.8369120143782344,-0.8596429019399568,left,0.0015502572059631,-0.8312689035785403,-0.4517455504871904,-6.593624357807636,-0.3798655080022656,-0.0698236897587776,0.000442337244749,7.245027826634049,0.0031377077102661
2025-04-30 01:18:59.172334000,2.775333984375,-0.0657714215383743,0.0431191734969615,0.1410472644186642,0.0305572785437107,-0.3676688210655798,0.8365488543549022,-0.8573561326834891,left,-0.0083913207054138,-0.8346452122138908,-0.432764371163398,-6.570345189028978,-0.3809347017025533,-0.075061485171318,0.0016529187560081,7.267301033240556,0.0009900331497192
2025-04-30 01:18:59.212334000,2.815333984375,-0.0630529904096067,0.0356085859239101,0.142360491167874,0.0390997119247913,-0.3671320807668777,0.836213649573505,-0.8554723979596989,left,-0.0030922293663024,-0.8373831683290416,-0.4136464137174189,-6.551614185073971,-0.3816989403126956,-0.0816428959369659,0.0047129653394222,7.285301969355344,-0.0039590001106262
2025-04-30 01:18:59.252334000,2.855333984375,-0.0607509461760126,0.0090143419802188,0.1437253272331136,0.0279309377074241,-0.3667837499327826,0.8356873421633318,-0.8543281018664202,left,0.0028784871101379,-0.8405703768399271,-0.3971514982514083,-6.529339809423685,-0.3826739038184181,-0.0790276601910591,0.0053024254739284,7.306188105517625,-0.0095593333244323
2025-04-30 01:18:59.292334000,2.895333984375,-0.0600352638437016,-0.0094857271760702,0.1447848887132574,0.010391280055046,-0.3667240007431898,0.8349290845710773,-0.8546845348472248,left,0.0032381415367126,-0.8441278108146205,-0.3909164763193577,-6.503636043846607,-0.3839845521509319,-0.082259863615036,0.0018328055739402,7.329412329238653,-0.0017153024673461
2025-04-30 01:18:59.332334000,2.935333984375,-0.0597767365370758,0.0124730374664068,0.1455092789274052,0.0111758382990956,-0.366517108825211,0.8343362312068006,-0.8547862057282158,left,-0.0008925199508666,-0.8471970765472796,-0.3878893470505252,-6.48125060903728,-0.3851950027300069,-0.0970468074083328,0.0003942400217056,7.349375505337119,0.008325457572937
2025-04-30 01:18:59.372334300,2.975334228515625,-0.0578658532210616,0.0424511395394802,0.1467800962087139,0.0189201049506664,-0.3657795534123627,0.8337564282607112,-0.8530966698088174,left,-0.0046324133872985,-0.8513186195411089,-0.3737487761583179,-6.451685491856932,-0.3866667053331724,-0.088670939207077,-0.0025800727307796,7.3760735426485535,0.0104106664657592
2025-04-30 01:18:59.412334000,3.015333984375,-0.0540857580283542,0.0581211820244789,0.1485319613063479,0.0278847813606262,-0.3646589702285576,0.833306534025411,-0.8496650673911649,left,-0.000290036201477,-0.8556729468601256,-0.3476186018627136,-6.420920351237058,-0.3880236713100615,-0.0897232070565223,-0.0027937442064285,7.404142868313193,0.0062441229820251
2025-04-30 01:18:59.452334000,3.055333984375,-0.0506054608330289,0.0670966506004333,0.1502039581377169,0.0542803779244422,-0.3637973616871376,0.8328202237077084,-0.8468904913751499,left,-0.0065293312072753,-0.8596383945487306,-0.3237820914622396,-6.39271833910346,-0.3892310504606237,-0.128632366657257,0.0001520588994026,7.4295841835618015,0.0088376402854919
2025-04-30 01:18:59.492334000,3.095333984375,-0.0451293740853039,0.0505086407065391,0.1530237839523148,0.067789115011692,-0.3628446639091938,0.8318476714634497,-0.8434857077443348,left,-0.0004358887672424,-0.8659545351613228,-0.2866475071419961,-6.347389251080155,-0.3910970493806786,-0.1543533951044082,6.33616000413e-05,7.469864756023884,0.0039700865745544
2025-04-30 01:18:59.532334000,3.135333984375,-0.0412927763403417,0.0359929502010345,0.1552211992871265,0.0728097558021545,-0.3623763835835719,0.8309317595359977,-0.8416985587812184,left,0.0017287731170654,-0.8709792270782842,-0.2607403279473073,-6.310859555584192,-0.3926092611663075,-0.1537988781929016,0.0015473775565624,7.501696064570545,-0.0024787783622741
2025-04-30 01:18:59.572334000,3.175333984375,-0.037085010743501,0.0230864770710468,0.1578900452170298,0.0701089575886726,-0.3620393012758036,0.8296534297454021,-0.840329268767664,left,0.0040938258171081,-0.8772942777756153,-0.2324223795501515,-6.264434489017725,-0.3945546893192665,-0.1532059609889984,0.0017451904714107,7.541433616197109,-0.0053941011428833
2025-04-30 01:18:59.612334000,3.215333984375,-0.0324171981992343,0.0142444651573896,0.1611496041753515,0.0480978488922119,-0.3615891682734271,0.827899119684924,-0.83894766178717,left,-0.0014190077781677,-0.8858130719723443,-0.2010891384524293,-6.20101444850862,-0.397324820669497,-0.1576515585184097,0.000319181010127,7.594561979794502,-0.007010281085968
2025-04-30 01:18:59.652334300,3.255334228515625,-0.0304287628979452,-0.0102733764797449,0.1631359450692928,0.0292748343199491,-0.3613731048174778,0.8265319975241423,-0.8388957068621523,left,-0.0009779334068298,-0.8920954971204119,-0.1873030983526259,-6.153589849510788,-0.3995508265698029,-0.1524971574544906,0.0018054842948913,7.633389430838823,-0.0041342377662658
2025-04-30 01:18:59.692334000,3.295333984375,-0.0309206374305154,-0.0320916175842285,0.1642198099357028,0.0087965130805969,-0.3614652503631445,0.8252768230194455,-0.8405322802088706,left,-0.0005452036857604,-0.8972313177458501,-0.1891153719389811,-6.114231068068743,-0.4016127322907374,-0.1210574358701706,-0.0020334869623184,7.6649068511307235,0.0001250505447387
2025-04-30 01:18:59.732334000,3.335333984375,-0.0324029472331674,-0.0340214148163795,0.1648248241268596,-0.0007001552730798,-0.3616635804881732,0.8241919498585613,-0.8427000099209273,left,0.0097807645797729,-0.9014009474269624,-0.1971412045442499,-6.081947339579463,-0.403410098550862,-0.1009409725666046,-0.0072383675724267,7.690346412813663,0.0053783655166625
2025-04-30 01:18:59.772334000,3.375333984375,-0.0328876182049878,-0.0003674887120723,0.1655009291366065,0.0297320280224084,-0.3617885737942495,0.8233555359929534,-0.8440030252618292,left,-0.0012048482894897,-0.9046700431463268,-0.199261210639216,-6.056691902291775,-0.404727109488942,-0.0578133352100849,-0.0053856428712606,7.710198529753089,0.0077805519104003
2025-04-30 01:18:59.812334000,3.415333984375,-0.0318479800886721,0.0132036888971924,0.1662008065612459,0.0210131183266639,-0.361730540132045,0.8229761457689581,-0.843753099365194,left,0.0036066770553588,-0.9063922030856956,-0.1925412547344341,-6.043616147619486,-0.405263581868683,-0.0323724970221519,-0.0050729010254144,7.720623477655649,0.0063135623931884
2025-04-30 01:18:59.852334000,3.455333984375,-0.0306960724508795,0.0069523160345852,0.1668291556165014,0.0223466623574495,-0.3616130270356377,0.822700416343817,-0.8432259636279003,left,0.0055968761444091,-0.9077887534027465,-0.185248321247287,-6.033050329941511,-0.4056698296441479,-0.0364469923079013,-0.0021933540701866,7.729060466611385,0.0020819902420043
2025-04-30 01:18:59.892334300,3.495334228515625,-0.0293047907963953,0.0072960271500051,0.1676819599069433,0.036689706146717,-0.3616528816935169,0.822280980120557,-0.8430349450496258,left,0.0007883310317993,-0.9094981751723809,-0.1764670671648345,-6.020086218950152,-0.4061326575519564,-0.0465847738087177,0.0003400966525077,7.739366756570338,0.0049808025360107
2025-04-30 01:18:59.932334000,3.535333984375,-0.0274088152845459,0.0203828550875186,0.1687373937608956,0.0222062431275844,-0.361508459725688,0.8218019550458696,-0.8422821389233621,left,0.0103961825370788,-0.91179964474515,-0.1645642469957471,-6.0025891407042735,-0.4067932609415519,-0.0525804534554481,0.0014029899612069,7.753207065874338,0.0100877285003662
2025-04-30 01:18:59.972334000,3.575333984375,-0.0262117532599001,0.0125150131061673,0.1693755775243113,0.012017692439258,-0.3611837325982933,0.821509408772379,-0.8413249510306394,left,0.0081170201301574,-0.9136335248052416,-0.1570057396412827,-5.988558277264237,-0.4074068840421371,-0.0301044024527072,0.0020402800291776,7.76420659879446,0.0077398419380187
2025-04-30 01:19:00.012334000,3.615333984375,-0.0252932560343533,0.0058607566170394,0.1697897114764326,0.0081242769956588,-0.3610143318590857,0.821367207600898,-0.8406697627897058,left,-0.0014788508415222,-0.9145509303614812,-0.1513249905911274,-5.98157674781382,-0.407671272877424,-0.008838478475809,0.0020508309826254,7.769698766469955,0.004970371723175
2025-04-30 01:19:00.052334000,3.655333984375,-0.0250339171447509,-0.0093031488358974,0.169930907926257,0.0096668945625424,-0.3611127106512326,0.8213126688098605,-0.8407926925496222,left,-0.0050982236862182,-0.914602961996278,-0.1497636230259202,-5.981212006154656,-0.4076352516149152,0.0099733769893646,0.0013775685802102,7.770010316637158,-0.0037395358085632
2025-04-30 01:19:00.092334000,3.695333984375,-0.0250837076928697,-0.0170553512871265,0.1700333184239972,0.0143936546519398,-0.3614588901514102,0.8212160530927968,-0.8416067731095105,left,-0.0034903287887573,-0.914371404786902,-0.1501065638452302,-5.983003565746546,-0.4074804719335972,0.0033870781771838,0.0042227255180478,7.768624415236711,-0.0055882334709167
2025-04-30 01:19:00.132334300,3.735334228515625,-0.0264783569490015,-0.0297017470002174,0.1698208724328317,-0.0070936763659119,-0.3618803159145194,0.8210134258631508,-0.8433352198829495,left,0.0007845759391784,-0.9144137122895232,-0.1584418916579335,-5.9824587913453575,-0.4076031249589736,-0.0032393997535109,0.0002527404576539,7.7688780977368355,-0.0068359971046447
2025-04-30 01:19:00.172334000,3.775333984375,-0.0282321062502954,-0.0241128522902727,0.1695148029074458,-0.0034447943326085,-0.3622656773642888,0.8207884907414714,-0.8451899671458418,left,-0.0046371221542358,-0.9146050667942356,-0.1688914260124787,-5.980686520975828,-0.4078413113002781,-0.0118793500587344,-0.000777319073677,7.770023176118731,-0.0008971095085144
2025-04-30 01:19:00.212334000,3.815333984375,-0.029159352159549,-0.0088550932705402,0.1694222673207405,-0.0014915545471012,-0.3624770760702804,0.8205989863413002,-0.8462550531996147,left,-0.0053881406784057,-0.9149834165352096,-0.1743512075220234,-5.977589139482379,-0.4080733155375517,-0.0101837757974863,-0.0024053025990724,7.7722858603537075,0.003615915775299
2025-04-30 01:19:00.252334000,3.855333984375,-0.029159352159549,0.0047851046547293,0.1694222673207405,0.0020737440790981,-0.3624770760702804,0.8205989863413002,-0.8462550531996147,left,-0.0025956630706787,-0.9149834165352096,-0.1743512075220234,-5.977589139482379,-0.4080733155375517,-0.0124054905027151,-0.0051695276051759,7.7722858603537075,0.0037038922309875
2025-04-30 01:19:00.292334000,3.895333984375,-0.029159352159549,0.0092291235923767,0.1694222673207405,0.0073069212958216,-0.3624770760702804,0.8205989863413002,-0.8462550531996147,left,-0.0013607144355773,-0.9149834165352096,-0.1743512075220234,-5.977589139482379,-0.4080733155375517,0.0021424181759357,-0.005242109298706,7.7722858603537075,0.0019289255142211
2025-04-30 01:19:00.332334000,3.935333984375,-0.0276029411232583,0.00478539429605,0.1699207791591228,0.0310643203556537,-0.3623649208494185,0.8205810539922624,-0.845281354307363,left,0.0001426935195922,-0.9152966005681766,-0.1649802256518043,-5.975418809705972,-0.4080015944815535,0.0080657247453928,0.0013269502669572,7.774158668488264,-0.0004113316535949
2025-04-30 01:19:00.372334300,3.975334228515625,-0.0267717883096241,-0.0292450841516256,0.1703586957014396,0.034081045538187,-0.3628286627600777,0.8204310304081259,-0.845949202474244,left,0.0033648610115051,-0.915086183612876,-0.1600574370957911,-5.9771881574660535,-0.407708312819209,0.0092355525121092,0.0092049995437264,7.772900777381658,-0.0048633217811584
2025-04-30 01:19:00.412334000,4.015333984375,-0.0282952909440874,-0.0597020983695983,0.1703062589474762,0.0006612949073314,-0.3637952764977107,0.8200590780234904,-0.8490008356730261,left,0.0123825073242187,-0.9148208262910622,-0.1692218452769331,-5.978998421758413,-0.4076170293728112,0.003969058394432,0.008387578651309,7.771313800451159,0.0022358894348144
2025-04-30 01:19:00.452334000,4.055333984375,-0.0316758454476262,-0.0356770679354667,0.1696428314390936,-0.0327855162322521,-0.3644840219349897,0.8196965890670989,-0.8523994966671911,left,0.0126634240150451,-0.9149770093115428,-0.1893947368696331,-5.977178805115819,-0.4080072877519162,-0.007742490619421,0.0003229957073926,7.772247866430878,0.0174787044525146
2025-04-30 01:19:00.492334000,4.095333984375,-0.0333770424958109,0.0398700237274169,0.1689625339514907,-0.046129997819662,-0.3640802112163079,0.819819856665582,-0.8523069782807678,left,0.0028299093246459,-0.9151673990727668,-0.1995134501009248,-5.975369709867239,-0.4084024182902086,0.0045739021152257,-0.0082877893000841,7.773385930550098,0.0244215726852417
2025-04-30 01:19:00.532334000,4.135333984375,-0.0305172322744326,0.1204403042793273,0.1689983635692435,-0.0217059645801782,-0.3623768200391908,0.8205892245216984,-0.846731334316731,left,-0.0051400065422058,-0.9151752346670358,-0.182422358840052,-5.975854863035679,-0.408357331514198,0.0044133332557976,-0.0079860277473926,7.773433276823162,0.0179399847984313
2025-04-30 01:19:00.572334000,4.175333984375,-0.023892033602675,0.114949882030487,0.1700581012611351,0.0188951399177312,-0.3602657858348281,0.8214881782124303,-0.8383570035936108,left,-0.005574345588684,-0.9154388145244872,-0.1427784677131567,-5.974883972176909,-0.4079777909903647,0.0028933049179613,0.0006356406956911,7.775008563315868,-0.0003479719161987
2025-04-30 01:19:00.612334000,4.215333984375,-0.0191156138475151,0.0394922122359275,0.1709648686983975,0.0099865477532148,-0.3591208088024167,0.822012915470962,-0.8331958074578755,left,0.0085856318473815,-0.9154197873722614,-0.1142412048763595,-5.975645604199171,-0.4075510268509293,0.0165928807109594,0.0003754710778594,7.774894581547379,-0.0096421837806701
2025-04-30 01:19:00.652334300,4.255334228515625,-0.0179726657599006,-0.0067434273660182,0.1710557316522634,0.0100997863337397,-0.3590636300266152,0.8222889763386751,-0.8322581216753394,left,0.0074401497840881,-0.9143938841392378,-0.1075545667192898,-5.983743570458889,-0.4070059753604437,0.0387363284826278,-0.0053561124950647,7.768759439793229,-0.010055124759674
2025-04-30 01:19:00.692334000,4.295333984375,-0.0178864388792706,-0.0162236019968986,0.1709794656770218,0.0243268050253391,-0.3596062313522594,0.8224421437755269,-0.8331693224394136,left,-0.0050256252288818,-0.9127739611403486,-0.1072635661497712,-5.9963289112657305,-0.4062490287511249,0.0427267961204052,-0.0017791343852877,7.759054038336872,0.0001112818717956
2025-04-30 01:19:00.732334000,4.335333984375,-0.0160121177135502,0.0190952941775321,0.1713561830873375,0.0390117354691028,-0.3600017723472187,0.8226965733839392,-0.8328117302918392,left,-0.0046865940093994,-0.9110194386051336,-0.0962421593245584,-6.010121874296665,-0.4052234856611844,0.0462222322821617,0.0029315799474716,7.748519784840941,0.0054040551185607
2025-04-30 01:19:00.772334000,4.375333984375,-0.0126933235518322,0.0527212247252464,0.17190841712575,0.010453226044774,-0.3598012123708294,0.8231976908741511,-0.8303161823551987,left,0.0087391138076782,-0.9093323380126408,-0.0764611120270798,-6.023470016169548,-0.4041484096853218,0.0352137684822082,-0.0031335139647126,7.738367808660865,-8.35061073303e-05
2025-04-30 01:19:00.812334000,4.415333984375,-0.0101753003420995,0.0578352957963943,0.1720225413918817,-0.014669170603156,-0.3589127874241439,0.8238420327589275,-0.8266925828651547,left,-0.0031245350837707,-0.9082829197213736,-0.0613762414555065,-6.031760874652862,-0.4035764864562173,0.0250970609486103,-0.0014027194119989,7.732042112770676,-0.0073672533035278
2025-04-30 01:19:00.852334000,4.455333984375,-0.0071965783607508,0.047780655324459,0.1724330603921522,0.0142401400953531,-0.3580522730964854,0.8243292100428862,-0.8230478484377715,left,-0.004927635192871,-0.9078312773975692,-0.0434341776547953,-6.035408291244506,-0.4031706830456649,0.0061039235442876,0.0022263922728598,7.729317071720957,-0.0087110996246337
2025-04-30 01:19:00.892334300,4.495334228515625,-0.0047964084609536,0.0198862571269273,0.1729734373854609,0.016954980790615,-0.3576383482167317,0.8245224800695922,-0.8208605372733487,left,0.0031790733337402,-0.9077857829148144,-0.0289497457779594,-6.035847267183661,-0.4029113737348956,0.0007969210855662,0.0033195600844919,7.729042346432805,-0.0085285902023315
2025-04-30 01:19:00.932334000,4.535333984375,-0.0040032698611354,-0.0183862876147031,0.1732720018681593,0.0179551560431718,-0.3578471556745062,0.8244887507470997,-0.8209293117616863,left,0.0034345388412475,-0.9075509914088542,-0.0241697403932339,-6.037683834961056,-0.4026668152505126,0.0054860226809978,0.0025869812816381,7.727624880850315,-0.0070076584815979
2025-04-30 01:19:00.972334000,4.575333984375,-0.0055096439253795,-0.0434450432658195,0.1730968072289746,0.0047030430287122,-0.358555110067879,0.8242312685046816,-0.8233360883340741,left,0.0016103386878967,-0.9073347129674082,-0.0332739222701406,-6.039309974858164,-0.4026392013055658,0.0048990817740559,0.0038524598348885,7.726319058948754,0.0015632510185241
2025-04-30 01:19:01.012334000,4.615333984375,-0.0077615743785771,-0.0450104847550392,0.1727351231903108,0.0081025175750255,-0.3594379968473928,0.823936229439382,-0.8264956180817777,left,-0.0012260675430297,-0.9069488967920012,-0.0468970816921209,-6.042201604646444,-0.4026114577209387,0.0145466513931751,0.0065079028718173,7.723987985652685,0.004219114780426
2025-04-30 01:19:01.052334000,4.655333984375,-0.0098337217454808,-0.033817671239376,0.1722599084422618,-0.007720835506916,-0.3601552158619234,0.8238057490223578,-0.8290790060388007,left,0.005148708820343,-0.9061693867755936,-0.0594764905150979,-6.048109367385506,-0.4024409408408991,0.0206608343869447,0.0050520077347755,7.719275570178032,0.0048258900642395
2025-04-30 01:19:01.092334000,4.695333984375,-0.0117848954351211,-0.0214926823973655,0.1716070157796736,-0.0268774833530187,-0.3605603576144808,0.8238761955730349,-0.8307840904232436,left,0.0048537850379943,-0.9051155066703646,-0.0713731138388393,-6.056113225620985,-0.4022128118974937,0.0314658693969249,0.0016634240746498,7.712897267317771,0.0048235058784484
2025-04-30 01:19:01.132334300,4.735334228515625,-0.0146961918941092,-0.0105990460142493,0.1703515468516012,-0.0301570333540439,-0.360738706905798,0.8242402255501815,-0.8322213224138494,left,2.26497650146e-05,-0.903230910041227,-0.0892173843874596,-6.070403032258152,-0.4018406100194383,0.0417768880724906,0.0002583432942628,7.701469279852509,0.0048454999923706
2025-04-30 01:19:01.172334000,4.775333984375,-0.0175961962667582,0.0002945894375443,0.1690957699229827,-0.033436581492424,-0.3609164027950448,0.8246026508128526,-0.8336462959512798,left,-0.0048138499259948,-0.9013436688485886,-0.1070767292076256,-6.084640231925249,-0.4014676435552316,0.0520879030227661,-0.0011451663449406,7.68999803776741,0.0048718452453613
2025-04-30 01:19:01.212334000,4.815333984375,-0.0190704191332916,0.0068621565587818,0.1681259700755215,-0.0318194068968296,-0.3608292435750776,0.8251165220683687,-0.8337010530029356,left,0.0028296113014221,-0.8993188113049941,-0.1163434287194628,-6.100031862324476,-0.4008971722954237,0.0542393364012241,-0.0041470304131507,7.677659949719906,0.0011550188064575
2025-04-30 01:19:01.252334000,4.855333984375,-0.0198687211182851,0.009960482828319,0.1672723750326941,-0.0244995132088661,-0.3607259933052785,0.8257296443688931,-0.833301630425301,left,9.84668731689e-05,-0.8969082882818316,-0.1215803977911826,-6.118422674539685,-0.4000839423147795,0.0682739987969398,-0.0037602810189127,7.662930582621693,0.0012066960334777
2025-04-30 01:19:01.292334000,4.895333984375,-0.0212198901794451,0.0015472248196601,0.1660998137312726,-0.0330982208251953,-0.3607332268523081,0.826493444478581,-0.8332454571184071,left,0.0015166401863098,-0.8936371682714093,-0.1303784568779636,-6.143280052420496,-0.3989870947141818,0.0808953270316124,-0.001242539845407,7.642871544933318,0.0021265745162963
2025-04-30 01:19:01.332334000,4.935333984375,-0.023288013712432,-0.0270013529807329,0.1647939370934224,-0.0280605927109718,-0.3610561797677128,0.827170348234597,-0.8342421698197792,left,0.0008543729782104,-0.8901237616489809,-0.1437076474552042,-6.1698050712525845,-0.3978321401986565,0.0838017165660858,-0.0015518199652433,7.621236051708459,-0.0031423568725585
2025-04-30 01:19:01.372334300,4.975334228515625,-0.0258230232816642,-0.0404055267572402,0.1636266437362842,-0.0158893000334501,-0.3616964856934225,0.8275604706710395,-0.8363594404483077,left,-0.0005530714988708,-0.887216943493245,-0.1599190332720987,-6.19154110224247,-0.3969200502313544,0.0614546611905097,-0.0046508181840181,7.603264341688155,0.0007737874984741
2025-04-30 01:19:01.412334000,5.015333984375,-0.0277993847935047,-0.0277859326452016,0.1628347413297685,0.0073905996978282,-0.362411056587949,0.8277489390276825,-0.838543630446066,left,-0.0090071558952331,-0.8850313641852967,-0.1726169128090143,-6.207808930954337,-0.3962002227511557,0.0495124459266662,-0.0029023494571447,7.589709279066324,0.0071098804473876
2025-04-30 01:19:01.452334000,5.055333984375,-0.0275564530425099,-0.0082694683223962,0.1627183963092111,0.0374331437051296,-0.3630378177264418,0.827974062556379,-0.8394629976291659,left,-0.009641945362091,-0.8828962951437989,-0.1715549461333081,-6.224035843133926,-0.3952026929345983,0.0573848411440849,0.0060601653531193,7.576433033385872,0.000451385974884
2025-04-30 01:19:01.492334000,5.095333984375,-0.0269942315436253,-0.0214589163661003,0.1627132827052125,0.0188592821359634,-0.3637198727241735,0.8281917507555643,-0.840348689141658,left,0.0048362016677856,-0.880689487112111,-0.1685065000818111,-6.240829741546511,-0.3941200172647926,0.0520442016422748,0.0074104219675064,7.56267397262454,-0.0099358558654785
2025-04-30 01:19:01.532334000,5.135333984375,-0.0284368117594745,-0.045644074678421,0.1622168848269504,-0.0034239646047353,-0.36448044860336,0.8282471578166265,-0.8424887038372482,left,0.0054207444190979,-0.8789800884527771,-0.1778765321039594,-6.253492823764682,-0.3935050475430218,0.0272020678967237,0.0103660803288221,7.551991250568628,-0.0079354047775268
2025-04-30 01:19:01.572334000,5.175333984375,-0.0315923201950394,-0.0552460700273513,0.1614456152482709,-0.0286412611603736,-0.3652757768869756,0.8280159736477666,-0.845775568959151,left,0.0035605430603027,-0.8783880346688194,-0.1977497466303408,-6.257368203893304,-0.3935711919249035,0.0010798871517181,0.003709701821208,7.548285966309905,-0.0010825991630554
2025-04-30 01:19:01.612334000,5.215333984375,-0.0351688058119244,-0.0313912630081176,0.1606105016969403,-0.0335206612944603,-0.3657141839228485,0.8276986051368532,-0.8486352481659817,left,-0.0020133256912231,-0.8788222448461382,-0.2200125962396152,-6.253345524248481,-0.3941729847768444,-0.020220236852765,-0.0028347987681627,7.551003408575058,0.0117732882499694
2025-04-30 01:19:01.652334300,5.255334228515625,-0.0363972245527166,0.0160702466964721,0.1602920380434365,-0.0230319891124963,-0.3654897611268732,0.8276097936718961,-0.8488554838891036,left,-0.001529037952423,-0.8795940385775425,-0.2274820005385205,-6.247244284763932,-0.3946968512310176,-0.0087265241891145,-0.0053353682160377,7.555830390340089,0.009844958782196
2025-04-30 01:19:01.692334000,5.295333984375,-0.0358870769229887,0.0326410382986068,0.1601285303712515,-0.0191242285072803,-0.3648390639409133,0.8279166208233577,-0.8470240905487844,left,-0.0012820363044738,-0.8795244405582787,-0.224313837097492,-6.247885505276918,-0.3947218148624041,0.0127703510224819,-0.0009916331619024,7.555395506054163,-0.0001400709152221
2025-04-30 01:19:01.732334000,5.335333984375,-0.0356800234205767,0.0125831346958875,0.1598194131651572,-0.0256896466016769,-0.3642819854479424,0.8282722383693342,-0.8454726920716914,left,0.0028440952301025,-0.8790556705039093,-0.2231464920848608,-6.251470378026366,-0.3946155371078502,0.009372285567224,0.0003484189510345,7.552464128777384,-0.0064553022384643
2025-04-30 01:19:01.772334000,5.375333984375,-0.0373036830017325,-0.0269722212105989,0.1591811242482068,-0.0305342078208923,-0.3641668700014364,0.8283744741955783,-0.8459061456332,left,0.0006264448165893,-0.8787839128041672,-0.2333729765395633,-6.253149709415435,-0.3947649973792025,0.0053609795868396,-0.0019594654440879,7.550763754600286,-0.0075470805168151
2025-04-30 01:19:01.812334000,5.415333984375,-0.0400378260550033,-0.0223324056714773,0.1584646070137494,-0.0250699110329151,-0.3644285127294,0.8282059008544917,-0.8478745990368426,left,-0.0014246106147766,-0.8789268095532701,-0.250425909480825,-6.251410756793618,-0.3951653857336661,-0.0118175651878118,-0.0086445435881614,7.551657488569616,0.0044347047805786
2025-04-30 01:19:01.852334000,5.455333984375,-0.0413590847364647,0.0204275641590356,0.1580258607067148,-0.0321743190288543,-0.3642018606810748,0.82820472748901,-0.8480482506817136,left,-0.0016716718673706,-0.8793165192950968,-0.2585637145605869,-6.248133342558146,-0.3955523143246232,-0.0077729420736432,-0.0152620356529951,7.5540955293715,0.0088259577751159
2025-04-30 01:19:01.892334300,5.495334228515625,-0.0404326943743761,0.0664580538868904,0.157856202363098,-0.0271524302661418,-0.363235523178146,0.8286406914314102,-0.8452685705137949,left,-0.0019436478614807,-0.879297605622682,-0.2527811673700809,-6.248513281786441,-0.3955955842528547,0.0068967398256063,-0.0126525666564702,7.553976871427893,0.0050688385963439
2025-04-30 01:19:01.932334000,5.535333984375,-0.037321447696016,0.0726459026336669,0.1582167655125183,0.0104996971786022,-0.3619835318532248,0.8292494507270771,-0.8407261753037177,left,-0.0089880228042602,-0.8791344307533905,-0.2333852880318649,-6.250500656211376,-0.3953233638425787,0.0086269183084368,-0.0026313215494155,7.5529562962085,-4.27365303039e-05
2025-04-30 01:19:01.972334000,5.575333984375,-0.0346404311826063,0.0149302221834659,0.15867770536364,0.0145749635994434,-0.3613869698139111,0.8296422526221079,-0.8378989596654016,left,-0.0007500648498535,-0.8786421975647657,-0.2167554941398091,-6.254818519410491,-0.3948599116091976,0.0159763973206281,0.0037848986685276,7.549877034893631,-0.0127027630805969
2025-04-30 01:19:02.012334000,5.615333984375,-0.0351529558573458,-0.034934215247631,0.1584978384297853,-0.0005341302603483,-0.3617460121836182,0.8296683176492295,-0.8388272353713863,left,0.0048631429672241,-0.8778403583443632,-0.2201739425474777,-6.260755508244038,-0.3945487181587282,0.012118637561798,0.0044818092137575,7.544855991861223,-0.0063750743865966
2025-04-30 01:19:02.052334000,5.655333984375,-0.0370254370157737,-0.0279956199228763,0.1580745252605646,-0.0041385376825928,-0.3623255770091768,0.8294998437939196,-0.8410195747095649,left,0.0014107227325439,-0.8774195295903061,-0.2320142006080597,-6.263504514691233,-0.3945409289034046,0.0048507456667721,5.30388206243e-05,7.542219213616847,0.0005331635475158
2025-04-30 01:19:02.092334000,5.695333984375,-0.0370254370157737,0.0058381184935569,0.1580745252605646,0.0122044356539845,-0.3623255770091768,0.8294998437939196,-0.8410195747095649,left,-0.0056429505348205,-0.8774195295903061,-0.2320142006080597,-6.263504514691233,-0.3945409289034046,0.0018199943006038,0.0017444565892219,7.542219213616847,0.0055102705955505
2025-04-30 01:19:02.132334300,5.735334228515625,-0.0361792053543954,0.0111617539077997,0.1583118026862237,0.0044738077558577,-0.3623982220249169,0.8295425578824727,-0.8407252359765407,left,-0.0032907128334045,-0.8771239668611348,-0.2267943836005404,-6.265926188880205,-0.3942892309497459,0.00889403373003,0.0007590446621179,7.540366279226541,-0.0010613799095153
2025-04-30 01:19:02.172334000,5.775333984375,-0.0361792053543954,0.0074986205436289,0.1583118026862237,-0.0061627035029232,-0.3623982220249169,0.8295425578824727,-0.8407252359765407,left,-0.0068007707595825,-0.8771239668611348,-0.2267943836005404,-6.265926188880205,-0.3942892309497459,0.0036372365429997,0.0009952317923307,7.540366279226541,0.0010645389556884
2025-04-30 01:19:02.212334000,5.815333984375,-0.0351652676350594,0.0265690274536609,0.1584215290080509,0.0202909465879201,-0.3621107764816343,0.8297540050353559,-0.8394733252675441,left,-0.007659375667572,-0.8767828450547458,-0.2205314142156392,-6.268723126122355,-0.3940642588933478,0.0022997120395302,0.0063039548695087,7.538226929110288,0.0010164380073547
2025-04-30 01:19:02.252334000,5.855333984375,-0.0334802465604701,0.0173353590071201,0.1588277803212278,-0.0037782527506351,-0.3617474735326816,0.8298864227421978,-0.8378337636370186,left,0.0113853812217712,-0.8769432720428185,-0.2099276756800711,-6.2678767384260885,-0.3939554673097474,-0.0137524148449301,0.0030956137925386,7.539232891282439,-0.0025350451469421
2025-04-30 01:19:02.292334000,5.895333984375,-0.0340268983110155,-0.0058979224413633,0.1586716832379277,-0.0320059359073638,-0.3614004418098278,0.8298497553242539,-0.8374360615567342,left,0.0082636475563049,-0.8777391349756658,-0.2131497977980412,-6.261762054938077,-0.3944137842544188,-0.0230775289237499,0.0030287969857454,7.5442217856109135,0.0019537806510925
2025-04-30 01:19:02.332334000,5.935333984375,-0.0360329179956813,-0.0200202763080596,0.15819448884035,-0.0236180871725082,-0.3612938595404228,0.829665541954903,-0.8383450822608325,left,0.001743197441101,-0.8786759713705031,-0.2254558650057762,-6.254256209352612,-0.3950900508713938,-0.0140274753794074,0.0006621833890676,7.550088047295809,0.0049195885658264
2025-04-30 01:19:02.372334300,5.975334228515625,-0.0375611010039154,-0.0171799305826425,0.1578390249517997,-0.0085767293348908,-0.3614758958731982,0.8295277751793516,-0.8395586541695375,left,-0.0026348233222961,-0.8788815127475975,-0.234954966767691,-6.252353006079793,-0.3953549026578909,0.0120344953611493,0.0002678427845239,7.551374579975008,0.0094468593597412
2025-04-30 01:19:02.412334000,6.015333984375,-0.0383445109546708,-0.0077785868197679,0.1574552017237039,-0.0086811576038599,-0.3616928640696905,0.8296621336807266,-0.840224482607829,left,0.0019547939300537,-0.8778697784534523,-0.2401458316753618,-6.25979923043251,-0.3950276779704397,0.0393007546663284,0.0004965905100107,7.545040116256475,0.0048920512199401
2025-04-30 01:19:02.452334000,6.055333984375,-0.0395405300942238,-0.0049847243353724,0.1567447459860406,-0.0305631905794143,-0.3617344645598749,0.8299784101344846,-0.8405552880817885,left,0.0087432265281677,-0.8763859817048697,-0.248074761511106,-6.270686535149812,-0.3946073856521555,0.0353180095553398,-0.0001554321497678,7.535736865860223,0.0045749545097351
2025-04-30 01:19:02.492334000,6.095333984375,-0.0408070731792517,0.0011853580363094,0.1560103407863806,-0.0262303780764341,-0.3615982917022352,0.8302877490945312,-0.840572250771209,left,-0.0002904534339904,-0.8752615469498733,-0.2563621676620096,-6.278829509595036,-0.3943723016727349,0.031898021697998,-0.0021277982741594,7.528675841432809,0.0007117986679077
2025-04-30 01:19:02.532334000,6.135333984375,-0.0415923994573088,0.0094858109951019,0.1553370345424726,-0.0251804385334253,-0.3614005694088468,0.8306902984987211,-0.8401494576900435,left,-0.0069615244865417,-0.8738634893915449,-0.2617304349632002,-6.289137553119659,-0.393971569595465,0.040940586477518,-0.0047077555209398,7.519882878646254,-0.0017203092575073
2025-04-30 01:19:02.572334000,6.175333984375,-0.0412558164915638,0.0268152877688407,0.154936006711699,-0.0079617723822593,-0.3611114216994339,0.8311862236966645,-0.8389304253640495,left,-0.0070885419845581,-0.8722682248217519,-0.260108057925757,-6.30120325396657,-0.3933482288454666,0.0383368246257305,-0.0020759180188179,7.509831440231204,-0.0012070536613464
2025-04-30 01:19:02.612334300,6.215334228515625,-0.0406296647413842,0.0212839376181364,0.1546355229201231,-0.0059485966339707,-0.36069547378793,0.8316736776138657,-0.8373356893358725,left,-0.0110446810722351,-0.8709547085202574,-0.2565629326648079,-6.311214944893122,-0.392817255841451,0.021340113133192,0.0019312072545289,7.501541166269779,-0.0071331858634948
2025-04-30 01:19:02.652334300,6.255334228515625,-0.0397332214319703,0.0022007022053003,0.15467927859517,0.0033014994114637,-0.3605491860688544,0.8319188909942172,-0.8363887180746836,left,-0.0029029846191406,-0.8701931910027995,-0.2511320119235664,-6.31714842659533,-0.3924147705492574,0.0074016191065311,0.0011414140462875,7.4967293820738785,-0.0069167017936706
2025-04-30 01:19:02.692334000,6.295333984375,-0.0397332214319703,5.82544598728e-05,0.15467927859517,-0.0140089634805917,-0.3605491860688544,0.8319188909942172,-0.8363887180746836,left,0.0056148171424865,-0.8701931910027995,-0.2511320119235664,-6.31714842659533,-0.3924147705492574,-0.0061601623892784,-0.0024595875293016,7.4967293820738785,-0.0015009641647338
2025-04-30 01:19:02.732334000,6.335333984375,-0.0407028162886211,0.0084061399102211,0.1542464443085752,-0.0212400779128074,-0.3602786277382539,0.832020346395766,-0.8362039961176485,left,0.0042430162429809,-0.8702294031428802,-0.2572459464929066,-6.316631124722957,-0.3926186723685471,-0.0073245903477072,-0.0011462327092885,7.496957930132746,0.0041670799255371
2025-04-30 01:19:02.772334000,6.375333984375,-0.0407028162886211,0.00078941648826,0.1542464443085752,-0.0029210969805717,-0.3602786277382539,0.832020346395766,-0.8362039961176485,left,-0.0051262974739074,-0.8702294031428802,-0.2572459464929066,-6.316631124722957,-0.3926186723685471,0.0038689728826284,0.0043983310461044,7.496957930132746,-0.0037397742271423
2025-04-30 01:19:02.812334000,6.415333984375,-0.0419622124862734,-0.0356041602790355,0.1538076288872503,-0.0209264941513538,-0.3603795051488361,0.8320446618702894,-0.836963713911092,left,0.0024808645248413,-0.8698889239950842,-0.2653079281237908,-6.318851723381877,-0.3926466349246749,0.012788038700819,-0.0008376408368349,7.4948051360130306,-0.0095366835594177
2025-04-30 01:19:02.852334000,6.455333984375,-0.0451780562257274,-0.0370119921863079,0.1529254181909251,-0.0380039811134338,-0.3608086384296763,0.8318760304034823,-0.8394694608042025,left,0.0022901892662048,-0.8696948666857233,-0.285692654102575,-6.319418709614872,-0.3929542958645638,-0.0059993080794811,-0.0085319057106971,7.493577640044688,0.0014255046844482
2025-04-30 01:19:02.892334300,6.495334228515625,-0.0465435213300828,0.0248389355838298,0.1525187921758299,-0.0242085810750722,-0.3605691273861812,0.8318231419826505,-0.8396835324373865,left,-0.0040256977081298,-0.8703251328571263,-0.294101531208679,-6.314304143080115,-0.3934438598032662,-0.0199673175811767,-0.0122526492923498,7.497563494810461,0.0096866488456726
2025-04-30 01:19:02.932334000,6.535333984375,-0.0446271252096805,0.0642872154712677,0.1529037713850147,-0.0025385618209838,-0.3595183564426432,0.8320361322959783,-0.8365086028974614,left,-0.0019549131393432,-0.8714516594519133,-0.2816233040381223,-6.3064142666131255,-0.3938054786967394,-0.0261523742228746,-0.0072866939008235,7.504679464295506,0.0081974864006042
2025-04-30 01:19:02.972334000,6.575333984375,-0.0417951882964785,0.0358287692070007,0.1535548816779114,0.0071039535105228,-0.3585162873717707,0.8322835622431138,-0.8329659667218824,left,0.001074194908142,-0.8723590978062821,-0.2634781736796722,-6.300379662624001,-0.3939427589384905,-0.0074365381151437,-0.0009149648249149,7.510404856204986,-0.0057668089866638
2025-04-30 01:19:03.012334000,6.615333984375,-0.0417951882964785,-0.0330266878008842,0.1535548816779114,0.0006173411384224,-0.3585162873717707,0.8322835622431138,-0.8329659667218824,left,0.0047512054443359,-0.8723590978062821,-0.2634781736796722,-6.300379662624001,-0.3939427589384905,-0.0013143625110387,0.0041737146675586,7.510404856204986,-0.0023055076599121
2025-04-30 01:19:03.052334000,6.655333984375,-0.0440748919460537,-0.0556118339300155,0.1531855448244366,-0.0010856923181563,-0.3593950508237569,0.8319345994402987,-0.8361091245168191,left,0.0015175938606262,-0.8721460156242468,-0.2779109872504137,-6.301361659398674,-0.3940229982629287,0.0164954010397195,0.001111876219511,7.509061040380597,0.0042347908020019
2025-04-30 01:19:03.092334000,6.695333984375,-0.0458753375459572,-0.0187750644981861,0.1526987821505951,-0.0034313292708247,-0.3601753943276936,0.8318521110455501,-0.8385682442171201,left,-0.0002817511558532,-0.8709679521814732,-0.289661265472602,-6.309682913020253,-0.3936733725163783,0.0363246239721775,-0.001178603619337,7.501625337421894,0.0101983547210693
2025-04-30 01:19:03.132334300,6.735334228515625,-0.0459533589428654,0.027793813496828,0.1523118762480846,-0.0142960799857974,-0.3601281304400352,0.8322048123208554,-0.8381594906078803,left,-0.0014180541038513,-0.8695176670132029,-0.2906530712552369,-6.32052287146449,-0.3931209209879164,0.0302573982626199,-0.0008892137557268,7.49245652706027,0.0071676969528198
2025-04-30 01:19:03.172334000,6.775333984375,-0.0446529884618754,0.04625990614295,0.1521396958129925,-0.0192245505750179,-0.3593801758752809,0.8327748576147882,-0.835514405289442,left,-0.0051686763763427,-0.8684894744518775,-0.2827774790419265,-6.328586935454607,-0.3926643865293329,0.028443930670619,0.0005951263010501,7.48594729129672,-0.0026665925979614
2025-04-30 01:19:03.212334000,6.815333984375,-0.0428896642739424,0.0406038202345371,0.1521098757773257,-0.0063563724979758,-0.3585163995195407,0.8333534763762579,-0.8324207146336513,left,-0.0048557519912719,-0.867652653772738,-0.2718862105355598,-6.33533231806159,-0.3922377778796198,0.0176216550171375,0.0054539199918508,7.480643339669704,-0.0072847604751586
2025-04-30 01:19:03.252334000,6.855333984375,-0.041920213918155,0.0031580589711666,0.152076113382688,-0.0115595832467079,-0.358079140990128,0.8336903578444255,-0.8307768802483321,left,0.00449800491333,-0.8670357754797224,-0.2659376225957647,-6.340202554446458,-0.391934245723506,0.0118798781186342,0.0021733399480581,7.476729965618253,-0.012872576713562
2025-04-30 01:19:03.292334000,6.895333984375,-0.0430460331889418,-0.0288238227367401,0.1517065348151365,-0.0079909656196832,-0.3582888638414036,0.8336922939867853,-0.8317096643032422,left,-0.0010249018669128,-0.8665922084484107,-0.2732180619275197,-6.343211673134565,-0.3918817226997254,0.0020002424716949,-0.0004529096186161,7.473914908197521,-0.0030911564826965
2025-04-30 01:19:03.332334000,6.935333984375,-0.0447388013509459,-0.0321319364011287,0.1514040378127202,-0.0024436679668724,-0.3588125797370805,0.8334518621968274,-0.8337629712118253,left,0.0005869269371032,-0.8665956109071283,-0.2839541398721747,-6.342714829528331,-0.3920309944887023,0.0015363714192062,-0.0058404989540576,7.47393653550744,0.0053387880325317
2025-04-30 01:19:03.372334300,6.975334228515625,-0.0454815659588151,-0.0069113597273826,0.1512164572390421,0.0006397205870598,-0.3591931151497753,0.8334045956473787,-0.8349032076169715,left,0.0016297698020935,-0.8660559376717176,-0.288848524317611,-6.346530588424206,-0.3918552558153504,0.0188387762755155,-0.0068513937294483,7.470508899146318,0.0069198012351989
2025-04-30 01:19:03.412334000,7.015333984375,-0.0451918659878372,0.0164525918662548,0.1510771985396495,-0.0105442181229591,-0.3591213991603637,0.8336339109300475,-0.8344007048195743,left,0.0033539533615112,-0.8651978441809678,-0.2872994317120872,-6.353015858790278,-0.3914868745188557,0.0212246850132942,-0.0058826636523008,7.465054725393652,0.0026802420616149
2025-04-30 01:19:03.452334000,7.055333984375,-0.0448370547896962,0.0217739008367061,0.1508167304762376,-0.0088411029428243,-0.3587349030721846,0.8339941004655137,-0.8331180132646927,left,-0.0071543455123901,-0.8643607124719112,-0.285325282094907,-6.359357336771488,-0.391174224047673,0.0236133374273777,-0.0023167952895164,7.459727977412939,-0.0032641291618347
2025-04-30 01:19:03.492334000,7.095333984375,-0.043777579070319,0.0124541455879807,0.1509201730212836,0.0207446757704019,-0.3585064016573421,0.8342333173132864,-0.831943182547433,left,-0.0092102885246276,-0.8637816407987519,-0.2787765180385671,-6.363970383524895,-0.3908335428597567,0.0100209200754761,0.003306632861495,7.456040813332796,-0.0064299702644348
2025-04-30 01:19:03.532334000,7.135333984375,-0.0431815971410327,-0.0198106653988361,0.1511571145846336,0.0139921894297003,-0.3587604666134451,0.8342039879506602,-0.8321994080389479,left,0.0016131997108459,-0.8634528408729548,-0.2750894818225875,-6.366584365415573,-0.3905713824981545,0.0064394613727927,0.0016598142683506,7.453945886880159,-0.0110058784484863
2025-04-30 01:19:03.572334000,7.175333984375,-0.0444049913640092,-0.0359348878264427,0.150982523537959,-0.0006950637325644,-0.3593384732053601,0.8339907609634578,-0.8341127022559671,left,0.0047796964645385,-0.8632504469721987,-0.2829450724274851,-6.367749902063608,-0.3905628459062037,-0.0066590318456292,-0.0010490715503692,7.452655847069621,-0.0030552744865417
2025-04-30 01:19:03.612334300,7.215334228515625,-0.0462019727433612,-0.0269076991826295,0.1507318147973986,-0.0079738926142454,-0.3598167742445221,0.8336612598369494,-0.8362088720573825,left,0.0025117397308349,-0.863722766224644,-0.2942247739958576,-6.363715531980991,-0.3909228715811016,-0.022689264267683,-0.0033295694738626,7.455665550279617,0.0064961314201354
2025-04-30 01:19:03.652334300,7.255334228515625,-0.0468299081649668,-0.0057628396898508,0.1507601066898196,0.0145183783024549,-0.3600898932661411,0.8334357894453142,-0.8372602956486815,left,-0.0069624781608581,-0.8641697622303981,-0.2980646809522994,-6.360199632814526,-0.3911411668805959,0.0035406630486249,0.0028762370347976,7.45851275640428,0.0047529935836791
2025-04-30 01:19:03.692334000,7.295333984375,-0.0474447483799015,-0.0083494046702981,0.150441745134518,-0.0103523135185241,-0.3602173751759627,0.8335489872604454,-0.8376809023309874,left,-0.0019819736480712,-0.8634063693579669,-0.3022450901757925,-6.365700568318367,-0.3909051259766635,0.0053746639750897,0.0014727376401424,7.453649534282087,0.0019097924232482
2025-04-30 01:19:03.732334000,7.335333984375,-0.0480585551741158,-0.0109359696507453,0.1501233366431425,-0.0352230072021484,-0.3603447258128707,0.8336620149206583,-0.8381002378832753,left,0.0029981136322021,-0.862642805301931,-0.3064256637960672,-6.37119682764709,-0.3906690377663362,0.0072086649015545,6.92475587129e-05,7.448781635984778,-0.0009329319000244
2025-04-30 01:19:03.772334000,7.375333984375,-0.049380106983692,0.0069573502987623,0.149563858513561,-0.0249052979052066,-0.3601588255576724,0.8337709843589125,-0.838232153261058,left,0.001486599445343,-0.8624611839694902,-0.3149120083188638,-6.372136738845706,-0.3908222758975484,-0.0032062232494354,-0.001791838556528,7.447622529077529,0.0013902783393859
2025-04-30 01:19:03.812334000,7.415333984375,-0.0493501908250982,0.0119786635041236,0.1494274987869089,-0.0088342726230621,-0.3598118393404614,0.833905011749131,-0.8374020645899584,left,-0.001011312007904,-0.8625319963803617,-0.3146953698934987,-6.371619436973333,-0.3909081523758568,-0.001719728228636,-0.003297034651041,7.448074364498257,0.0002778768539428
2025-04-30 01:19:03.852334000,7.455333984375,-0.0493501908250982,-1.57030299305e-05,0.1494274987869089,-0.0121069243177771,-0.3598118393404614,0.833905011749131,-0.8374020645899584,left,-2.9981136322e-05,-0.8625319963803617,-0.3146953698934987,-6.371619436973333,-0.3909081523758568,-0.0061105662025511,-0.0059895925223827,7.448074364498257,0.0029664039611816
2025-04-30 01:19:03.892334300,7.495334228515625,-0.0501510299832429,0.0019171783933416,0.1490574630525573,-0.010106036439538,-0.3595910552971426,0.8339982373293223,-0.8372421029435155,left,-0.0050298571586608,-0.862506254373727,-0.3198074887428432,-6.371556308609247,-0.3910535210069706,0.0151462387293577,-0.0070242658257484,7.447910113847255,0.0047112703323364
2025-04-30 01:19:03.932334000,7.535333984375,-0.04979272427922,0.023115549236536,0.1488595224822211,0.0061246622353792,-0.3593896477504784,0.8343025323957042,-0.8363764751662389,left,-0.0036069750785827,-0.8615650032827203,-0.3178733058098703,-6.378670524528622,-0.3906649765406581,0.0303374230861663,-0.0036322139203548,7.441902397865056,-0.0001961588859558
2025-04-30 01:19:03.972334000,7.575333984375,-0.0479257440656571,0.0199519488960504,0.1491201341188956,0.0169861204922199,-0.3591427284745069,0.8346527339431319,-0.8346850052909184,left,0.0012909770011901,-0.8605687525139635,-0.3063189337522722,-6.386654509019851,-0.390044065991601,0.0159432739019393,-0.0031572170555591,7.43553578544259,-0.0029936432838439
2025-04-30 01:19:04.012334000,7.615333984375,-0.0479257440656571,-0.006995216012001,0.1491201341188956,0.0017086565494537,-0.3591427284745069,0.8346527339431319,-0.8346850052909184,left,0.0015084147453308,-0.8605687525139635,-0.3063189337522722,-6.386654509019851,-0.390044065991601,-0.0077191982418298,-0.0033388137817382,7.43553578544259,-0.0036942958831787
2025-04-30 01:19:04.052334000,7.655333984375,-0.0481440162766609,-0.021468348801136,0.1492540288112704,0.0222046636044979,-0.3595118848330317,0.8344601362385544,-0.8357034462201652,left,-0.0026308298110961,-0.860708590800364,-0.3076629505060613,-6.385549762648344,-0.3900650618783997,-0.0050346702337265,0.002295646816492,7.43643010393381,0.0004495978355407
2025-04-30 01:19:04.092334000,7.695333984375,-0.0480451781996803,-0.0252652615308761,0.1495675218360252,0.0245008617639541,-0.3601236950406839,0.8342017673186072,-0.8371192107671911,left,0.0018455982208251,-0.860688324094685,-0.307039046454057,-6.385730379912257,-0.3899331552653567,0.0033817971125245,0.0042682960629463,7.4363003400743,-0.0010768175125122
2025-04-30 01:19:04.132334300,7.735334228515625,-0.0490222267144101,-0.0323747508227825,0.1494618056713672,-0.0047561358660459,-0.3607514568446224,0.8339995550484312,-0.8390026021860774,left,0.0035533905029296,-0.8603431806479388,-0.313403795713,-6.387990726059675,-0.389825923745463,0.0086974669247865,0.0020603910088539,7.434093185418844,0.0014775991439819
2025-04-30 01:19:04.172334000,7.775333984375,-0.0505097324848234,-0.009577153250575,0.1490319182128316,-0.006802418269217,-0.3611469512667909,0.8339396620299759,-0.8405196304804877,left,-0.0044573545455932,-0.8597888304997778,-0.3231136541487648,-6.391631712910533,-0.3897523735199054,0.0125843230634927,-0.0003809630870819,7.4305468911141155,0.007993459701538
2025-04-30 01:19:04.212334000,7.815333984375,-0.0504445608416572,0.0247457530349493,0.1488570179666158,-0.0054891323670744,-0.3609804597541927,0.8341267794376431,-0.8399745995597506,left,-0.0007297396659851,-0.8592846292977974,-0.3228859828727319,-6.395394280314445,-0.3895730845867953,0.0140657583251595,-0.0047421902418136,7.427319161239266,0.0064532160758972
2025-04-30 01:19:04.252334000,7.855333984375,-0.0488918592231941,0.02082384750247,0.1490435092564952,0.0154726030305027,-0.3606338998934399,0.8344449046391542,-0.8382648907828171,left,-0.0010740160942077,-0.8586081782816445,-0.3132008570194244,-6.400903399124741,-0.389141011534695,0.020784230902791,-0.0021384209394454,7.422985515949129,-0.0030098557472229
2025-04-30 01:19:04.292334000,7.895333984375,-0.0483817330523426,-0.0229808613657951,0.1491565866721392,0.0164897833019495,-0.3608582056828902,0.8345059325179319,-0.83841120416052,left,-0.0006887316703796,-0.8579320550495899,-0.3101782212626189,-6.406074079760908,-0.388758759479297,0.0135689359158277,-0.0003709867596626,7.418651286137104,-0.0025116205215454
2025-04-30 01:19:04.332334000,7.935333984375,-0.0495191567366494,-0.0534292012453079,0.1490356168557537,0.0210537314414978,-0.3617692713159751,0.8342684741492101,-0.8409561232080636,left,0.0004979372024536,-0.8571902971096665,-0.3177367834160104,-6.411212611693143,-0.3884681164192501,0.0202872268855571,0.0012613628059625,7.413891524389386,-0.0006850957870483
2025-04-30 01:19:04.372334300,7.975334228515625,-0.051161686682047,-0.0524276345968246,0.1487848412711056,0.0211699232459068,-0.3629678352186146,0.8339932227215766,-0.8443298725084788,left,0.0039935111999511,-0.856033138865493,-0.3287054462738334,-6.419245111501216,-0.3880368790912291,0.0289739575237035,0.0010149627923965,7.4064587440401315,0.0036794543266296
2025-04-30 01:19:04.412334000,8.015333984375,-0.0526733760404896,-0.0358805954456329,0.1483642373990687,0.0015477798879146,-0.3638895239248889,0.8339160019304716,-0.8468975163778342,left,0.0005306005477905,-0.8545290185994551,-0.3389951138915494,-6.429858275452256,-0.3875002882886834,0.0412819273769855,-0.0029428340494632,7.396782568678259,0.0042219758033752
2025-04-30 01:19:04.452334000,8.055333984375,-0.0537487848626431,-0.012702040374279,0.1478472808567902,-0.0015946617349982,-0.3643655491445041,0.8340649306427794,-0.8481622708846446,left,-0.0045439600944519,-0.8528975805588778,-0.3465574754372238,-6.4415311775892965,-0.3869295230282156,0.0368491224944591,-0.0048119127750396,7.386268188926577,0.0046207308769226
2025-04-30 01:19:04.492334000,8.095333984375,-0.0538715325680083,-0.0015856949612498,0.1475935762524585,0.01361795514822,-0.3645901281886508,0.8342674762771992,-0.8484485531921673,left,-0.0078344941139221,-0.8515572977768222,-0.3478809060607105,-6.451368096470833,-0.3863778587669141,0.0299627929925918,0.0002602823078632,7.377615511393547,-0.0012198090553283
2025-04-30 01:19:04.532334000,8.135333984375,-0.0530513219359111,-0.0174959562718868,0.1477688559533659,0.0239759311079978,-0.3649225356475021,0.8343658914090392,-0.8486254451350083,left,-0.0008317232131958,-0.8505128145646871,-0.3429977736616507,-6.459343313133716,-0.3857842169303455,0.0258205644786357,0.0065956786274909,7.370863114523887,-0.0106987953186035
2025-04-30 01:19:04.572334000,8.175333984375,-0.0539497387773545,-0.0530160628259182,0.1475684219621796,0.0039926525205373,-0.3657236204574702,0.8342670672377674,-0.8506929328571271,left,0.0062922239303588,-0.8493489701514738,-0.3492630811341106,-6.467593255084752,-0.3853154987108125,0.0206516310572624,0.0068658608943223,7.363330380931496,-0.0114727020263671
2025-04-30 01:19:04.612334300,8.215334228515625,-0.057036820031162,-0.0512502528727054,0.1467828902049676,-0.0215944293886423,-0.3665811708147994,0.8340161289994301,-0.8540109103981126,left,-0.0019101500511169,-0.8486397870559261,-0.3695250209834426,-6.471696598750352,-0.3853440496857674,0.0046193692833185,0.00265609100461,7.35873486983478,-0.0036518573760986
2025-04-30 01:19:04.652334300,8.255334228515625,-0.0592192490528927,-0.0097131766378879,0.1463093702828648,-0.0134411053732037,-0.3669527563931745,0.8337617544756483,-0.8559795901818306,left,-0.0035103559494018,-0.8489329096231488,-0.3835204843165353,-6.468721382331848,-0.385720776348787,-0.0266200322657823,-0.0047050155699253,7.360634565976261,0.0113962292671203
2025-04-30 01:19:04.692334000,8.295333984375,-0.0589677249498545,0.0401328466832637,0.1464781628582542,-0.0162140186876058,-0.3664077751039845,0.8336866116761293,-0.8548870553408758,left,0.0026013851165771,-0.8503464721357433,-0.3812798657828942,-6.4584244447231285,-0.3863367488949763,-0.0296320468187332,-0.0076122768223285,7.369787594246864,0.0085592865943908
2025-04-30 01:19:04.732334000,8.335333984375,-0.0575267910909534,0.0439854077994823,0.146677840893126,-0.0163430292159318,-0.3654535486272303,0.8339617111226354,-0.8520968135501799,left,0.0012634992599487,-0.8510585074870446,-0.3716714949602261,-6.453726642295718,-0.3865709286837768,-0.0022875964641571,-0.0031517036259174,7.374391873171925,0.0003539323806762
2025-04-30 01:19:04.772334000,8.375333984375,-0.0569243107771393,0.0126160196959972,0.1465994555659657,-0.0199443604797124,-0.3647902090704811,0.8342288496001459,-0.8502580277812348,left,-0.0012567043304443,-0.8511919037333328,-0.3677271777812391,-6.452966763839125,-0.386650746914553,0.0016925451345741,-0.0036841668188571,7.375254042959213,-0.0045416951179504
2025-04-30 01:19:04.812334000,8.415333984375,-0.0576743068144007,-0.0129230115562677,0.1462996219801637,-0.0019381158053874,-0.3647681011481509,0.8342715871587212,-0.8505097618253582,left,-0.0062350034713745,-0.851007379664293,-0.3726452353632077,-6.454048129335045,-0.3866930246321647,0.0062177353538572,-0.0048932246863842,7.374061618304252,-0.0026529431343078
2025-04-30 01:19:04.852334000,8.455333984375,-0.0576743068144007,-0.0049086054787039,0.1462996219801637,0.0075200553983449,-0.3647681011481509,0.8342715871587212,-0.8505097618253582,left,0.0025991797447204,-0.851007379664293,-0.3726452353632077,-6.454048129335045,-0.3866930246321647,0.0047810510732233,-0.0076556205749511,7.374061618304252,0.0030162334442138
2025-04-30 01:19:04.892334300,8.495334228515626,-0.0573776329553733,0.0131175918504595,0.1463106496829,0.0064404793083667,-0.36493099879186,0.8343562928465782,-0.850604938275532,left,-0.0005732774734497,-0.8503286653266371,-0.3710173784330487,-6.459153343519568,-0.3863521499254935,0.0162227638065814,-0.0053512416779994,7.369671858912706,-8.34465026855e-05
2025-04-30 01:19:04.932334000,8.535333984375,-0.056269539589469,0.0134136388078331,0.1464682937041141,0.0161119513213634,-0.3648549419099059,0.8345630667876259,-0.8497437013325774,left,-0.002129316329956,-0.8496120456600476,-0.3641567354159429,-6.464831973677874,-0.3859174754648635,0.0139007065445184,-0.0050490945577621,7.365033677718043,-0.0003995299339294
2025-04-30 01:19:04.972334000,8.575333984375,-0.0552656219941984,0.0046851867809891,0.146714578049966,0.0158278420567512,-0.3648770381359092,0.834652817313934,-0.8492418277840345,left,-0.0003665089607238,-0.8492189806147281,-0.3578263268180191,-6.468084837993979,-0.3856089272637042,0.0049601513892412,-0.0060983672738075,7.362488084888458,-0.0006211400032043
2025-04-30 01:19:05.012334000,8.615333984375,-0.0545321161533055,0.0024202859494835,0.1469763793511659,0.0221185833215713,-0.3650424455382956,0.8346408574425944,-0.8492455099422487,left,-0.0032508373260498,-0.8489853456556019,-0.3531755784027278,-6.4700622755467885,-0.3853784080378867,0.0071191852912306,-0.0027524232864379,7.36097417319417,0.0021020770072937
2025-04-30 01:19:05.052334000,8.655333984375,-0.0531075256822547,0.0093662105500698,0.1474011313030199,0.0322140902280807,-0.3652249078483696,0.8346968767813687,-0.8489017616227806,left,-0.0009472966194152,-0.8484477104197479,-0.3441680595500394,-6.474509902605414,-0.3849217027933135,0.0163798928260803,0.0025088861584663,7.357489838209748,3.31401824951e-05
2025-04-30 01:19:05.092334000,8.695333984375,-0.0514670923609116,0.002448767889291,0.1478569246808943,0.0280983690172433,-0.3653745663588562,0.834793028234738,-0.8483568957280456,left,0.0025999546051025,-0.8478030821633371,-0.33379053098578,-6.479801579272746,-0.3843960858385551,0.0140889091417193,0.0080136992037296,7.353308753132819,-0.0069057941436767
2025-04-30 01:19:05.132334300,8.735334228515624,-0.0512178373666574,-0.0195246618241071,0.1479721858638853,0.0010108686983585,-0.3656674408880472,0.8347637194219223,-0.8488457355661707,left,0.0076003074645996,-0.8473732671576253,-0.3323371903723106,-6.4830404150635,-0.3841368401261994,0.0009771380573511,0.0079556982964277,7.350518830153345,-0.005989670753479
2025-04-30 01:19:05.172334000,8.775333984375,-0.0527228592688732,-0.0250673685222864,0.1476246954772278,-0.018145028501749,-0.3660040906237661,0.834607579455484,-0.8503378154537228,left,0.003330111503601,-0.8473416011669906,-0.3421061220515519,-6.482763936209678,-0.3842888472673337,-0.0040649506263434,0.0029607824981212,7.350313662970065,-4.48822975158e-05
2025-04-30 01:19:05.212334000,8.815333984375,-0.0543158927674938,-0.0116562684997916,0.1472066249576887,-0.0112950801849365,-0.3662047069775745,0.8344902423761779,-0.8515652591894959,left,-0.0055353641510009,-0.8473974874579855,-0.3524106584448367,-6.481801228657364,-0.384513022396214,-0.0025050395634025,0.0006814450025558,7.350676066541672,0.006553292274475
2025-04-30 01:19:05.252334000,8.855333984375,-0.0543158927674938,0.0068135010078549,0.1472066249576887,-0.0100167104974389,-0.3662047069775745,0.8344902423761779,-0.8515652591894959,left,-0.000278353691101,-0.8473974874579855,-0.3524106584448367,-6.481801228657364,-0.384513022396214,0.0095187900587916,-0.002794399857521,7.350676066541672,0.000933825969696
2025-04-30 01:19:05.292334000,8.895333984375,-0.0544520932305987,0.012659185566008,0.146860772264463,-0.0078246183693408,-0.3658887035438708,0.834774145122036,-0.8507199432123056,left,-0.00717294216156,-0.8467425204554896,-0.3535554445657879,-6.486559236839414,-0.3843297914676885,0.0139190889894962,-0.000887993723154,7.346423085272312,-0.0011836290359497
2025-04-30 01:19:05.332334000,8.935333984375,-0.0538089360804525,0.0157356932759284,0.1467815786917724,-0.0057884897105395,-0.3655318025734228,0.8350569447413698,-0.8494464140294928,left,-0.0036858916282653,-0.8462086373428801,-0.3495943954477086,-6.490701158949732,-0.384085247135358,0.011291698552668,-0.0017068795859813,7.342953947857022,-0.0053561329841613
2025-04-30 01:19:05.372334300,8.975334228515624,-0.0535830422237492,0.0137907667085528,0.1466377032844398,-0.0102870687842369,-0.3652181642896753,0.835266592566372,-0.84851985029354,left,-0.0007208585739135,-0.8458959398137469,-0.3482511276125907,-6.493072564256191,-0.3839827758383936,0.0021394919604063,-0.0022522434592247,7.340920980724692,-0.0065914392471313
2025-04-30 01:19:05.412334000,9.015333984375,-0.0535830422237492,0.0104688573628664,0.1466377032844398,-0.0119361570104956,-0.3652181642896753,0.835266592566372,-0.84851985029354,left,-0.0018420219421386,-0.8458959398137469,-0.3482511276125907,-6.493072564256191,-0.3839827758383936,-0.0060617243871092,-0.003018133342266,7.340920980724692,-0.0057736039161682
2025-04-30 01:19:05.452334000,9.055333984375,-0.0536642229622546,0.0062904595397412,0.1464987084503794,-0.0082927318289875,-0.3647395344802437,0.8353727719322285,-0.8475154945223801,left,-0.002971589565277,-0.8463518940019071,-0.3485986624086275,-6.489701041996479,-0.3842595801929835,-0.0152558181434869,-0.004085075110197,7.343885091227293,-0.0018015503883361
2025-04-30 01:19:05.492334000,9.095333984375,-0.053771246148327,0.0021021054126322,0.1465022942584023,-0.0054112365469336,-0.3644869770471215,0.8353350432434582,-0.847110213954682,left,-0.0010238885879516,-0.8470079637949648,-0.3490342042816802,-6.484851263877749,-0.3845798163580289,-0.0114980954676866,-0.0046341940760612,7.348147424846887,3.24845314025e-05
2025-04-30 01:19:05.532334000,9.135333984375,-0.054118741123684,0.002510349266231,0.1464235542635693,-0.0122958905994892,-0.3643363716487475,0.8352975832190509,-0.8470113874872666,left,0.0018085241317749,-0.8474521208315128,-0.3511110470883548,-6.481470389267802,-0.3848338430878249,-0.0075495787896215,-0.0047488696873188,7.351030871328711,0.0040474534034729
2025-04-30 01:19:05.572334000,9.175333984375,-0.054118741123684,0.0067627979442477,0.1464235542635693,-0.0045361607335507,-0.3643363716487475,0.8352975832190509,-0.8470113874872666,left,0.000673770904541,-0.8474521208315128,-0.3511110470883548,-6.481470389267802,-0.3848338430878249,-0.0008246316574513,-0.0064908005297183,7.351030871328711,0.0059605240821838
2025-04-30 01:19:05.612334300,9.215334228515625,-0.054118741123684,0.0058841337449848,0.1464235542635693,0.0022451598197221,-0.3643363716487475,0.8352975832190509,-0.8470113874872666,left,-0.0013390183448791,-0.8474521208315128,-0.3511110470883548,-6.481470389267802,-0.3848338430878249,0.00034652184695,-0.0050210505723953,7.351030871328711,0.0069565176963806
2025-04-30 01:19:05.652334300,9.255334228515624,-0.054118741123684,0.0094985542818903,0.1464235542635693,0.0148140732198953,-0.3643363716487475,0.8352975832190509,-0.8470113874872666,left,-0.0026584267616271,-0.8474521208315128,-0.3511110470883548,-6.481470389267802,-0.3848338430878249,0.0049295360222458,0.0003602653741836,7.351030871328711,0.0032723546028137
2025-04-30 01:19:05.692334000,9.295333984375,-0.0522772107064264,0.0055150324478745,0.1468718379458576,0.020529493689537,-0.3642222187768676,0.835466641847462,-0.8457882747946447,left,0.0023648142814636,-0.8470059619207568,-0.3393459731558337,-6.485380256187916,-0.384403769420029,0.0162643454968929,0.0045694895088672,7.348133980843424,-0.0028693675994873
2025-04-30 01:19:05.732334000,9.335333984375,-0.0520438743413051,-0.0166082605719566,0.1468922340691051,-0.0037929750978946,-0.3643917313607406,0.835522817614161,-0.8459568593352123,left,0.006294846534729,-0.8464355757226759,-0.3380506726482883,-6.489643758851289,-0.3841131164233087,0.0105613339692354,0.0054452046751976,7.344428696584701,-0.0052005648612976
2025-04-30 01:19:05.772334000,9.375333984375,-0.0534228263551804,-0.0279361903667449,0.1464895575022195,-0.0146382609382271,-0.3647193280566576,0.8354592461690534,-0.8472792432801677,left,0.0021745562553405,-0.8460158839243553,-0.3471637707673013,-6.492247803869844,-0.3840940518775939,0.005627348087728,0.002404361963272,7.341700732925534,-0.001915156841278
2025-04-30 01:19:05.812334000,9.415333984375,-0.0549946852407744,-0.0177288688719272,0.14605296020566,-0.0100224483758211,-0.3650489303293899,0.835364959077477,-0.8487229542074655,left,-0.0018773674964904,-0.8457184064759656,-0.3574882905026897,-6.493875112810731,-0.3841523319870212,0.0057646143250167,3.70927155017e-05,7.339766549992561,0.0020634531974792
2025-04-30 01:19:05.852334000,9.455333984375,-0.0557422680849774,-0.0026608109474182,0.1457580645525795,-0.0103945024311542,-0.3651757301561701,0.8354023066891733,-0.8492667073596387,left,-0.002615213394165,-0.8452673443328242,-0.3625273441158235,-6.496911704027652,-0.3840628100997018,0.014354882761836,-0.0035965479910373,7.336832250106334,0.0014014244079589
2025-04-30 01:19:05.892334300,9.495334228515626,-0.0562007137018135,0.0066574495285749,0.1454249953244283,-0.0142608247697353,-0.3650752326416696,0.8355691193763725,-0.8491051748656469,left,-0.0032111406326293,-0.8446946762071375,-0.3657417395850643,-6.500938475325703,-0.3839217375819939,0.0138082494959235,-0.0042612254619598,7.333104754015803,0.0005181431770324
2025-04-30 01:19:05.932334000,9.535333984375,-0.0562330778615685,0.0079293614253401,0.1451943780477594,-0.010384127497673,-0.3648624243707423,0.8357767696019957,-0.8484922542192063,left,-0.0004372596740722,-0.8441791894541364,-0.3661645315743982,-6.504699873685836,-0.3837592407486351,0.0156572964042425,-0.0077960044145584,7.329747260281443,-0.0040180683135986
2025-04-30 01:19:05.972334000,9.575333984375,-0.0562330778615685,0.0094291204586625,0.1451943780477594,0.0021558916196227,-0.3648624243707423,0.8357767696019957,-0.8484922542192063,left,-0.0056047439575195,-0.8441791894541364,-0.3661645315743982,-6.504699873685836,-0.3837592407486351,0.0087200682610273,-0.0062907226383686,7.329747260281443,-0.0052555203437805
2025-04-30 01:19:06.012334000,9.615333984375,-0.0553893415575642,0.0030441517010331,0.1452893863528865,0.0141265643760561,-0.3647418661590754,0.8359593930167137,-0.847692629376153,left,-0.0051196217536926,-0.8436385391456873,-0.3608955051302909,-6.508962207305431,-0.3834399951823511,0.0004766304045915,-0.0058928057551383,7.326223762330413,-0.0043659806251525
2025-04-30 01:19:06.052334000,9.655333984375,-0.0553893415575642,-0.0090568112209439,0.1452893863528865,0.015021564438939,-0.3647418661590754,0.8359593930167137,-0.847692629376153,left,-0.0020346045494079,-0.8436385391456873,-0.3608955051302909,-6.508962207305431,-0.3834399951823511,-0.0016208868473768,-0.0034636668860912,7.326223762330413,-0.0028803348541259
2025-04-30 01:19:06.092334000,9.695333984375,-0.0549420999707232,-0.0078936330974102,0.1455865047923971,0.015997203066945,-0.3651214750852575,0.8358217240662091,-0.8483719891011803,left,0.0009199380874633,-0.843534605141454,-0.3580261967716738,-6.509883413803577,-0.383266038565648,-0.004370616748929,-0.0020771399140357,7.325546301460266,0.0012637972831726
2025-04-30 01:19:06.132334300,9.735334228515624,-0.054582172784091,0.000255043618381,0.1458053731632192,0.007733897306025,-0.3653100955970639,0.8357304077626829,-0.8486714637192572,left,0.0010086894035339,-0.8435920558208714,-0.3556601252274587,-6.509591152858734,-0.3832022378072341,0.0001889029517769,-0.0017618499696254,7.325920395469665,0.0017438530921936
2025-04-30 01:19:06.172334000,9.775333984375,-0.054582172784091,0.0182525441050529,0.1458053731632192,0.0005855658091604,-0.3653100955970639,0.8357304077626829,-0.8486714637192572,left,-0.001473069190979,-0.8435920558208714,-0.3556601252274587,-6.509591152858734,-0.3832022378072341,0.0031932611018419,-0.0025041624903678,7.325920395469665,0.000875174999237
2025-04-30 01:19:06.212334000,9.815333984375,-0.0529062364599738,0.0275341011583805,0.1461160586229068,0.0043492075055837,-0.3648428742710717,0.8359792230684691,-0.8467578703894181,left,-0.0026133060455322,-0.8434715149048617,-0.3447966397771612,-6.5110600563675165,-0.3829861509638332,0.0029711823444813,-0.0032518804073333,7.325134798049926,-0.0017848014831542
2025-04-30 01:19:06.252334000,9.855333984375,-0.0513561959186545,0.0177613627165555,0.1464617257254585,0.013509027659893,-0.3644927885895915,0.8361537255058635,-0.8452046914215783,left,-0.0043892264366149,-0.8434457546133135,-0.3347134910495951,-6.511774926638603,-0.3828064760626609,-0.0005302624776959,-0.0011038929224014,7.324967040267587,-0.0044457912445068
2025-04-30 01:19:06.292334000,9.895333984375,-0.0500837642453116,-0.0004727859050035,0.1469081364681878,0.0161757059395313,-0.3644346483822286,0.8361420181638513,-0.8445336608873681,left,-5.12599945068e-05,-0.8436693554952588,-0.3263454391442239,-6.5105597056299445,-0.3827163423485202,-0.008950057439506,-0.0009888038039207,7.326424837860465,-0.0046718120574951
2025-04-30 01:19:06.332334000,9.935333984375,-0.0497685202958098,-0.0080786235630512,0.1471759633346314,0.0092951785773038,-0.3646047549824101,0.8359894647960573,-0.8448787390036723,left,0.0005339980125427,-0.8440348770939785,-0.3241598022008314,-6.507987224793434,-0.3827847697286291,-0.0114366086199879,0.0003383383154869,7.328806764560937,-0.0013454556465148
2025-04-30 01:19:06.372334300,9.975334228515624,-0.0497685202958098,0.0011663166806101,0.1471759633346314,0.0010986058041453,-0.3646047549824101,0.8359894647960573,-0.8448787390036723,left,0.0050902962684631,-0.8440348770939785,-0.3241598022008314,-6.507987224793434,-0.3827847697286291,-0.0148825673386454,0.0011135712265968,7.328806764560937,0.0052986741065979
2025-04-30 01:19:06.412334000,10.015333984375,-0.0498294320719596,0.0039726463146507,0.1473103553071239,-0.0046019898727536,-0.364525924792506,0.8358419271617348,-0.8449012370417515,left,0.0046406984329223,-0.8448466476034105,-0.3242597554439678,-6.502023347952962,-0.3831301175407062,-0.0073867863975465,0.001744445413351,7.334093765053153,0.0032740235328674
2025-04-30 01:19:06.452334000,10.055333984375,-0.0498294320719596,0.0014875154010951,0.1473103553071239,-0.0096409600228071,-0.364525924792506,0.8358419271617348,-0.8449012370417515,left,0.0035611987113952,-0.8448466476034105,-0.3242597554439678,-6.502023347952962,-0.3831301175407062,0.0015790262259542,0.0008318796753883,7.334093765053153,0.0030843615531921
2025-04-30 01:19:06.492334000,10.095333984375,-0.0505861374001473,-0.0018375106155872,0.146990689128909,-0.0093363691121339,-0.364378616008998,0.8359008916296659,-0.8448934729034394,left,-0.0021949410438537,-0.8448367537665946,-0.3291834755817428,-6.501849160429835,-0.3832644690604221,0.0071311946958303,-0.0003133490681648,7.334029467645287,0.0036528706550598
2025-04-30 01:19:06.532334000,10.135333984375,-0.0505861374001473,-0.0001670188503339,0.146990689128909,0.0025620134547352,-0.364378616008998,0.8359008916296659,-0.8448934729034394,left,-0.0051185488700866,-0.8448367537665946,-0.3291834755817428,-6.501849160429835,-0.3832644690604221,0.0193202458322048,0.0002275146543979,7.334029467645287,0.0003228187561035
2025-04-30 01:19:06.572334000,10.175333984375,-0.0505939081261514,0.001292647444643,0.1467572846064261,0.0007374541601166,-0.3644740154548309,0.8361200820639598,-0.844861134078792,left,-0.0032559633255004,-0.8436682224257254,-0.3296671674454584,-6.510400715675949,-0.3827847738514196,0.0214040521532297,0.0012871250510215,7.326417239075899,-0.003139853477478
2025-04-30 01:19:06.612334300,10.215334228515625,-0.0510415156898036,-0.0016960526118054,0.1464110348736272,-0.0112452078610658,-0.3645276166118834,0.8363035782829333,-0.8449798488568344,left,-4.7743320465e-05,-0.842719703847876,-0.3329355946568772,-6.517189352902769,-0.3824651420860213,0.0134949218481779,7.95535743236e-05,7.320230659395456,-0.0057166814804077
2025-04-30 01:19:06.652334300,10.255334228515624,-0.0517101557618017,0.0029392591677606,0.146088751028036,-0.0173927806317806,-0.3644578458679612,0.8363928170026742,-0.8450522283097206,left,0.0006635785102844,-0.8424251612365387,-0.3374046298297122,-6.519118275138736,-0.3824597949471404,-0.0003859056159853,-0.0024369433522224,7.318308166900277,-0.0049650073051452
2025-04-30 01:19:06.692334000,10.295333984375,-0.0520150371882803,0.0096822120249271,0.1459057872784626,-0.010357566177845,-0.3642229393410943,0.8364680619031962,-0.8446543663134061,left,-0.005936324596405,-0.8425328828720667,-0.3393511973202228,-6.518228632822632,-0.3825889441739517,-0.0043893749825656,-0.0030562505125999,7.31901134673357,-0.0033600330352783
2025-04-30 01:19:06.732334000,10.335333984375,-0.0516618747630796,0.0134801333770155,0.1460027690699174,-0.0062392782419919,-0.3639412678160952,0.8364908365225998,-0.8439241787735324,left,-0.0028289556503295,-0.8429968770274578,-0.3368737378234043,-6.514955310240388,-0.3827700097526365,-0.0136029925197362,-0.0029270052909851,7.322039170122146,-0.0010318160057067
2025-04-30 01:19:06.772334000,10.375333984375,-0.0517202219469589,0.0011899434030056,0.1459765042744053,-0.0142607800662517,-0.363703258708368,0.8364970261290354,-0.8434800167053141,left,0.0011107325553894,-0.8434312408263817,-0.3370894629333168,-6.5117591445475815,-0.3829928123294034,-0.0082082636654376,-0.0026698447763919,7.324872347721457,-0.0021781921386718
2025-04-30 01:19:06.812334000,10.415333984375,-0.0521432018357069,0.0070686591789126,0.1458522192395051,-0.0106710270047187,-0.3635530523091526,0.8364779452384864,-0.8433958315437061,left,0.0011151432991027,-0.8437903490025283,-0.3397066596943885,-6.508989095312357,-0.383224475071224,-0.0086100688204169,-0.003706507384777,7.327213357889652,0.0034521222114562
2025-04-30 01:19:06.852334000,10.455333984375,-0.0519417981393449,0.0203319862484931,0.1458514097345151,-0.0015935618430376,-0.3632453322643205,0.8365437623736863,-0.8426387762593208,left,-0.0009263753890991,-0.8441040555065565,-0.3382763711629435,-6.506761482390761,-0.3833729249633257,-0.0040027229115366,-0.0006832219660282,7.329257430937885,0.0024246573448181
2025-04-30 01:19:06.892334300,10.495334228515626,-0.0511106511360773,0.0103236157447099,0.146017002201086,0.0003993189893662,-0.3629105353601014,0.8366552945275847,-0.841500152314532,left,-0.0004059076309204,-0.8442931398907413,-0.3327973552299663,-6.505656151497364,-0.3833834241532943,-0.0043207430280745,0.0043344628065824,7.330489603081345,-0.0016076564788818
2025-04-30 01:19:06.932334000,10.535333984375,-0.0516590610346241,-0.0246872324496507,0.1459139971824891,-0.0160728096961975,-0.3629396127967955,0.8365753391251143,-0.8418835128755564,left,0.0058273673057556,-0.8445700173272642,-0.3362602455675602,-6.503445489710569,-0.3835695847081058,-0.0034669055603444,0.0034482311457395,7.332292853111028,-0.0059098601341247
2025-04-30 01:19:06.972334000,10.575333984375,-0.0533514991664925,-0.0146662509068846,0.1454876306532721,-0.015626523643732,-0.3633216744453375,0.8364322701670461,-0.8435320005963344,left,0.0016207695007324,-0.844388495103993,-0.3473374103011563,-6.504195431295037,-0.3836816806073716,-0.0016729756025597,0.0026262179017066,7.331110365328192,-0.00177663564682
2025-04-30 01:19:07.012334000,10.615333984375,-0.0550431078440392,-0.0046452693641185,0.1450612362586708,-0.015180236659944,-0.3637036238916495,0.836288974582633,-0.8451798335683933,left,-0.0025863647460937,-0.8442053299128219,-0.3584133329257369,-6.504939527660608,-0.383793672728813,0.000120954005979,0.0018041096627712,7.329917356151342,0.0023576617240905
2025-04-30 01:19:07.052334000,10.655333984375,-0.0557150740441164,0.0163763463497161,0.1447560563002419,-0.0250275954604148,-0.3635392453660151,0.8363604818170045,-0.8450873744844667,left,-0.0020420551300048,-0.8441715386905442,-0.3627980873486027,-6.504943619313836,-0.3839086009491866,-0.0001835550938267,0.0010383650660514,7.32969699139893,-0.0025650262832641
2025-04-30 01:19:07.194777600,10.797777587890623,-0.0590706686756633,0.0052339737303555,0.143232165293994,-0.01625881716609,-0.3616424963265836,0.8367143222096585,-0.8425376096115782,left,-0.0074203652329742,-0.846099019321657,-0.3837892182553187,-6.489574785268307,-0.385497427897512,-0.0167469643056392,-0.0154689056798815,7.342241415673494,0.0029865561518818
2025-04-30 01:19:07.234777900,10.83777783203125,-0.0579826029233804,0.000903386157006,0.14362577060556,-0.0003580637276172,-0.3614906207738905,0.8366931048780094,-0.8417753597958468,left,-0.0019454360008239,-0.8465439184616599,-0.3765385530073195,-6.486726410099863,-0.3855393486412261,-0.0034164255484938,-0.0091902911663055,7.345133045461774,-0.0034745335578918
2025-04-30 01:19:07.274777900,10.87777783203125,-0.0568933365722415,-0.0034272018820047,0.1440193667521018,0.0155426897108554,-0.3613386322783374,0.836671849404987,-0.8410119115070122,left,0.0035288333892822,-0.846988404698774,-0.3692869013786315,-6.483872774234413,-0.3855812033781747,0.0099141132086515,-0.0029118098318576,7.348019999074935,-0.0099352598190307
2025-04-30 01:19:07.314777900,10.91777783203125,-0.058083290173408,-0.0280127059668302,0.1436440806924881,-0.028477169573307,-0.3616962084424428,0.8366441330658615,-0.8422712601266924,left,0.0078978538513183,-0.8463608124469401,-0.3772697898913175,-6.488031647479533,-0.3854461944708759,0.0077257147058844,-0.0079103112220764,7.343942958894371,-0.0010548830032348
2025-04-30 01:19:07.354777900,10.95777783203125,-0.0569870734161339,-0.0010383948683738,0.1438275119517179,-0.0037882849574089,-0.3614354446367535,0.836824075648267,-0.8410869025904643,left,8.8095664978e-05,-0.8461153644052539,-0.3702599111292511,-6.49024055570066,-0.3852316432522218,0.0072383265942335,-0.0061693005263805,7.342347798657417,-0.0018530488014221
2025-04-30 01:19:07.394777900,10.99777783203125,-0.0558916670786874,0.0259359125047922,0.144010905810214,0.0209005996584892,-0.3611746625010052,0.837003886217128,-0.8399034484317794,left,-0.0077219605445861,-0.8458690702229092,-0.3632512744762003,-6.492447710356116,-0.3850170164914529,0.0067509384825825,-0.0044281706213951,7.3407462086796755,-0.0026505589485168
2025-04-30 01:19:07.434777900,11.03777783203125,-0.0558916670786874,0.0529102236032485,0.144010905810214,0.0455894842743873,-0.3611746625010052,0.837003886217128,-0.8399034484317794,left,-0.0157570242881774,-0.8458690702229092,-0.3632512744762003,-6.492447710356116,-0.3850170164914529,0.0062635499052703,-0.0019723400473594,7.3407462086796755,-0.0036113858222961
2025-04-30 01:19:07.474777900,11.07777783203125,-0.0529143310152564,0.0274782963097095,0.144862811174361,0.0404459238052368,-0.3609358790386635,0.8371591667496621,-0.8379439472703888,left,-0.0077893733978271,-0.8457790739564099,-0.3439544533319771,-6.494160944014787,-0.3845837412278919,0.0005731834098696,-0.0011705942451953,7.340161102268099,-0.0053735971450805
2025-04-30 01:19:07.514777900,11.11777783203125,-0.0499376539707433,0.0020463708788156,0.1457145108344931,0.0353023670613765,-0.3606966284373464,0.8373134087632681,-0.8359845561805714,left,0.0001754164695739,-0.8456847730051672,-0.3246564266113564,-6.495846120622754,-0.3841500504827176,-0.0051171830855309,-0.0003689639270305,7.339547938805818,-0.0071330070495605
2025-04-30 01:19:07.554777900,11.15777783203125,-0.0484605368141049,0.0008385214023292,0.1464083385639212,0.0330520495772361,-0.3609108775503819,0.8371324164136807,-0.8359218385098305,left,0.0025273561477661,-0.8461464555764919,-0.3148967742171138,-6.492933448046445,-0.3840795209782509,-0.0201359093189239,-0.00174555554986,7.3425494587093585,-0.0009791851043701
2025-04-30 01:19:07.594777900,11.19777783203125,-0.0471080999556203,-0.0021322707179933,0.1471070300475456,0.0306518077850341,-0.3611220855494274,0.8369051006413967,-0.8359546458102318,left,0.0018479824066162,-0.846813633498792,-0.3058844695914536,-6.488458932980895,-0.3841095311721411,-0.0101709840819239,-0.0001171510666608,7.346884857565164,-0.000525414943695
2025-04-30 01:19:07.634777900,11.23777783203125,-0.045754685208761,-0.0051030633039772,0.1478056283996661,0.028251564130187,-0.3613331072853818,0.8366772186735649,-0.8359860648565891,left,0.0011672377586364,-0.8474806080335219,-0.2968784120434895,-6.483970389389992,-0.3841392582682648,-0.0002060588449239,0.0015118923038244,7.351215580245852,-7.10487365722e-05
2025-04-30 01:19:07.674777900,11.27777783203125,-0.0444003097319671,-0.0080738551914691,0.1485041050142483,0.0258513204753398,-0.3615438481454482,0.8364488643823529,-0.8360159903179497,left,0.0004849433898925,-0.8481476276413322,-0.2878786929047666,-6.479466063708067,-0.3841687869737701,0.009758866392076,0.0031415540724992,7.355543964838981,0.00038343667984
2025-04-30 01:19:07.714777900,11.31777783203125,-0.044451123095401,-0.0058890022337436,0.1486022285001119,0.01526365801692,-0.3619386417708015,0.8363418655192689,-0.8369198839709496,left,3.1292438507e-05,-0.847861313163481,-0.2883015214267186,-6.481555729463696,-0.3839921446988498,-0.0002620201557874,0.0036564469337463,7.353686354273557,0.0016615390777587
2025-04-30 01:19:07.754777900,11.35777783203125,-0.0445015416636328,-0.0037041492760181,0.1487002958848727,0.0046759946271777,-0.3623333605946653,0.8362347155719532,-0.8378234529819291,left,-0.0004222989082336,-0.847574883299233,-0.288722030127421,-6.483645395219326,-0.3838153891107603,-0.0102829067036509,0.0041711200028657,7.3518275746643535,0.0029398798942565
2025-04-30 01:19:07.794777900,11.39777783203125,-0.0445516511222745,-0.0015192960854619,0.1487983071685412,-0.0059116687625646,-0.3627280053576717,0.8361272260554349,-0.8387265622187944,left,-0.0008758306503295,-0.847288120101673,-0.2891407669961452,-6.485736230018735,-0.3836385202095,-0.0203037932515144,0.0046855751425027,7.349966456967592,0.0042183995246887
2025-04-30 01:19:07.834777900,11.43777783203125,-0.0449052154416901,0.0186337511986494,0.1485362892961322,-0.0271572172641754,-0.3620010988207887,0.8362575175717695,-0.8373306216502955,left,-0.0021959543228149,-0.8480992104057745,-0.2911661718765273,-6.479675907066464,-0.3841424120151651,-0.0216861255466938,0.002512527629733,7.35522949206233,0.003176987171173
2025-04-30 01:19:07.874777900,11.47777783203125,-0.0452573650803639,0.0387867987155914,0.1482741595918593,-0.048402763903141,-0.3612738747479017,0.8363870727376397,-0.8359338150799511,left,-0.0035167336463928,-0.8489106634502941,-0.2931778587588109,-6.473609154373407,-0.3846459829520121,-0.023068455979228,0.000338077545166,7.3604907735913985,0.002135694026947
2025-04-30 01:19:07.914777900,11.51777783203125,-0.0459986688643862,0.0044512897729873,0.1478657465976459,-0.0333781950175762,-0.3608152572950042,0.8365329131799073,-0.8352232850260565,left,-0.0045779347419738,-0.8491132008162013,-0.2979081204174086,-6.471900012367963,-0.3849163567504947,-0.006940072402358,0.0005868449807167,7.361803025233745,-0.0036904215812683
2025-04-30 01:19:07.954777600,11.557777587890625,-0.0467400045722331,-0.0298842191696167,0.1474572588019712,-0.0183536298573017,-0.3603565093098192,0.8366783949822846,-0.8345130238459709,left,-0.005639910697937,-0.849316216959305,-0.3026360622547566,-6.4701844406217335,-0.385186579464752,0.0091883111745119,0.0008353684097528,7.36311819948554,-0.0095168352127075
2025-04-30 01:19:07.994777900,11.59777783203125,-0.0493403002041893,-0.0422936826944351,0.1468009553199479,-0.0117403473705053,-0.3609041983421128,0.8364673860862866,-0.8369703457127649,left,-0.0073111653327941,-0.8490943743531414,-0.3195399969130754,-6.471007447442412,-0.3853827704506875,-0.0083646476268768,-0.0054672248661518,7.361680860158801,0.0035796761512756
2025-04-30 01:19:08.034777900,11.63777783203125,-0.050577123972123,-0.0140577759593725,0.1466728547754709,0.0114313084632158,-0.3613974022687046,0.8361923034324159,-0.8387698585580363,left,0.0018792748451232,-0.8493166318722598,-0.3274604877140373,-6.468972142222524,-0.3855661181420012,0.0017371289432048,-0.0024156272411346,7.363120537573098,0.0036682486534118
2025-04-30 01:19:08.074777900,11.67777783203125,-0.0508464374003552,-0.0110661145299673,0.1465964772903605,0.0034553781151771,-0.3617502385281065,0.8361812308150243,-0.839592858541336,left,0.0033451914787292,-0.8486739518793904,-0.3294431494312361,-6.473609738895297,-0.3852884580877113,0.0288259964436292,-0.0003934167325496,7.358956403630971,0.0009441971778869
2025-04-30 01:19:08.114777900,11.71777783203125,-0.051875953611747,-0.0184892937541008,0.1460881468830963,-0.0153903849422931,-0.3620707993878463,0.8363348451551051,-0.8405275632923118,left,0.0039140582084655,-0.8473209256688905,-0.3366235989872366,-6.483203496670723,-0.384846492227461,0.0270598363131284,-0.0002385005354881,7.350179222935438,0.0042862892150878
2025-04-30 01:19:08.154777900,11.75777783203125,-0.0530458081701808,-0.0061860159039497,0.1456606528874876,0.0028451513499021,-0.3622846568669772,0.8363638455521542,-0.8414417057697947,left,-0.0083281397819519,-0.8467229714367795,-0.3444407390115782,-6.487192858567833,-0.384744244713449,0.011343402788043,-0.0006721764802932,7.34629624402225,0.0087529420852661
2025-04-30 01:19:08.194777600,11.797777587890623,-0.0528262581575909,0.0126152038574218,0.1455918673849061,0.004255280829966,-0.3623455087780068,0.8365009080152127,-0.8413227915350211,left,-0.003946304321289,-0.8460021130554343,-0.3432959894232452,-6.492555262383818,-0.3844148557366018,0.0254979953169822,-0.0002359673380851,7.341611301076412,0.003968060016632
2025-04-30 01:19:08.234777900,11.83777783203125,-0.0514630456490497,0.0170388482511043,0.1456822627471589,0.0126543436199426,-0.3621850063390231,0.8368571414533983,-0.8400375760265206,left,-0.0019116997718811,-0.8447814231656712,-0.3349057256860658,-6.501963142198324,-0.3837561536473751,0.0343248471617698,0.0039291270077228,7.33366940216124,-0.0066273212432861
2025-04-30 01:19:08.274777900,11.87777783203125,-0.0508401460472096,-0.0174737609922885,0.1456475338938894,-0.0036254804581403,-0.3622727241827269,0.8370933033225678,-0.8396915299684006,left,0.0009075999259948,-0.8435800365971973,-0.3313030615516006,-6.510964194777608,-0.383170922525075,0.0272214990109205,0.0013061612844467,7.325842069536447,-0.0172535181045532
2025-04-30 01:19:08.314777900,11.91777783203125,-0.0534719488378035,-0.0446810349822044,0.1448808590436081,-0.0334161967039108,-0.3627466022621588,0.8369684072332451,-0.8419199578262567,left,0.0029727816581726,-0.8430972931514766,-0.3486264637310057,-6.513600973021984,-0.3832861483758726,-0.0100110117346048,-0.0027675069868564,7.322694419160485,-0.0020798444747924
2025-04-30 01:19:08.354777900,11.95777783203125,-0.0563900159005914,-0.0323274694383144,0.1442516861586414,-0.0152721442282199,-0.363203681533817,0.8366192199553502,-0.8444713135122307,left,-0.0060784816741943,-0.8436311423649246,-0.3674116455586627,-6.508650657138228,-0.3838522686196005,-0.0097966864705085,-0.0079573020339012,7.326175247013569,0.0086644291877746
2025-04-30 01:19:08.394777900,11.99777783203125,-0.0576525401651367,0.0083055980503559,0.1438600678917424,-0.0018919436261057,-0.3633874382768756,0.8365808684481738,-0.8454328183501141,left,-0.0121322870254516,-0.84338144011854,-0.3757341412892565,-6.51000850148797,-0.3839090667847782,0.0228523127734661,-0.0021101646125316,7.324547353550791,0.0072393417358398
2025-04-30 01:19:08.434777900,12.03777783203125,-0.0556324002062354,0.0376973152160644,0.1440445064445285,0.020781647413969,-0.3631431975669439,0.8370600627757007,-0.8435640393387825,left,-0.0042046308517456,-0.8418077153620722,-0.3632227425014599,-6.522255988642573,-0.3830256325823242,0.0451216101646423,0.0055418238043785,7.314276134905219,-0.0048604011535644
2025-04-30 01:19:08.474777900,12.07777783203125,-0.0550572247967581,0.0073960591107606,0.1437852943752601,-0.0441097952425479,-0.3627319734556559,0.8374917993898514,-0.8420662163766911,left,0.007276177406311,-0.8406950896901395,-0.3599188055852428,-6.530584256526828,-0.3825684262680694,0.0122347474098205,0.0033569671213626,7.307003513553738,-0.0108681917190551
2025-04-30 01:19:08.514777900,12.11777783203125,-0.0578754364505464,-0.0250868629664182,0.1427398691864764,-0.0555862337350845,-0.362516522735266,0.8375660651567538,-0.842827019889708,left,0.002523124217987,-0.8406387101218327,-0.3783458216249942,-6.529956480017304,-0.383001525455469,-0.0124535486102104,-0.0010594092309474,7.306635264763235,-0.0064085721969604
2025-04-30 01:19:08.554777900,12.15777783203125,-0.0605854534090091,-0.0064750332385301,0.142044382331747,-0.0275033488869667,-0.3624524016219274,0.8373447922642643,-0.8441382659196657,left,-0.0004437565803527,-0.8416159010677993,-0.3956081777995452,-6.52177668069303,-0.3838036924121825,-0.0313142575323581,-0.0105446130037307,7.313023504495621,0.0057840347290039
2025-04-30 01:19:08.594777900,12.19777783203125,-0.0611607212631405,0.0128112807869911,0.141866852398404,-0.0194739885628223,-0.3621031301087747,0.8373264936126943,-0.8437357572918901,left,-0.0008772015571594,-0.8423460588532631,-0.3990333299426362,-6.516215539434552,-0.3842384772465729,-0.0063896551728248,-0.0165883563458919,7.317792034071683,0.0077244043350219
2025-04-30 01:19:08.634777900,12.23777783203125,-0.0608648505234365,0.0294299758970737,0.1417084698418426,-0.0087861139327287,-0.3616353588874688,0.8375713484843146,-0.8424425084772048,left,-0.0101733207702636,-0.8421703445213696,-0.397183610422723,-6.51761722292602,-0.3842039271085325,0.0135475024580955,-0.0091259032487869,7.316644617602229,0.0093026161193847
2025-04-30 01:19:08.674777900,12.27777783203125,-0.0589041065373074,0.0313008166849613,0.1419191505550746,0.0269345622509717,-0.3612725400400013,0.8380074786100473,-0.8404141164960358,left,-0.008880615234375,-0.8410169439874486,-0.3849000290414318,-6.526804153466224,-0.3835159825657173,0.0477888211607933,0.0016990378499031,7.309108376878499,-0.0109099745750427
2025-04-30 01:19:08.714777900,12.31777783203125,-0.0577956353897318,0.0010664612054824,0.1417793201616753,-0.0229525733739137,-0.3611860717968697,0.838498997967804,-0.8392487702774394,left,0.0107442140579223,-0.8390257985647782,-0.3785049211768433,-6.541742779400944,-0.3825735591841405,0.0379121489822864,-0.0089474432170391,7.296075292304158,-0.0106036663055419
2025-04-30 01:19:08.754777900,12.35777783203125,-0.0596558931279609,-0.0106296529993414,0.1409885965216898,-0.0422781594097614,-0.3610022678294271,0.8386405086384566,-0.8395729411112237,left,0.0012617707252502,-0.8386456497235206,-0.3908389175711199,-6.543795035755634,-0.3827289798615177,-0.012685302644968,-0.0108334310352802,7.293584060010313,-0.0021270513534545
2025-04-30 01:19:08.794777900,12.39777783203125,-0.0604897961238821,0.0071654608473181,0.1408782816579026,0.0136012248694896,-0.3608792742138789,0.8384739675139704,-0.8398759168012416,left,-0.0079066753387451,-0.8395915912783213,-0.3958783730430528,-6.536576774939895,-0.3832500358166942,-0.0274873375892639,-0.0087881945073604,7.29978174560666,0.0065247416496276
2025-04-30 01:19:08.834777900,12.43777783203125,-0.0584387420037542,0.0227736812084913,0.1417042251271092,0.0623226314783096,-0.3608694457960952,0.838360930456362,-0.8390605662006908,left,-0.0144339203834533,-0.8402308193533934,-0.3821981131389736,-6.532716592380404,-0.3832023235768208,0.0029605291783809,0.0014212764799594,7.303966337814927,-0.000169813632965
2025-04-30 01:19:08.874777900,12.47777783203125,-0.0556697318429287,-0.0110102165490388,0.1426873134799927,0.0472288466989994,-0.3613231750095079,0.838331839084777,-0.8387406548344415,left,0.0018495321273803,-0.8396219494124163,-0.3643548883365467,-6.53818830178976,-0.3824728084227942,0.0222537890076637,0.0063476841896772,7.299980483049154,-0.0027657151222229
2025-04-30 01:19:08.914777900,12.51777783203125,-0.0561194895468189,-0.0217254124581813,0.1426457376785147,-0.0149770863354206,-0.361915880808051,0.8382248639388086,-0.8402032246516493,left,0.011786937713623,-0.8389281740039406,-0.3675794033410027,-6.543078996440768,-0.3821622337538708,0.0105563113465905,0.0065685752779245,7.295435825356841,0.003746747970581
2025-04-30 01:19:08.954777900,12.55777783203125,-0.0570777971803352,0.0142207145690917,0.1421649905723433,-0.0186023637652397,-0.3619575987219727,0.838367355038452,-0.8405646462891941,left,0.003158152103424,-0.8381547903426558,-0.3741713124193251,-6.548354891017079,-0.3819893767743545,0.0248271580785512,0.0025433003902435,7.29036509796381,0.0016505718231201
2025-04-30 01:19:08.994777900,12.59777783203125,-0.056252723145812,0.0444809533655643,0.1419697222904165,-0.0182825159281492,-0.3613162211360818,0.8388207681389395,-0.8384885083886356,left,-0.0026459097862243,-0.8373979853637966,-0.3690784462597221,-6.554169130253792,-0.381673863039636,0.0120847560465335,-0.0023028962314128,7.285399584510922,-0.0003416538238525
2025-04-30 01:19:09.034777900,12.63777783203125,-0.0548045762928151,0.0259147193282842,0.1420976943305387,0.0013531986624002,-0.3605895796775537,0.8391714030571382,-0.8360751210991344,left,-0.0100491642951965,-0.837297892446712,-0.3596265446403995,-6.555423514229059,-0.3815424055707926,0.0040199123322963,-0.0010302700102329,7.284741997385025,-0.0103600025177001
2025-04-30 01:19:09.074777900,12.67777783203125,-0.0543921839596612,-0.0202704612165689,0.1422217143038602,0.0091013861820101,-0.3605960344484988,0.839188430035096,-0.8358874501508062,left,-0.0036498308181762,-0.8372283765886819,-0.3569506034294143,-6.5560770097017285,-0.3814525506528077,0.0053080930374562,0.0027246698737144,7.284286070311069,-0.0137921571731567
2025-04-30 01:19:09.114777900,12.71777783203125,-0.0557504787435517,-0.0438379123806953,0.1420502373384943,0.0141046904027462,-0.3613560071781942,0.8389080624282059,-0.8382542499144955,left,-0.0045863389968872,-0.8369506312629033,-0.3659681322194635,-6.557606703487038,-0.3814142075037366,0.0044832178391516,0.0039726383984088,7.282461777493357,-0.0064683556556701
2025-04-30 01:19:09.154777900,12.75777783203125,-0.0571114755325556,-0.0238792654126882,0.1418292483508083,-0.0044184997677803,-0.3620329259804815,0.8386724359191283,-0.8404139363737664,left,0.0025244355201721,-0.8366261159128346,-0.3750275273898616,-6.559460806921124,-0.3813725126353511,0.001870673848316,5.83045184612e-05,7.28033002616167,0.002795398235321
2025-04-30 01:19:09.194777600,12.797777587890623,-0.0582691358956613,-0.0048586186021566,0.1414705053373186,-0.020606717094779,-0.3621427394063895,0.8386339634998161,-0.8411795551604967,left,-0.0011382102966308,-0.8365254002590354,-0.3826636117588728,-6.559754236909747,-0.3814861182904124,0.0014339284971356,-0.0010286197066307,7.279668347382545,-0.0007069706916809
2025-04-30 01:19:09.234777900,12.83777783203125,-0.0592276635569717,-0.0013374055270105,0.1411300524755415,-0.0192720312625169,-0.3619754927031632,0.838643918167578,-0.8412693644943895,left,0.0005615949630737,-0.8367565756202657,-0.3888515431461855,-6.557704903164505,-0.3817490876568946,-0.0111401434987783,-0.0031989999115467,7.28118751977384,0.0022808909416198
2025-04-30 01:19:09.274777900,12.87777783203125,-0.0601494133950924,0.0008991188369691,0.1409279530270918,-0.0179196670651435,-0.3618231672596363,0.8385357307228086,-0.8414936320360398,left,0.0015321969985961,-0.8374936925294498,-0.3945731721960008,-6.551984187430143,-0.3822054897399872,-0.0160255543887615,-0.0064653530716896,7.286027361020445,0.0022736191749572
2025-04-30 01:19:09.314777900,12.91777783203125,-0.0606374331414835,0.0208260454237461,0.1406891243907209,-0.021878033876419,-0.3614823618115086,0.8386030199849882,-0.8409793906257933,left,0.0029133558273315,-0.8378274430418987,-0.3976232439490035,-6.549363191276789,-0.3824682081553729,-0.0043214038014411,-0.0089835971593856,7.288218149062991,0.0075926184654235
2025-04-30 01:19:09.354777900,12.95777783203125,-0.0596112080666008,0.0471234247088432,0.1406787038286351,-0.0090783284977078,-0.3607186330704976,0.8389470440295926,-0.8386874519916735,left,-0.0032728314399719,-0.8378143528973065,-0.3909075988931581,-6.54986354201436,-0.3824387065988981,0.0121041201055049,-0.0067157633602619,7.2881322243452065,0.0040190815925598
2025-04-30 01:19:09.394777900,12.99777783203125,-0.0578875184421316,0.0242146346718072,0.1408282503814044,0.0002382947131991,-0.3600242917699409,0.8393665285521693,-0.8361437702116726,left,-0.0024595856666564,-0.8373564237607458,-0.3798101220238953,-6.553858164608478,-0.3821172438755982,0.013310445472598,-0.0042066723108291,7.285126612788439,-0.0055936574935913
2025-04-30 01:19:09.434777900,13.03777783203125,-0.0580438663584182,-0.0360751301050186,0.1406787430340083,-0.001744493143633,-0.3601295274579264,0.8394569261729594,-0.8363256700975193,left,-0.0023840069770812,-0.8367349230566709,-0.3810974218880757,-6.558318066626787,-0.3818746850795468,0.0185776576399803,-0.0059053264558315,7.281044896432757,-0.0124467611312866
2025-04-30 01:19:09.474777900,13.07777783203125,-0.0602111047124139,-0.0674400180578231,0.140272251068101,0.0229602456092834,-0.3612775601855946,0.839133091338731,-0.8398470854421313,left,-0.0039421916007995,-0.8358504341175351,-0.3956973173877224,-6.563902004238963,-0.3816513788741775,0.0186616573482751,-0.0076089203357696,7.275231826239824,0.0010110139846801
2025-04-30 01:19:09.514777900,13.11777783203125,-0.0612895451967118,-0.0336978584527969,0.1402848499028569,0.045010145753622,-0.3625400468007503,0.838765053485157,-0.8431514447946912,left,-0.0069233775138854,-0.8349906922940918,-0.403158848907426,-6.5697127363443375,-0.3812584404983155,0.0225690975785255,-0.0023346096277236,7.269575407913327,0.0006227493286132
2025-04-30 01:19:09.554777900,13.15777783203125,-0.0597750823293275,0.0123134888708591,0.1407889206486522,0.0402692966163158,-0.3631543709359165,0.8387783054964127,-0.843659270981771,left,-0.0024336576461791,-0.8338081011519515,-0.3937221083246171,-6.578892652621865,-0.3804579717016207,0.0208314899355173,0.0025894492864608,7.261786653733253,0.0049551129341125
2025-04-30 01:19:09.594777900,13.19777783203125,-0.0583072400010102,0.0254892092198133,0.1411032433445068,-0.0046962425112724,-0.3629342339687034,0.8389610842538401,-0.8423967975720442,left,0.006893515586853,-0.833489690198709,-0.3841996256871148,-6.581771422928571,-0.3801484939664604,0.0025642104446887,0.0054714940488338,7.2596876356273885,-0.0024821162223815
2025-04-30 01:19:09.634777900,13.23777783203125,-0.0579761249395559,0.0105601707473397,0.1409629172061276,-0.0185878127813339,-0.3624844356589831,0.8392033897677816,-0.8411295593530077,left,0.0014052987098693,-0.8332899050965421,-0.3821043339082971,-6.5833461248993865,-0.3800949398046482,0.0040558204054832,0.0054916404187679,7.258370123288035,-0.0103024244308471
2025-04-30 01:19:09.674777900,13.27777783203125,-0.0579761249395559,-0.0109531665220856,0.1409629172061276,-0.0139851216226816,-0.3624844356589831,0.8392033897677816,-0.8411295593530077,left,-0.0040903687477111,-0.8332899050965421,-0.3821043339082971,-6.5833461248993865,-0.3800949398046482,-0.0180474799126386,0.0025918073952198,7.258370123288035,-0.0044218301773071
2025-04-30 01:19:09.714777900,13.31777783203125,-0.059875660305352,-0.0193353258073329,0.1406010594057069,-0.0138569856062531,-0.3624820539336746,0.8389269063584408,-0.8422471516002178,left,-0.0030256509780883,-0.8344473584815899,-0.3941058834778144,-6.574217062026262,-0.380840542514304,-0.0270717721432447,-0.0009099803864955,7.265998133948445,-0.0026797652244567
2025-04-30 01:19:09.754777900,13.35777783203125,-0.0613380765858968,-0.0074501987546682,0.1403881562185264,-0.0125466668978333,-0.3625390360811805,0.8386529180772277,-0.843287068170522,left,-0.0025701522827148,-0.8354985538614684,-0.4032513494964689,-6.566007452085614,-0.3814680962500131,-0.0243521258234977,-0.0016721040010452,7.272917119556665,0.00213623046875
2025-04-30 01:19:09.794777900,13.39777783203125,-0.0623315551841111,-0.0069130738265812,0.1401577173740771,-0.0167954564094543,-0.3624328577915448,0.8385481728020077,-0.843629415373873,left,-0.0027112960815429,-0.8361254622003901,-0.4094902438860386,-6.561051875504851,-0.3818837866842475,-0.0069873761385679,-0.0006005689501762,7.277039752444624,-0.0021725296974182
2025-04-30 01:19:09.834777900,13.43777783203125,-0.0634317587114132,-0.0185303706675767,0.1399385388485506,-0.0170375853776931,-0.3624881681692017,0.8383974301790997,-0.8443800452120965,left,0.0055840015411376,-0.8366369308218248,-0.4164724674561992,-6.5568818963438265,-0.3822423812541297,-0.0248455330729484,-0.0041437745094299,7.280401337832212,0.0042868256568908
2025-04-30 01:19:09.874777900,13.47777783203125,-0.0652444020733501,-0.0280231572687625,0.1396917176219461,-0.0099729020148515,-0.3626940917825001,0.838042317649198,-0.8459520547161943,left,-0.0001336336135864,-0.8377349378708164,-0.4278356095243245,-6.548135110786557,-0.3829154157705741,-0.0214257165789604,-0.0049388110637664,7.287610830819606,0.0032817721366882
2025-04-30 01:19:09.914777900,13.51777783203125,-0.0666426636986639,-0.0178979858756065,0.1394453928425343,0.0061766505241394,-0.3631388039608528,0.8378184262419763,-0.8476660809971115,left,0.0006601214408874,-0.8377930348362935,-0.4369629918970167,-6.547107521304488,-0.383073559880795,0.0095775015652179,-0.0125826001167297,7.287991939091682,0.0114127397537231
2025-04-30 01:19:09.954777900,13.55777783203125,-0.066437904991572,0.0051599256694316,0.1394134105217744,0.0106628127396106,-0.3633594209561605,0.8379116144993263,-0.8479034676113522,left,-0.0013566017150878,-0.8369515721656028,-0.4360294008413329,-6.55331397472918,-0.3826719832845283,0.0287731904536485,-0.0123286098241806,7.282468207234143,0.0094765424728393
2025-04-30 01:19:09.994777900,13.59777783203125,-0.0650625662521852,0.0168533530086278,0.1395235136945388,0.031251884996891,-0.3634237971876319,0.8382502409164684,-0.8470642376960825,left,-0.0079957246780395,-0.8353741283818586,-0.4277623250924051,-6.5653627244412895,-0.3818282446743333,0.0472907833755016,-0.0056074485182762,7.272098788911104,-0.0012481212615966
2025-04-30 01:19:10.034777900,13.63777783203125,-0.0630209620378932,-0.0050406195223331,0.139875175388818,0.0354792401194572,-0.3637204005919406,0.8385766988032575,-0.8463953289346111,left,-0.0028785467147827,-0.8334285641546916,-0.4152478210320696,-6.580329991948604,-0.3806986143727557,0.0487090274691581,-0.0009782053530216,7.259284315523505,-0.01275634765625
2025-04-30 01:19:10.074777900,13.67777783203125,-0.0633144370308701,-0.036514863371849,0.1396864760093905,0.0111148916184902,-0.3644844243653487,0.8386468591837707,-0.8479276050690565,left,-0.0001138448715209,-0.8315854947023648,-0.4180248114647343,-6.593549539005756,-0.3798818051503883,0.0363850891590118,-0.0008172057569026,7.247119830477237,-0.0090301632881164
2025-04-30 01:19:10.114777900,13.71777783203125,-0.0641352129380335,-0.011200601235032,0.1393806703040144,0.0053042988292872,-0.365052261787622,0.8386567430366642,-0.8493738600550309,left,-0.0010128617286682,-0.8303688390735224,-0.424001328591071,-6.601998802921176,-0.3794268566107188,0.0198419969528913,-0.0025880225002765,7.23907680927515,-0.000994861125946
2025-04-30 01:19:10.154777900,13.75777783203125,-0.0641352129380335,0.0252127666026353,0.1393806703040144,0.0061881714500486,-0.365052261787622,0.8386567430366642,-0.8493738600550309,left,-0.0039716362953186,-0.8303688390735224,-0.424001328591071,-6.601998802921176,-0.3794268566107188,0.0125839337706565,-0.0037552751600742,7.23907680927515,0.0056678056716918
2025-04-30 01:19:10.194777600,13.797777587890623,-0.0614510381484754,0.0438591539859771,0.139752205257951,0.015566948801279,-0.3644345049705033,0.8391860776623028,-0.846451614962759,left,-0.0025798082351684,-0.8293346463495403,-0.4067383878946304,-6.610581337827444,-0.3787128636835139,0.0177728626877069,-0.0031406320631504,7.232230888903141,-0.0027611255645751
